continue_mouse.x,continue_mouse.y,continue_mouse.leftButton,continue_mouse.midButton,continue_mouse.rightButton,continue_mouse.clicked_name,continue_mouse_2.x,continue_mouse_2.y,continue_mouse_2.leftButton,continue_mouse_2.midButton,continue_mouse_2.rightButton,continue_mouse_2.clicked_name,Q1,Q2,Q3,Q4,Q5,Q6,Q7,Q8,Q9,select_answer.x,select_answer.y,select_answer.leftButton,select_answer.midButton,select_answer.rightButton,select_answer.clicked_name,trial.thisRepN,trial.thisTrialN,trial.thisN,trial.thisIndex,trial.ran,trial.order,trials,Native tongue*,date,expName,psychopyVersion,OS,frameRate,key_resp.keys,key_resp.rt,Actual_Experiment.thisRepN,Actual_Experiment.thisTrialN,Actual_Experiment.thisN,Actual_Experiment.thisIndex,Actual_Experiment.ran,Actual_Experiment.order,Pic,mouse_pause.x,mouse_pause.y,mouse_pause.leftButton,mouse_pause.midButton,mouse_pause.rightButton,mouse_pause.clicked_name,pause.thisRepN,pause.thisTrialN,pause.thisN,pause.thisIndex,pause.ran,pause.order
0.321296314,-0.431481495,1,0,0,continue_button,0.416666686,-0.410185199,1,0,0,continue_button_2,Many,Most,More than half,Some,Less than half,Few,All,None,Half,-0.058333264,-0.297222234,1,0,0,QQQ6,1,0,16,11,1,15,ratio14_1_5_7.png,english,2020-07-02_11h00.08.925,Experiment_English,3.2.4,Win32,60,,,,,,,,,,,,,,,,,,,,,
,,,,,,,,,,,,More than half,Most,Less than half,Some,Many,Half,All,None,Few,-0.464814808,-0.287962975,1,0,0,QQQ9,1,0,16,9,1,15,ratio19_1_10_8.png,english,2020-07-02_11h00.08.925,Experiment_English,3.2.4,Win32,60,,,,,,,,,,,,,,,,,,,,,
,,,,,,,,,,,,Few,Most,Half,Some,All,None,Many,Less than half,More than half,0.50462965,-0.257407419,1,0,0,QQQ3,1,0,16,5,1,15,ratio32_6_10_2.png,english,2020-07-02_11h00.08.925,Experiment_English,3.2.4,Win32,60,,,,,,,,,,,,,,,,,,,,,
,,,,,,,,,,,,Few,Less than half,Some,Most,None,All,Half,More than half,Many,-0.013888876,0.31296296,1,0,0,QQQ4,1,0,16,0,1,15,ratio91_9_10_19.png,english,2020-07-02_11h00.08.925,Experiment_English,3.2.4,Win32,60,,,,,,,,,,,,,,,,,,,,,
,,,,,,,,,,,,Most,Half,All,Few,Many,None,Less than half,More than half,Some,0.407407427,0.30740739,1,0,0,QQQ1,1,0,16,3,1,15,ratio41_8_10_8.png,english,2020-07-02_11h00.08.925,Experiment_English,3.2.4,Win32,60,,,,,,,,,,,,,,,,,,,,,
,,,,,,,,,,,,Half,Some,Less than half,More than half,Few,Many,All,Most,None,0.091666681,0.362037035,1,0,0,QQQ4,,,,,,,,english,2020-07-02_11h00.08.925,Experiment_English,3.2.4,Win32,60,b,12.42399979,1,0,340,224,1,339,ratio32_3_5_10.png,,,,,,,,,,,,
,,,,,,,,,,,,Less than half,None,Most,All,Some,More than half,Many,Few,Half,0.416666686,0.269444441,1,0,0,QQQ1,,,,,,,,english,2020-07-02_11h00.08.925,Experiment_English,3.2.4,Win32,60,,,1,0,340,15,1,339,ratio12_5_15_5.png,,,,,,,,,,,,
,,,,,,,,,,,,Many,Half,Few,More than half,Less than half,All,None,Most,Some,-0.385185178,0.011111104,1,0,0,QQQ8,,,,,,,,english,2020-07-02_11h00.08.925,Experiment_English,3.2.4,Win32,60,,,1,0,340,332,1,339,ratio91_18_20_4.png,,,,,,,,,,,,
,,,,,,,,,,,,Some,Most,More than half,Few,None,Many,Less than half,All,Half,0.521296317,-0.072222231,1,0,0,QQQ2,,,,,,,,english,2020-07-02_11h00.08.925,Experiment_English,3.2.4,Win32,60,,,1,0,340,267,1,339,ratio41_8_10_4.png,,,,,,,,,,,,
,,,,,,,,,,,,All,Few,None,Half,More than half,Many,Most,Some,Less than half,-0.021296227,-0.274074086,1,0,0,QQQ6,,,,,,,,english,2020-07-02_11h00.08.925,Experiment_English,3.2.4,Win32,60,,,1,0,340,294,1,339,ratio43_8_14_9.png,,,,,,,,,,,,
,,,,,,,,,,,,All,None,Half,More than half,Less than half,Some,Few,Many,Most,-0.477777772,0.240740737,1,0,0,QQQ7,,,,,,,,english,2020-07-02_11h00.08.925,Experiment_English,3.2.4,Win32,60,,,1,0,340,126,1,339,ratio15_2_12_1.png,,,,,,,,,,,,
,,,,,,,,,,,,All,Most,None,Less than half,Some,Half,More than half,Few,Many,0.463888909,0.042592586,1,0,0,QQQ2,,,,,,,,english,2020-07-02_11h00.08.925,Experiment_English,3.2.4,Win32,60,,,1,0,340,324,1,339,ratio91_9_10_7.png,,,,,,,,,,,,
,,,,,,,,,,,,Some,More than half,Few,None,Most,Less than half,Many,All,Half,0.387037056,0.001851844,1,0,0,QQQ2,,,,,,,,english,2020-07-02_11h00.08.925,Experiment_English,3.2.4,Win32,60,,,1,0,340,165,1,339,ratio21_4_6_10.png,,,,,,,,,,,,
,,,,,,,,,,,,All,Half,Some,More than half,Less than half,Most,None,Many,Few,-0.058333264,-0.228703771,1,0,0,QQQ6,,,,,,,,english,2020-07-02_11h00.08.925,Experiment_English,3.2.4,Win32,60,,,1,0,340,323,1,339,ratio91_9_10_5.png,,,,,,,,,,,,
,,,,,,,,,,,,Half,Most,Less than half,Many,More than half,Few,All,Some,None,0.502777799,-0.312962975,1,0,0,QQQ3,,,,,,,,english,2020-07-02_11h00.08.925,Experiment_English,3.2.4,Win32,60,,,1,0,340,2,1,339,ratio12_1_3_10.png,,,,,,,,,,,,
,,,,,,,,,,,,More than half,Some,All,Half,Many,None,Few,Most,Less than half,-0.415740705,-0.035185193,1,0,0,QQQ8,,,,,,,,english,2020-07-02_11h00.08.925,Experiment_English,3.2.4,Win32,60,,,1,0,340,175,1,339,ratio21_10_15_2.png,,,,,,,,,,,,
,,,,,,,,,,,,All,More than half,Many,Few,Most,Less than half,Some,Half,None,0.552777799,0.245370367,1,0,0,QQQ1,,,,,,,,english,2020-07-02_11h00.08.925,Experiment_English,3.2.4,Win32,60,,,1,0,340,45,1,339,ratioX0_8_8_3.png,,,,,,,,,,,,
,,,,,,,,,,,,None,All,Many,Half,Most,Few,Less than half,More than half,Some,0.511111132,0.248148144,1,0,0,QQQ1,,,,,,,,english,2020-07-02_11h00.08.925,Experiment_English,3.2.4,Win32,60,,,1,0,340,74,1,339,ratio0Y_0_15_10.png,,,,,,,,,,,,
,,,,,,,,,,,,Some,Few,Most,All,None,More than half,Many,Half,Less than half,0.02500007,0.276851849,1,0,0,QQQ4,,,,,,,,english,2020-07-02_11h00.08.925,Experiment_English,3.2.4,Win32,60,,,1,0,340,53,1,339,ratioX0_14_14_8.png,,,,,,,,,,,,
,,,,,,,,,,,,Some,More than half,None,Many,Half,All,Less than half,Most,Few,0.537037058,-0.329629642,1,0,0,QQQ3,,,,,,,,english,2020-07-02_11h00.08.925,Experiment_English,3.2.4,Win32,60,,,1,0,340,60,1,339,ratio0Y_0_3_5.png,,,,,,,,,,,,
,,,,,,,,,,,,More than half,All,Less than half,Half,Few,Most,Many,Some,None,-0.575925921,-0.280555567,1,0,0,QQQ9,,,,,,,,english,2020-07-02_11h00.08.925,Experiment_English,3.2.4,Win32,60,,,1,0,340,69,1,339,ratio0Y_0_11_6.png,,,,,,,,,,,,
,,,,,,,,,,,,Less than half,None,Some,Most,More than half,All,Few,Many,Half,0.51388891,0.333333331,1,0,0,QQQ1,,,,,,,,english,2020-07-02_11h00.08.925,Experiment_English,3.2.4,Win32,60,,,1,0,340,258,1,339,ratio34_6_14_14.png,,,,,,,,,,,,
,,,,,,,,,,,,Some,Half,Many,Most,None,All,Few,Less than half,More than half,-0.000925913,0.341666664,1,0,0,QQQ4,,,,,,,,english,2020-07-02_11h00.08.925,Experiment_English,3.2.4,Win32,60,,,1,0,340,268,1,339,ratio41_8_10_5.png,,,,,,,,,,,,
,,,,,,,,,,,,More than half,Some,Most,None,All,Less than half,Few,Half,Many,-0.381481474,0.272222219,1,0,0,QQQ7,,,,,,,,english,2020-07-02_11h00.08.925,Experiment_English,3.2.4,Win32,60,,,1,0,340,150,1,339,ratio19_2_20_1.png,,,,,,,,,,,,
,,,,,,,,,,,,Most,Few,More than half,Half,Many,Less than half,All,None,Some,-0.088888877,0.231481477,1,0,0,QQQ4,,,,,,,,english,2020-07-02_11h00.08.925,Experiment_English,3.2.4,Win32,60,,,1,0,340,254,1,339,ratio34_6_14_9.png,,,,,,,,,,,,
,,,,,,,,,,,,Most,Some,Many,Half,More than half,Less than half,None,All,Few,-0.021296227,-0.24722229,1,0,0,QQQ6,,,,,,,,english,2020-07-02_11h00.08.925,Experiment_English,3.2.4,Win32,60,,,1,0,340,242,1,339,ratio34_3_7_6.png,,,,,,,,,,,,
,,,,,,,,,,,,Most,None,Half,Few,Some,Less than half,All,Many,More than half,0.068518533,0.215740737,1,0,0,QQQ4,,,,,,,,english,2020-07-02_11h00.08.925,Experiment_English,3.2.4,Win32,60,,,1,0,340,88,1,339,ratio13_3_12_5.png,,,,,,,,,,,,
,,,,,,,,,,,,Less than half,Few,Most,None,Some,Many,Half,More than half,All,0.434259392,0.302777761,1,0,0,QQQ1,,,,,,,,english,2020-07-02_11h00.08.925,Experiment_English,3.2.4,Win32,60,,,1,0,340,287,1,339,ratio43_4_7_17.png,,,,,,,,,,,,
,,,,,,,,,,,,All,None,Few,Most,Some,More than half,Less than half,Many,Half,0.562962985,-0.220370381,1,0,0,QQQ3,,,,,,,,english,2020-07-02_11h00.08.925,Experiment_English,3.2.4,Win32,60,,,1,0,340,4,1,339,ratio12_2_6_5.png,,,,,,,,,,,,
,,,,,,,,,,,,Some,Less than half,None,All,More than half,Most,Few,Half,Many,-0.061111099,-0.306481493,1,0,0,QQQ6,,,,,,,,english,2020-07-02_11h00.08.925,Experiment_English,3.2.4,Win32,60,,,1,0,340,315,1,339,ratio51_15_18_10.png,,,,,,,,,,,,
,,,,,,,,,,,,More than half,Half,All,Few,Many,Less than half,Most,Some,None,-0.411111104,0.212037033,1,0,0,QQQ7,,,,,,,,english,2020-07-02_11h00.08.925,Experiment_English,3.2.4,Win32,60,,,1,0,340,203,1,339,ratio31_3_4_9.png,,,,,,,,,,,,
,,,,,,,,,,,,All,Less than half,Half,Few,Some,More than half,Many,None,Most,-0.495370365,-0.342592605,1,0,0,QQQ9,,,,,,,,english,2020-07-02_11h00.08.925,Experiment_English,3.2.4,Win32,60,,,1,0,340,168,1,339,ratio21_6_9_3.png,,,,,,,,,,,,
,,,,,,,,,,,,More than half,Many,Half,All,Few,Less than half,Most,None,Some,0.015740811,0.295370367,1,0,0,QQQ4,,,,,,,,english,2020-07-02_11h00.08.925,Experiment_English,3.2.4,Win32,60,,,1,0,340,58,1,339,ratioX0_19_19_4.png,,,,,,,,,,,,
,,,,,,,,,,,,More than half,Less than half,Half,Many,Most,All,Few,None,Some,0.451851872,-0.039814823,1,0,0,QQQ2,,,,,,,,english,2020-07-02_11h00.08.925,Experiment_English,3.2.4,Win32,60,,,1,0,340,256,1,339,ratio34_6_14_11.png,,,,,,,,,,,,
,,,,,,,,,,,,Some,Half,Less than half,Most,More than half,All,Many,Few,None,0.514814836,-0.255555567,1,0,0,QQQ3,,,,,,,,english,2020-07-02_11h00.08.925,Experiment_English,3.2.4,Win32,60,,,1,0,340,98,1,339,ratio13_5_20_3.png,,,,,,,,,,,,
,,,,,,,,,,,,Less than half,More than half,Most,Few,Many,None,Some,All,Half,0.408333353,-0.360185198,1,0,0,QQQ3,,,,,,,,english,2020-07-02_11h00.08.925,Experiment_English,3.2.4,Win32,60,,,1,0,340,200,1,339,ratio31_3_4_4.png,,,,,,,,,,,,
,,,,,,,,,,,,Less than half,Half,None,Most,Many,All,More than half,Few,Some,0.077777792,0.30833333,1,0,0,QQQ4,,,,,,,,english,2020-07-02_11h00.08.925,Experiment_English,3.2.4,Win32,60,,,1,0,340,330,1,339,ratio91_18_20_2.png,,,,,,,,,,,,
,,,,,,,,,,,,Less than half,None,Some,Few,More than half,Most,Many,All,Half,-0.069444432,0.057407401,1,0,0,QQQ5,,,,,,,,english,2020-07-02_11h00.08.925,Experiment_English,3.2.4,Win32,60,,,1,0,340,221,1,339,ratio32_3_5_3.png,,,,,,,,,,,,
,,,,,,,,,,,,Some,Few,Most,Half,All,Many,Less than half,None,More than half,0.375000019,-0.26851853,1,0,0,QQQ3,,,,,,,,english,2020-07-02_11h00.08.925,Experiment_English,3.2.4,Win32,60,,,1,0,340,338,1,339,ratio91_18_20_18.png,0.307407425,-0.406481495,1,0,0,continue_button_pause,1,0,1,0,1,0
,,,,,,,,,,,,,,,,,,,,,,,,,,,,,,,,,,english,2020-07-02_11h00.08.925,Experiment_English,3.2.4,Win32,60,,,1,0,340,338,1,339,ratio91_18_20_18.png,,,,,,,,,,,,
,,,,,,,,,,,,Less than half,Few,Half,Many,More than half,All,Some,Most,None,0.400000019,-0.018518526,1,0,0,QQQ2,,,,,,,,english,2020-07-02_11h00.08.925,Experiment_English,3.2.4,Win32,60,,,1,0,340,83,1,339,ratio13_1_4_10.png,,,,,,,,,,,,
,,,,,,,,,,,,More than half,Half,Some,Many,None,Less than half,Most,Few,All,0.072222237,0.313888886,1,0,0,QQQ4,,,,,,,,english,2020-07-02_11h00.08.925,Experiment_English,3.2.4,Win32,60,,,1,0,340,215,1,339,ratio31_12_16_8.png,,,,,,,,,,,,
,,,,,,,,,,,,Most,Some,More than half,None,Many,All,Half,Less than half,Few,-0.504629624,0.341666664,1,0,0,QQQ7,,,,,,,,english,2020-07-02_11h00.08.925,Experiment_English,3.2.4,Win32,60,,,1,0,340,21,1,339,ratio11_2_4_10.png,,,,,,,,,,,,
,,,,,,,,,,,,Some,Few,All,Many,More than half,Less than half,None,Half,Most,-0.567592588,-0.275925937,1,0,0,QQQ9,,,,,,,,english,2020-07-02_11h00.08.925,Experiment_English,3.2.4,Win32,60,,,1,0,340,326,1,339,ratio91_9_10_10.png,,,,,,,,,,,,
,,,,,,,,,,,,None,All,Half,More than half,Most,Less than half,Some,Few,Many,-0.045370358,0.237037033,1,0,0,QQQ4,,,,,,,,english,2020-07-02_11h00.08.925,Experiment_English,3.2.4,Win32,60,,,1,0,340,230,1,339,ratio32_9_15_1.png,,,,,,,,,,,,
,,,,,,,,,,,,Some,None,Half,Most,Few,More than half,Less than half,Many,All,0.032407421,0.0324074,1,0,0,QQQ5,,,,,,,,english,2020-07-02_11h00.08.925,Experiment_English,3.2.4,Win32,60,,,1,0,340,101,1,339,ratio14_1_5_7.png,,,,,,,,,,,,
,,,,,,,,,,,,Some,More than half,Few,None,Half,Less than half,All,Many,Most,-0.506481476,-0.057407416,1,0,0,QQQ8,,,,,,,,english,2020-07-02_11h00.08.925,Experiment_English,3.2.4,Win32,60,,,1,0,340,218,1,339,ratio31_15_20_7.png,,,,,,,,,,,,
,,,,,,,,,,,,None,Few,Most,All,Some,More than half,Less than half,Half,Many,0.439814835,0.028703697,1,0,0,QQQ2,,,,,,,,english,2020-07-02_11h00.08.925,Experiment_English,3.2.4,Win32,60,,,1,0,340,158,1,339,ratio19_2_20_17.png,,,,,,,,,,,,
,,,,,,,,,,,,Less than half,More than half,Many,Half,Most,All,Few,None,Some,0.528703725,-0.003703711,1,0,0,QQQ2,,,,,,,,english,2020-07-02_11h00.08.925,Experiment_English,3.2.4,Win32,60,,,1,0,340,238,1,339,ratio32_12_20_9.png,,,,,,,,,,,,
,,,,,,,,,,,,Few,Half,More than half,All,Many,Most,Some,None,Less than half,-0.092592581,0.027777771,1,0,0,QQQ5,,,,,,,,english,2020-07-02_11h00.08.925,Experiment_English,3.2.4,Win32,60,,,1,0,340,283,1,339,ratio43_4_7_8.png,,,,,,,,,,,,
,,,,,,,,,,,,Some,More than half,None,Many,Half,Few,All,Less than half,Most,0.398148167,0.323148146,1,0,0,QQQ1,,,,,,,,english,2020-07-02_11h00.08.925,Experiment_English,3.2.4,Win32,60,,,1,0,340,14,1,339,ratio12_5_15_4.png,,,,,,,,,,,,
,,,,,,,,,,,,All,Most,Many,Few,Less than half,None,Some,More than half,Half,-0.621296292,-0.262037048,1,0,0,QQQ9,,,,,,,,english,2020-07-02_11h00.08.925,Experiment_English,3.2.4,Win32,60,,,1,0,340,22,1,339,ratio11_3_6_6.png,,,,,,,,,,,,
,,,,,,,,,,,,Some,Few,All,Half,None,Many,More than half,Less than half,Most,-0.453703697,-0.315740753,1,0,0,QQQ9,,,,,,,,english,2020-07-02_11h00.08.925,Experiment_English,3.2.4,Win32,60,,,1,0,340,331,1,339,ratio91_18_20_3.png,,,,,,,,,,,,
,,,,,,,,,,,,Less than half,More than half,All,Most,Few,Some,Many,None,Half,0.033333347,-0.033333341,1,0,0,QQQ5,,,,,,,,english,2020-07-02_11h00.08.925,Experiment_English,3.2.4,Win32,60,,,1,0,340,92,1,339,ratio13_4_16_3.png,,,,,,,,,,,,
,,,,,,,,,,,,Many,Half,Some,Most,More than half,None,All,Less than half,Few,0.460185205,0.014814808,1,0,0,QQQ2,,,,,,,,english,2020-07-02_11h00.08.925,Experiment_English,3.2.4,Win32,60,,,1,0,340,17,1,339,ratio12_6_18_5.png,,,,,,,,,,,,
,,,,,,,,,,,,Some,Few,None,Many,Most,All,Half,Less than half,More than half,0.05092594,-0.006481489,1,0,0,QQQ5,,,,,,,,english,2020-07-02_11h00.08.925,Experiment_English,3.2.4,Win32,60,,,1,0,340,266,1,339,ratio41_8_10_2.png,,,,,,,,,,,,
,,,,,,,,,,,,Less than half,None,Most,All,Some,More than half,Few,Many,Half,0.492592613,-0.336111124,1,0,0,QQQ3,,,,,,,,english,2020-07-02_11h00.08.925,Experiment_English,3.2.4,Win32,60,,,1,0,340,333,1,339,ratio91_18_20_6.png,,,,,,,,,,,,
,,,,,,,,,,,,Most,More than half,Less than half,None,Some,Few,All,Half,Many,-0.374074066,0.24907407,1,0,0,QQQ7,,,,,,,,english,2020-07-02_11h00.08.925,Experiment_English,3.2.4,Win32,60,,,1,0,340,40,1,339,ratioX0_3_3_5.png,,,,,,,,,,,,
,,,,,,,,,,,,None,Some,All,More than half,Many,Less than half,Most,Few,Half,-0.024074061,-0.205555623,1,0,0,QQQ6,,,,,,,,english,2020-07-02_11h00.08.925,Experiment_English,3.2.4,Win32,60,,,1,0,340,199,1,339,ratio23_8_20_8.png,,,,,,,,,,,,
,,,,,,,,,,,,Half,Many,Most,Few,None,All,Less than half,More than half,Some,-0.452777743,0.092592587,1,0,0,QQQ8,,,,,,,,english,2020-07-02_11h00.08.925,Experiment_English,3.2.4,Win32,60,,,1,0,340,206,1,339,ratio31_6_8_6.png,,,,,,,,,,,,
,,,,,,,,,,,,All,Some,More than half,Many,Most,Few,Half,Less than half,None,-0.045370358,-0.05185186,1,0,0,QQQ5,,,,,,,,english,2020-07-02_11h00.08.925,Experiment_English,3.2.4,Win32,60,,,1,0,340,205,1,339,ratio31_6_8_2.png,,,,,,,,,,,,
,,,,,,,,,,,,All,Few,Less than half,None,Most,Many,Some,More than half,Half,-0.565740736,-0.24722229,1,0,0,QQQ9,,,,,,,,english,2020-07-02_11h00.08.925,Experiment_English,3.2.4,Win32,60,,,1,0,340,38,1,339,ratio11_10_20_5.png,,,,,,,,,,,,
,,,,,,,,,,,,None,Some,Few,Many,All,More than half,Less than half,Most,Half,-0.456481475,-0.0175926,1,0,0,QQQ8,,,,,,,,english,2020-07-02_11h00.08.925,Experiment_English,3.2.4,Win32,60,,,1,0,340,172,1,339,ratio21_8_12_6.png,,,,,,,,,,,,
,,,,,,,,,,,,Few,Many,Most,Less than half,Some,All,None,Half,More than half,0.422222242,-0.265740809,1,0,0,QQQ3,,,,,,,,english,2020-07-02_11h00.08.925,Experiment_English,3.2.4,Win32,60,,,1,0,340,334,1,339,ratio91_18_20_9.png,,,,,,,,,,,,
,,,,,,,,,,,,Many,All,Some,More than half,Most,Less than half,Half,None,Few,0.435185205,-0.053703712,1,0,0,QQQ2,,,,,,,,english,2020-07-02_11h00.08.925,Experiment_English,3.2.4,Win32,60,,,1,0,340,59,1,339,ratioX0_20_20_9.png,,,,,,,,,,,,
,,,,,,,,,,,,Half,All,Many,Less than half,Some,Few,Most,More than half,None,0.094444459,-0.262962974,1,0,0,QQQ6,,,,,,,,english,2020-07-02_11h00.08.925,Experiment_English,3.2.4,Win32,60,,,1,0,340,152,1,339,ratio19_2_20_6.png,,,,,,,,,,,,
,,,,,,,,,,,,Most,Less than half,None,Many,Few,More than half,Some,Half,All,-0.651851848,-0.020370378,1,0,0,QQQ8,,,,,,,,english,2020-07-02_11h00.08.925,Experiment_English,3.2.4,Win32,60,,,1,0,340,227,1,339,ratio32_6_10_6.png,,,,,,,,,,,,
,,,,,,,,,,,,Half,More than half,Many,Less than half,All,Few,None,Some,Most,-0.036111098,-0.288888957,1,0,0,QQQ6,,,,,,,,english,2020-07-02_11h00.08.925,Experiment_English,3.2.4,Win32,60,,,1,0,340,81,1,339,ratio13_1_4_5.png,,,,,,,,,,,,
,,,,,,,,,,,,Most,Some,None,Less than half,All,Many,More than half,Half,Few,-0.465740734,0.246296293,1,0,0,QQQ7,,,,,,,,english,2020-07-02_11h00.08.925,Experiment_English,3.2.4,Win32,60,,,1,0,340,286,1,339,ratio43_4_7_15.png,,,,,,,,,,,,
,,,,,,,,,,,,Few,Most,Less than half,Some,None,Half,More than half,All,Many,0.428703723,-0.302777846,1,0,0,QQQ3,,,,,,,,english,2020-07-02_11h00.08.925,Experiment_English,3.2.4,Win32,60,,,1,0,340,9,1,339,ratio12_3_9_5.png,,,,,,,,,,,,
,,,,,,,,,,,,Less than half,Many,Some,None,All,Most,Few,More than half,Half,0.533333355,0.32129628,1,0,0,QQQ1,,,,,,,,english,2020-07-02_11h00.08.925,Experiment_English,3.2.4,Win32,60,,,1,0,340,16,1,339,ratio12_5_15_6.png,,,,,,,,,,,,
,,,,,,,,,,,,Few,All,Half,Less than half,Most,None,Many,Some,More than half,-0.139814804,0.273148145,1,0,0,QQQ4,,,,,,,,english,2020-07-02_11h00.08.925,Experiment_English,3.2.4,Win32,60,,,1,0,340,244,1,339,ratio34_3_7_9.png,,,,,,,,,,,,
,,,,,,,,,,,,All,Most,Many,Few,None,More than half,Half,Less than half,Some,-0.559259226,0.300925923,1,0,0,QQQ7,,,,,,,,english,2020-07-02_11h00.08.925,Experiment_English,3.2.4,Win32,60,,,1,0,340,28,1,339,ratio11_5_10_9.png,,,,,,,,,,,,
,,,,,,,,,,,,Half,More than half,All,Less than half,None,Many,Few,Some,Most,0.45000002,-0.278703715,1,0,0,QQQ3,,,,,,,,english,2020-07-02_11h00.08.925,Experiment_English,3.2.4,Win32,60,,,1,0,340,41,1,339,ratioX0_4_4_9.png,0.371296315,-0.381481551,1,0,0,continue_button_pause,1,0,1,0,1,0
,,,,,,,,,,,,,,,,,,,,,,,,,,,,,,,,,,english,2020-07-02_11h00.08.925,Experiment_English,3.2.4,Win32,60,,,1,0,340,41,1,339,ratioX0_4_4_9.png,,,,,,,,,,,,
,,,,,,,,,,,,Half,All,Most,Some,Few,None,More than half,Less than half,Many,0.037962977,-0.340740753,1,0,0,QQQ6,,,,,,,,english,2020-07-02_11h00.08.925,Experiment_English,3.2.4,Win32,60,,,1,0,340,75,1,339,ratio0Y_0_16_10.png,,,,,,,,,,,,
,,,,,,,,,,,,None,Many,Most,Few,Some,More than half,Half,All,Less than half,0.474074094,-0.313888901,1,0,0,QQQ3,,,,,,,,english,2020-07-02_11h00.08.925,Experiment_English,3.2.4,Win32,60,,,1,0,340,309,1,339,ratio51_10_12_10.png,,,,,,,,,,,,
,,,,,,,,,,,,Less than half,Many,More than half,All,Few,None,Most,Some,Half,0.042592606,-0.011111119,1,0,0,QQQ5,,,,,,,,english,2020-07-02_11h00.08.925,Experiment_English,3.2.4,Win32,60,,,1,0,340,7,1,339,ratio12_3_9_2.png,,,,,,,,,,,,
,,,,,,,,,,,,None,Few,Most,Less than half,Half,All,Some,Many,More than half,0.476851872,0.003703696,1,0,0,QQQ2,,,,,,,,english,2020-07-02_11h00.08.925,Experiment_English,3.2.4,Win32,60,,,1,0,340,127,1,339,ratio15_2_12_2.png,,,,,,,,,,,,
,,,,,,,,,,,,None,Some,All,More than half,Most,Less than half,Few,Many,Half,-0.025925857,-0.02685186,1,0,0,QQQ5,,,,,,,,english,2020-07-02_11h00.08.925,Experiment_English,3.2.4,Win32,60,,,1,0,340,310,1,339,ratio51_10_12_12.png,,,,,,,,,,,,
,,,,,,,,,,,,All,More than half,Many,Most,Half,Few,None,Less than half,Some,0.477777798,-0.365740754,1,0,0,QQQ3,,,,,,,,english,2020-07-02_11h00.08.925,Experiment_English,3.2.4,Win32,60,,,1,0,340,216,1,339,ratio31_15_20_3.png,,,,,,,,,,,,
,,,,,,,,,,,,Few,All,Most,Half,Many,More than half,None,Less than half,Some,0.477777798,-0.365740754,1,0,0,QQQ3,,,,,,,,english,2020-07-02_11h00.08.925,Experiment_English,3.2.4,Win32,60,,,1,0,340,176,1,339,ratio21_10_15_3.png,,,,,,,,,,,,
,,,,,,,,,,,,None,Few,More than half,Many,Most,Less than half,Half,All,Some,0.02592594,0.356481479,1,0,0,QQQ4,,,,,,,,english,2020-07-02_11h00.08.925,Experiment_English,3.2.4,Win32,60,,,1,0,340,177,1,339,ratio21_12_18_1.png,,,,,,,,,,,,
,,,,,,,,,,,,All,None,Few,Some,More than half,Half,Many,Most,Less than half,0.02592594,0.356481479,1,0,0,QQQ4,,,,,,,,english,2020-07-02_11h00.08.925,Experiment_English,3.2.4,Win32,60,,,1,0,340,197,1,339,ratio23_8_20_6.png,,,,,,,,,,,,
,,,,,,,,,,,,Less than half,None,Half,More than half,All,Most,Many,Some,Few,-0.00833332,0.068518484,1,0,0,QQQ5,,,,,,,,english,2020-07-02_11h00.08.925,Experiment_English,3.2.4,Win32,60,,,1,0,340,57,1,339,ratioX0_18_18_1.png,,,,,,,,,,,,
,,,,,,,,,,,,Half,Less than half,Few,Many,More than half,Some,Most,None,All,-0.00833332,0.068518484,1,0,0,QQQ5,,,,,,,,english,2020-07-02_11h00.08.925,Experiment_English,3.2.4,Win32,60,,,1,0,340,207,1,339,ratio31_6_8_9.png,,,,,,,,,,,,
,,,,,,,,,,,,Many,All,More than half,Some,Most,None,Few,Less than half,Half,-0.437962956,0.32222222,1,0,0,QQQ7,,,,,,,,english,2020-07-02_11h00.08.925,Experiment_English,3.2.4,Win32,60,,,1,0,340,240,1,339,ratio34_3_7_4.png,,,,,,,,,,,,
,,,,,,,,,,,,Few,None,Many,All,Some,More than half,Less than half,Half,Most,0.481481502,-0.249074085,1,0,0,QQQ3,,,,,,,,english,2020-07-02_11h00.08.925,Experiment_English,3.2.4,Win32,60,,,1,0,340,173,1,339,ratio21_8_12_9.png,,,,,,,,,,,,
,,,,,,,,,,,,Less than half,Half,All,Most,Some,More than half,None,Few,Many,0.594444467,0.016666659,1,0,0,QQQ2,,,,,,,,english,2020-07-02_11h00.08.925,Experiment_English,3.2.4,Win32,60,,,1,0,340,259,1,339,ratio34_6_14_19.png,,,,,,,,,,,,
,,,,,,,,,,,,Less than half,Few,Half,More than half,None,Many,All,Some,Most,0.468518539,-0.257407419,1,0,0,QQQ3,,,,,,,,english,2020-07-02_11h00.08.925,Experiment_English,3.2.4,Win32,60,,,1,0,340,255,1,339,ratio34_6_14_10.png,,,,,,,,,,,,
,,,,,,,,,,,,More than half,Many,Most,None,Half,Some,All,Few,Less than half,-0.577777745,0.315740738,1,0,0,QQQ7,,,,,,,,english,2020-07-02_11h00.08.925,Experiment_English,3.2.4,Win32,60,,,1,0,340,50,1,339,ratioX0_12_12_3.png,,,,,,,,,,,,
,,,,,,,,,,,,Few,Some,All,Less than half,Many,Half,More than half,None,Most,0.428703723,-0.212037048,1,0,0,QQQ3,,,,,,,,english,2020-07-02_11h00.08.925,Experiment_English,3.2.4,Win32,60,,,1,0,340,55,1,339,ratioX0_16_16_3.png,,,,,,,,,,,,
,,,,,,,,,,,,All,Half,Less than half,More than half,Some,Few,Most,Many,None,0.040740755,0.014814808,1,0,0,QQQ5,,,,,,,,english,2020-07-02_11h00.08.925,Experiment_English,3.2.4,Win32,60,,,1,0,340,99,1,339,ratio13_5_20_4.png,,,,,,,,,,,,
,,,,,,,,,,,,More than half,All,Many,Most,Half,Some,None,Few,Less than half,-0.649074071,-0.336111124,1,0,0,QQQ9,,,,,,,,english,2020-07-02_11h00.08.925,Experiment_English,3.2.4,Win32,60,,,1,0,340,184,1,339,ratio23_2_5_10.png,,,,,,,,,,,,
,,,,,,,,,,,,Half,None,All,Most,Some,Many,More than half,Few,Less than half,-0.546296291,-0.033333341,1,0,0,QQQ8,,,,,,,,english,2020-07-02_11h00.08.925,Experiment_English,3.2.4,Win32,60,,,1,0,340,109,1,339,ratio14_2_10_9.png,,,,,,,,,,,,
,,,,,,,,,,,,Some,More than half,All,Less than half,None,Most,Many,Few,Half,-0.104629561,-0.09907414,1,0,0,QQQ5,,,,,,,,english,2020-07-02_11h00.08.925,Experiment_English,3.2.4,Win32,60,,,1,0,340,65,1,339,ratio0Y_0_8_4.png,,,,,,,,,,,,
,,,,,,,,,,,,Many,None,Less than half,Few,Half,Some,Most,All,More than half,-0.082407395,-0.062962971,1,0,0,QQQ5,,,,,,,,english,2020-07-02_11h00.08.925,Experiment_English,3.2.4,Win32,60,,,1,0,340,231,1,339,ratio32_9_15_2.png,,,,,,,,,,,,
,,,,,,,,,,,,Few,Less than half,None,Half,Many,All,Most,Some,More than half,-0.082407395,-0.062962971,1,0,0,QQQ5,,,,,,,,english,2020-07-02_11h00.08.925,Experiment_English,3.2.4,Win32,60,,,1,0,340,273,1,339,ratio41_12_15_8.png,,,,,,,,,,,,
,,,,,,,,,,,,Most,None,More than half,All,Many,Less than half,Half,Few,Some,-0.447222216,0.059259224,1,0,0,QQQ8,,,,,,,,english,2020-07-02_11h00.08.925,Experiment_English,3.2.4,Win32,60,,,1,0,340,95,1,339,ratio13_4_16_10.png,,,,,,,,,,,,
,,,,,,,,,,,,Many,Some,Few,More than half,Half,All,None,Most,Less than half,0.406481614,-0.245370381,1,0,0,QQQ3,,,,,,,,english,2020-07-02_11h00.08.925,Experiment_English,3.2.4,Win32,60,,,1,0,340,112,1,339,ratio14_3_15_4.png,,,,,,,,,,,,
,,,,,,,,,,,,All,More than half,Less than half,Some,None,Most,Many,Half,Few,0.042592606,-0.250925937,1,0,0,QQQ6,,,,,,,,english,2020-07-02_11h00.08.925,Experiment_English,3.2.4,Win32,60,,,1,0,340,204,1,339,ratio31_6_8_1.png,,,,,,,,,,,,
,,,,,,,,,,,,Some,Few,Less than half,Most,All,None,Many,More than half,Half,0.070370385,0.232407403,1,0,0,QQQ4,,,,,,,,english,2020-07-02_11h00.08.925,Experiment_English,3.2.4,Win32,60,,,1,0,340,263,1,339,ratio41_4_5_5.png,,,,,,,,,,,,
,,,,,,,,,,,,Many,All,Half,Most,Some,None,More than half,Less than half,Few,0.104629644,-0.322222234,1,0,0,QQQ6,,,,,,,,english,2020-07-02_11h00.08.925,Experiment_English,3.2.4,Win32,60,,,1,0,340,61,1,339,ratio0Y_0_4_7.png,,,,,,,,,,,,
,,,,,,,,,,,,Some,Few,Half,Less than half,Many,More than half,All,Most,None,-0.002777708,0.217592588,1,0,0,QQQ4,,,,,,,,english,2020-07-02_11h00.08.925,Experiment_English,3.2.4,Win32,60,,,1,0,340,0,1,339,ratio12_1_3_3.png,,,,,,,,,,,,
,,,,,,,,,,,,More than half,Many,Less than half,None,Half,Few,All,Some,Most,0.510185206,0.323148146,1,0,0,QQQ1,,,,,,,,english,2020-07-02_11h00.08.925,Experiment_English,3.2.4,Win32,60,,,1,0,340,162,1,339,ratio21_2_3_9.png,,,,,,,,,,,,
,,,,,,,,,,,,All,Most,Few,Half,Some,More than half,None,Less than half,Many,-0.397222215,0.031481446,1,0,0,QQQ8,,,,,,,,english,2020-07-02_11h00.08.925,Experiment_English,3.2.4,Win32,60,,,1,0,340,1,1,339,ratio12_1_3_7.png,,,,,,,,,,,,
,,,,,,,,,,,,Most,Few,Less than half,All,More than half,Some,None,Many,Half,0.10555557,-0.302777846,1,0,0,QQQ6,,,,,,,,english,2020-07-02_11h00.08.925,Experiment_English,3.2.4,Win32,60,,,1,0,340,118,1,339,ratio14_4_20_8.png,,,,,,,,,,,,
,,,,,,,,,,,,All,Many,Half,Some,Most,More than half,None,Few,Less than half,0.507407428,-0.033333341,1,0,0,QQQ2,,,,,,,,english,2020-07-02_11h00.08.925,Experiment_English,3.2.4,Win32,60,,,1,0,340,198,1,339,ratio23_8_20_7.png,,,,,,,,,,,,
,,,,,,,,,,,,All,Few,None,Many,Most,More than half,Less than half,Some,Half,-0.445370364,0.237037033,1,0,0,QQQ7,,,,,,,,english,2020-07-02_11h00.08.925,Experiment_English,3.2.4,Win32,60,,,1,0,340,33,1,339,ratio11_7_14_8.png,0.308333351,-0.368518531,1,0,0,continue_button_pause,1,0,1,0,1,0
,,,,,,,,,,,,,,,,,,,,,,,,,,,,,,,,,,english,2020-07-02_11h00.08.925,Experiment_English,3.2.4,Win32,60,,,1,0,340,33,1,339,ratio11_7_14_8.png,,,,,,,,,,,,
,,,,,,,,,,,,Half,Most,None,Less than half,Some,All,Many,Few,More than half,-0.467592586,-0.311111123,1,0,0,QQQ9,,,,,,,,english,2020-07-02_11h00.08.925,Experiment_English,3.2.4,Win32,60,,,1,0,340,170,1,339,ratio21_6_9_8.png,,,,,,,,,,,,
,,,,,,,,,,,,All,None,Few,Many,More than half,Some,Half,Less than half,Most,-0.410185178,0.035185178,1,0,0,QQQ8,,,,,,,,english,2020-07-02_11h00.08.925,Experiment_English,3.2.4,Win32,60,,,1,0,340,182,1,339,ratio23_2_5_7.png,,,,,,,,,,,,
,,,,,,,,,,,,Few,More than half,Some,None,All,Less than half,Most,Many,Half,-0.410185178,0.035185178,1,0,0,QQQ8,,,,,,,,english,2020-07-02_11h00.08.925,Experiment_English,3.2.4,Win32,60,,,1,0,340,312,1,339,ratio51_10_12_16.png,,,,,,,,,,,,
,,,,,,,,,,,,All,None,Few,Some,Less than half,Many,Most,More than half,Half,0.499074208,-0.294444456,1,0,0,QQQ3,,,,,,,,english,2020-07-02_11h00.08.925,Experiment_English,3.2.4,Win32,60,,,1,0,340,91,1,339,ratio13_3_12_10.png,,,,,,,,,,,,
,,,,,,,,,,,,Half,More than half,Some,All,Most,Few,Less than half,Many,None,0.041666681,-0.360185198,1,0,0,QQQ6,,,,,,,,english,2020-07-02_11h00.08.925,Experiment_English,3.2.4,Win32,60,,,1,0,340,89,1,339,ratio13_3_12_6.png,,,,,,,,,,,,
,,,,,,,,,,,,Less than half,All,Half,Many,Few,None,Most,More than half,Some,-0.024999987,-0.307407476,1,0,0,QQQ6,,,,,,,,english,2020-07-02_11h00.08.925,Experiment_English,3.2.4,Win32,60,,,1,0,340,73,1,339,ratio0Y_0_14_7.png,,,,,,,,,,,,
,,,,,,,,,,,,Some,Half,Many,More than half,Most,Less than half,Few,All,None,-0.462037002,0.218518514,1,0,0,QQQ7,,,,,,,,english,2020-07-02_11h00.08.925,Experiment_English,3.2.4,Win32,60,,,1,0,340,248,1,339,ratio34_3_7_19.png,,,,,,,,,,,,
,,,,,,,,,,,,All,More than half,Some,Less than half,Few,Half,Many,Most,None,-0.485185151,-0.009259267,1,0,0,QQQ8,,,,,,,,english,2020-07-02_11h00.08.925,Experiment_English,3.2.4,Win32,60,,,1,0,340,325,1,339,ratio91_9_10_8.png,,,,,,,,,,,,
,,,,,,,,,,,,More than half,Few,Some,All,Most,Many,Half,None,Less than half,0.474074094,0.005555548,1,0,0,QQQ2,,,,,,,,english,2020-07-02_11h00.08.925,Experiment_English,3.2.4,Win32,60,,,1,0,340,85,1,339,ratio13_2_8_5.png,,,,,,,,,,,,
,,,,,,,,,,,,All,Some,Less than half,More than half,Half,Many,None,Most,Few,-0.075925914,-0.068518527,1,0,0,QQQ5,,,,,,,,english,2020-07-02_11h00.08.925,Experiment_English,3.2.4,Win32,60,,,1,0,340,32,1,339,ratio11_7_14_5.png,,,,,,,,,,,,
,,,,,,,,,,,,Less than half,More than half,Half,Few,Some,All,Most,Many,None,-0.386111104,0.282407404,1,0,0,QQQ7,,,,,,,,english,2020-07-02_11h00.08.925,Experiment_English,3.2.4,Win32,60,,,1,0,340,314,1,339,ratio51_15_18_4.png,,,,,,,,,,,,
,,,,,,,,,,,,Less than half,Many,Some,Few,Half,Most,None,More than half,All,0.404629649,0.323148146,1,0,0,QQQ1,,,,,,,,english,2020-07-02_11h00.08.925,Experiment_English,3.2.4,Win32,60,,,1,0,340,243,1,339,ratio34_3_7_8.png,,,,,,,,,,,,
,,,,,,,,,,,,Most,None,Many,Some,Less than half,Half,More than half,Few,All,0.442592612,0.337037035,1,0,0,QQQ1,,,,,,,,english,2020-07-02_11h00.08.925,Experiment_English,3.2.4,Win32,60,,,1,0,340,262,1,339,ratio41_4_5_4.png,,,,,,,,,,,,
,,,,,,,,,,,,Most,None,More than half,Many,All,Some,Half,Few,Less than half,0.442592612,0.337037035,1,0,0,QQQ1,,,,,,,,english,2020-07-02_11h00.08.925,Experiment_English,3.2.4,Win32,60,,,1,0,340,35,1,339,ratio11_8_16_10.png,,,,,,,,,,,,
,,,,,,,,,,,,Less than half,Many,Half,Most,Few,More than half,All,Some,None,0.116666682,-0.227777789,1,0,0,QQQ6,,,,,,,,english,2020-07-02_11h00.08.925,Experiment_English,3.2.4,Win32,60,,,1,0,340,167,1,339,ratio21_6_9_2.png,,,,,,,,,,,,
,,,,,,,,,,,,Some,Most,Half,More than half,Few,None,Many,All,Less than half,0.44537039,-0.227777789,1,0,0,QQQ3,,,,,,,,english,2020-07-02_11h00.08.925,Experiment_English,3.2.4,Win32,60,,,1,0,340,27,1,339,ratio11_5_10_7.png,,,,,,,,,,,,
,,,,,,,,,,,,Few,Less than half,Many,All,Some,More than half,None,Most,Half,0.411111244,0.252777774,1,0,0,QQQ1,,,,,,,,english,2020-07-02_11h00.08.925,Experiment_English,3.2.4,Win32,60,,,1,0,340,111,1,339,ratio14_3_15_3.png,,,,,,,,,,,,
,,,,,,,,,,,,Half,None,Some,All,Most,More than half,Less than half,Many,Few,-0.376851844,-0.307407476,1,0,0,QQQ9,,,,,,,,english,2020-07-02_11h00.08.925,Experiment_English,3.2.4,Win32,60,,,1,0,340,90,1,339,ratio13_3_12_7.png,,,,,,,,,,,,
,,,,,,,,,,,,Less than half,None,Some,More than half,Many,All,Half,Few,Most,0.402777797,0.230555552,1,0,0,QQQ1,,,,,,,,english,2020-07-02_11h00.08.925,Experiment_English,3.2.4,Win32,60,,,1,0,340,180,1,339,ratio23_2_5_4.png,,,,,,,,,,,,
,,,,,,,,,,,,All,Most,More than half,Many,Half,Some,Few,None,Less than half,-0.43703703,0.289814812,1,0,0,QQQ7,,,,,,,,english,2020-07-02_11h00.08.925,Experiment_English,3.2.4,Win32,60,,,1,0,340,84,1,339,ratio13_2_8_1.png,,,,,,,,,,,,
,,,,,,,,,,,,Half,Most,Some,None,Many,Few,More than half,All,Less than half,0.398148167,0.024074067,1,0,0,QQQ2,,,,,,,,english,2020-07-02_11h00.08.925,Experiment_English,3.2.4,Win32,60,,,1,0,340,277,1,339,ratio41_16_20_8.png,,,,,,,,,,,,
,,,,,,,,,,,,More than half,Few,Less than half,Half,Some,None,Most,All,Many,-0.590740736,0.335185169,1,0,0,QQQ7,,,,,,,,english,2020-07-02_11h00.08.925,Experiment_English,3.2.4,Win32,60,,,1,0,340,276,1,339,ratio41_16_20_4.png,,,,,,,,,,,,
,,,,,,,,,,,,Few,All,None,More than half,Half,Most,Some,Many,Less than half,-0.41666666,0.367592591,1,0,0,QQQ7,,,,,,,,english,2020-07-02_11h00.08.925,Experiment_English,3.2.4,Win32,60,,,1,0,340,249,1,339,ratio34_3_7_20.png,,,,,,,,,,,,
,,,,,,,,,,,,All,More than half,None,Less than half,Some,Many,Half,Few,Most,-0.455555549,0.272222219,1,0,0,QQQ7,,,,,,,,english,2020-07-02_11h00.08.925,Experiment_English,3.2.4,Win32,60,,,1,0,340,237,1,339,ratio32_12_20_5.png,,,,,,,,,,,,
,,,,,,,,,,,,Less than half,Few,Most,Half,All,Some,Many,None,More than half,-0.458333327,0.042592586,1,0,0,QQQ8,,,,,,,,english,2020-07-02_11h00.08.925,Experiment_English,3.2.4,Win32,60,,,1,0,340,64,1,339,ratio0Y_0_7_1.png,,,,,,,,,,,,
,,,,,,,,,,,,Half,Many,All,More than half,Some,Few,Less than half,None,Most,-0.087962951,-0.004629637,1,0,0,QQQ5,,,,,,,,english,2020-07-02_11h00.08.925,Experiment_English,3.2.4,Win32,60,,,1,0,340,190,1,339,ratio23_6_15_3.png,,,,,,,,,,,,
,,,,,,,,,,,,Some,Few,Many,Half,None,Less than half,More than half,Most,All,0.453703724,0.026851817,1,0,0,QQQ2,,,,,,,,english,2020-07-02_11h00.08.925,Experiment_English,3.2.4,Win32,60,,,1,0,340,151,1,339,ratio19_2_20_4.png,,,,,,,,,,,,
,,,,,,,,,,,,Some,More than half,Half,Less than half,All,None,Most,Many,Few,-0.493518513,0.042592586,1,0,0,QQQ8,,,,,,,,english,2020-07-02_11h00.08.925,Experiment_English,3.2.4,Win32,60,,,1,0,340,212,1,339,ratio31_12_16_1.png,,,,,,,,,,,,
,,,,,,,,,,,,Less than half,More than half,Some,Half,All,None,Most,Many,Few,-0.425925919,-0.254629641,1,0,0,QQQ9,,,,,,,,english,2020-07-02_11h00.08.925,Experiment_English,3.2.4,Win32,60,,,1,0,340,107,1,339,ratio14_2_10_5.png,,,,,,,,,,,,
,,,,,,,,,,,,All,Few,Less than half,Some,Many,More than half,None,Half,Most,0.564814836,0.28333333,1,0,0,QQQ1,,,,,,,,english,2020-07-02_11h00.08.925,Experiment_English,3.2.4,Win32,60,,,1,0,340,49,1,339,ratioX0_11_11_2.png,,,,,,,,,,,,
,,,,,,,,,,,,Less than half,Half,Most,Few,Many,All,More than half,Some,None,0.465740761,-0.283333345,1,0,0,QQQ3,,,,,,,,english,2020-07-02_11h00.08.925,Experiment_English,3.2.4,Win32,60,,,1,0,340,335,1,339,ratio91_18_20_11.png,,,,,,,,,,,,
,,,,,,,,,,,,None,Few,More than half,All,Less than half,Many,Most,Some,Half,0.060185199,0.276851849,1,0,0,QQQ4,,,,,,,,english,2020-07-02_11h00.08.925,Experiment_English,3.2.4,Win32,60,,,1,0,340,51,1,339,ratioX0_12_12_9.png,,,,,,,,,,,,
,,,,,,,,,,,,None,More than half,Many,Few,Half,Less than half,Most,Some,All,0.022222236,-0.018518526,1,0,0,QQQ5,,,,,,,,english,2020-07-02_11h00.08.925,Experiment_English,3.2.4,Win32,60,,,1,0,340,26,1,339,ratio11_5_10_4.png,,,,,,,,,,,,
,,,,,,,,,,,,All,More than half,Some,Less than half,Most,None,Half,Many,Few,-0.024999987,-0.276851863,1,0,0,QQQ6,,,,,,,,english,2020-07-02_11h00.08.925,Experiment_English,3.2.4,Win32,60,,,1,0,340,63,1,339,ratio0Y_0_6_8.png,0.329629648,-0.365740754,1,0,0,continue_button_pause,1,0,1,0,1,0
,,,,,,,,,,,,,,,,,,,,,,,,,,,,,,,,,,english,2020-07-02_11h00.08.925,Experiment_English,3.2.4,Win32,60,,,1,0,340,63,1,339,ratio0Y_0_6_8.png,,,,,,,,,,,,
,,,,,,,,,,,,Most,Less than half,More than half,None,All,Half,Few,Some,Many,-0.041666654,-0.32314816,1,0,0,QQQ6,,,,,,,,english,2020-07-02_11h00.08.925,Experiment_English,3.2.4,Win32,60,,,1,0,340,297,1,339,ratio43_8_14_13.png,,,,,,,,,,,,
,,,,,,,,,,,,Less than half,Half,Few,None,All,Many,Some,More than half,Most,0.373148167,-0.334259272,1,0,0,QQQ3,,,,,,,,english,2020-07-02_11h00.08.925,Experiment_English,3.2.4,Win32,60,,,1,0,340,147,1,339,ratio19_1_10_18.png,,,,,,,,,,,,
,,,,,,,,,,,,Half,Some,Most,Many,Less than half,Few,None,More than half,All,0.400925945,0.206481477,1,0,0,QQQ1,,,,,,,,english,2020-07-02_11h00.08.925,Experiment_English,3.2.4,Win32,60,,,1,0,340,290,1,339,ratio43_8_14_3.png,,,,,,,,,,,,
,,,,,,,,,,,,All,Half,Less than half,Most,Many,Some,Few,None,More than half,-0.595370366,0.31296296,1,0,0,QQQ7,,,,,,,,english,2020-07-02_11h00.08.925,Experiment_English,3.2.4,Win32,60,,,1,0,340,106,1,339,ratio14_2_10_2.png,,,,,,,,,,,,
,,,,,,,,,,,,Most,Many,Less than half,More than half,All,Some,None,Few,Half,0.384259278,0.038888882,1,0,0,QQQ2,,,,,,,,english,2020-07-02_11h00.08.925,Experiment_English,3.2.4,Win32,60,,,1,0,340,311,1,339,ratio51_10_12_14.png,,,,,,,,,,,,
,,,,,,,,,,,,Half,None,Many,More than half,Few,All,Less than half,Most,Some,0.470370391,0.012962956,1,0,0,QQQ2,,,,,,,,english,2020-07-02_11h00.08.925,Experiment_English,3.2.4,Win32,60,,,1,0,340,77,1,339,ratio0Y_0_18_3.png,,,,,,,,,,,,
,,,,,,,,,,,,Most,Many,Few,All,None,Less than half,Some,More than half,Half,0.492592613,-0.266666678,1,0,0,QQQ3,,,,,,,,english,2020-07-02_11h00.08.925,Experiment_English,3.2.4,Win32,60,,,1,0,340,116,1,339,ratio14_4_20_3.png,,,,,,,,,,,,
,,,,,,,,,,,,None,Few,Less than half,Most,Some,Many,Half,More than half,All,-0.512037031,0.008333326,1,0,0,QQQ8,,,,,,,,english,2020-07-02_11h00.08.925,Experiment_English,3.2.4,Win32,60,,,1,0,340,161,1,339,ratio21_2_3_8.png,,,,,,,,,,,,
,,,,,,,,,,,,Many,Half,All,Few,More than half,Less than half,Some,None,Most,0.017592606,0.268518515,1,0,0,QQQ4,,,,,,,,english,2020-07-02_11h00.08.925,Experiment_English,3.2.4,Win32,60,,,1,0,340,137,1,339,ratio15_3_18_16.png,,,,,,,,,,,,
,,,,,,,,,,,,Many,More than half,None,Some,Less than half,Most,Few,All,Half,0.024074088,-0.028703712,1,0,0,QQQ5,,,,,,,,english,2020-07-02_11h00.08.925,Experiment_English,3.2.4,Win32,60,,,1,0,340,5,1,339,ratio12_2_6_9.png,,,,,,,,,,,,
,,,,,,,,,,,,Few,Most,Less than half,None,More than half,All,Many,Half,Some,0.412962982,-0.330555624,1,0,0,QQQ3,,,,,,,,english,2020-07-02_11h00.08.925,Experiment_English,3.2.4,Win32,60,,,1,0,340,13,1,339,ratio12_5_15_3.png,,,,,,,,,,,,
,,,,,,,,,,,,Many,Half,Few,Most,None,All,More than half,Some,Less than half,0.53425928,-0.356481494,1,0,0,QQQ3,,,,,,,,english,2020-07-02_11h00.08.925,Experiment_English,3.2.4,Win32,60,,,1,0,340,120,1,339,ratio15_1_6_1.png,,,,,,,,,,,,
,,,,,,,,,,,,All,Many,Some,Most,None,Few,Half,Less than half,More than half,-0.463888883,-0.041666675,1,0,0,QQQ8,,,,,,,,english,2020-07-02_11h00.08.925,Experiment_English,3.2.4,Win32,60,,,1,0,340,25,1,339,ratio11_4_8_10.png,,,,,,,,,,,,
,,,,,,,,,,,,Most,More than half,Less than half,Some,None,Few,All,Many,Half,0.467592613,-0.063888897,1,0,0,QQQ2,,,,,,,,english,2020-07-02_11h00.08.925,Experiment_English,3.2.4,Win32,60,,,1,0,340,295,1,339,ratio43_8_14_11.png,,,,,,,,,,,,
,,,,,,,,,,,,Most,Many,Half,None,Less than half,More than half,Some,Few,All,-0.573148115,0.062962956,1,0,0,QQQ8,,,,,,,,english,2020-07-02_11h00.08.925,Experiment_English,3.2.4,Win32,60,,,1,0,340,140,1,339,ratio19_1_10_1.png,,,,,,,,,,,,
,,,,,,,,,,,,Few,Many,None,All,Some,Most,More than half,Less than half,Half,-0.575925921,-0.299074086,1,0,0,QQQ9,,,,,,,,english,2020-07-02_11h00.08.925,Experiment_English,3.2.4,Win32,60,,,1,0,340,192,1,339,ratio23_6_15_8.png,,,,,,,,,,,,
,,,,,,,,,,,,More than half,Most,Some,Many,Less than half,Half,All,None,Few,0.51388891,0.008333326,1,0,0,QQQ2,,,,,,,,english,2020-07-02_11h00.08.925,Experiment_English,3.2.4,Win32,60,,,1,0,340,301,1,339,ratio51_5_6_4.png,,,,,,,,,,,,
,,,,,,,,,,,,None,More than half,All,Many,Few,Most,Less than half,Half,Some,0.101851867,-0.269444456,1,0,0,QQQ6,,,,,,,,english,2020-07-02_11h00.08.925,Experiment_English,3.2.4,Win32,60,,,1,0,340,313,1,339,ratio51_15_18_2.png,,,,,,,,,,,,
,,,,,,,,,,,,Less than half,More than half,All,Few,Half,None,Many,Most,Some,-0.38703703,-0.059259268,1,0,0,QQQ8,,,,,,,,english,2020-07-02_11h00.08.925,Experiment_English,3.2.4,Win32,60,,,1,0,340,320,1,339,ratio91_9_10_1.png,,,,,,,,,,,,
,,,,,,,,,,,,Most,Many,Less than half,Half,None,Few,More than half,Some,All,-0.005555542,-0.062037045,1,0,0,QQQ5,,,,,,,,english,2020-07-02_11h00.08.925,Experiment_English,3.2.4,Win32,60,,,1,0,340,78,1,339,ratio0Y_0_19_1.png,,,,,,,,,,,,
,,,,,,,,,,,,Few,Most,More than half,Less than half,Some,None,Half,Many,All,0.401851984,-0.202777788,1,0,0,QQQ3,,,,,,,,english,2020-07-02_11h00.08.925,Experiment_English,3.2.4,Win32,60,,,1,0,340,225,1,339,ratio32_6_10_4.png,,,,,,,,,,,,
,,,,,,,,,,,,More than half,Some,Less than half,Few,Many,All,Most,Half,None,0.401851984,-0.202777788,1,0,0,QQQ3,,,,,,,,english,2020-07-02_11h00.08.925,Experiment_English,3.2.4,Win32,60,,,1,0,340,247,1,339,ratio34_3_7_12.png,,,,,,,,,,,,
,,,,,,,,,,,,None,Many,All,Most,More than half,Less than half,Half,Few,Some,-0.512962929,0.048148141,1,0,0,QQQ8,,,,,,,,english,2020-07-02_11h00.08.925,Experiment_English,3.2.4,Win32,60,,,1,0,340,131,1,339,ratio15_2_12_14.png,,,,,,,,,,,,
,,,,,,,,,,,,Few,Half,Some,None,Many,Most,More than half,All,Less than half,-0.062037025,-0.277777789,1,0,0,QQQ6,,,,,,,,english,2020-07-02_11h00.08.925,Experiment_English,3.2.4,Win32,60,,,1,0,340,300,1,339,ratio51_5_6_1.png,,,,,,,,,,,,
,,,,,,,,,,,,Some,More than half,Half,Many,Few,Less than half,Most,All,None,0.50462965,-0.008333341,1,0,0,QQQ2,,,,,,,,english,2020-07-02_11h00.08.925,Experiment_English,3.2.4,Win32,60,,,1,0,340,280,1,339,ratio43_4_7_2.png,,,,,,,,,,,,
,,,,,,,,,,,,Less than half,Some,Half,None,More than half,All,Most,Few,Many,0.417592612,-0.240740752,1,0,0,QQQ3,,,,,,,,english,2020-07-02_11h00.08.925,Experiment_English,3.2.4,Win32,60,,,1,0,340,246,1,339,ratio34_3_7_11.png,,,,,,,,,,,,
,,,,,,,,,,,,Few,More than half,All,Some,Many,Most,None,Less than half,Half,-0.61944444,0.04166666,1,0,0,QQQ8,,,,,,,,english,2020-07-02_11h00.08.925,Experiment_English,3.2.4,Win32,60,,,1,0,340,241,1,339,ratio34_3_7_5.png,,,,,,,,,,,,
,,,,,,,,,,,,Less than half,Some,None,More than half,All,Most,Half,Many,Few,-0.431481475,-0.294444456,1,0,0,QQQ9,,,,,,,,english,2020-07-02_11h00.08.925,Experiment_English,3.2.4,Win32,60,,,1,0,340,93,1,339,ratio13_4_16_7.png,,,,,,,,,,,,
,,,,,,,,,,,,Few,More than half,Half,Less than half,All,None,Some,Most,Many,-0.353703696,-0.058333342,1,0,0,QQQ8,,,,,,,,english,2020-07-02_11h00.08.925,Experiment_English,3.2.4,Win32,60,,,1,0,340,270,1,339,ratio41_12_15_3.png,,,,,,,,,,,,
,,,,,,,,,,,,More than half,None,Many,Less than half,Half,Few,Some,Most,All,0.042592606,-0.053703712,1,0,0,QQQ5,,,,,,,,english,2020-07-02_11h00.08.925,Experiment_English,3.2.4,Win32,60,,,1,0,340,18,1,339,ratio12_6_18_7.png,,,,,,,,,,,,
,,,,,,,,,,,,More than half,None,Less than half,All,Few,Half,Some,Many,Most,-0.646296293,-0.024074082,1,0,0,QQQ8,,,,,,,,english,2020-07-02_11h00.08.925,Experiment_English,3.2.4,Win32,60,,,1,0,340,319,1,339,ratio51_15_18_20.png,,,,,,,,,,,,
,,,,,,,,,,,,More than half,Less than half,Some,Most,Many,All,None,Half,Few,-0.531481448,0.034259252,1,0,0,QQQ8,,,,,,,,english,2020-07-02_11h00.08.925,Experiment_English,3.2.4,Win32,60,,,1,0,340,195,1,339,ratio23_8_20_1.png,,,,,,,,,,,,
,,,,,,,,,,,,Half,All,Few,Most,Some,More than half,Many,Less than half,None,0.396296315,-0.270370438,1,0,0,QQQ3,,,,,,,,english,2020-07-02_11h00.08.925,Experiment_English,3.2.4,Win32,60,,,1,0,340,159,1,339,ratio19_2_20_20.png,,,,,,,,,,,,
,,,,,,,,,,,,All,More than half,Less than half,Few,None,Some,Half,Most,Many,-0.021296227,-0.346296309,1,0,0,QQQ6,,,,,,,,english,2020-07-02_11h00.08.925,Experiment_English,3.2.4,Win32,60,,,1,0,340,188,1,339,ratio23_4_10_6.png,0.371296315,-0.412962977,1,0,0,continue_button_pause,1,0,1,0,1,0
,,,,,,,,,,,,,,,,,,,,,,,,,,,,,,,,,,english,2020-07-02_11h00.08.925,Experiment_English,3.2.4,Win32,60,,,1,0,340,188,1,339,ratio23_4_10_6.png,,,,,,,,,,,,
,,,,,,,,,,,,Some,More than half,Few,Many,All,None,Most,Less than half,Half,0.074074088,-0.33240742,1,0,0,QQQ6,,,,,,,,english,2020-07-02_11h00.08.925,Experiment_English,3.2.4,Win32,60,,,1,0,340,76,1,339,ratio0Y_0_17_10.png,,,,,,,,,,,,
,,,,,,,,,,,,Half,Most,Few,Many,All,More than half,Some,None,Less than half,0.063888903,-0.233333401,1,0,0,QQQ6,,,,,,,,english,2020-07-02_11h00.08.925,Experiment_English,3.2.4,Win32,60,,,1,0,340,289,1,339,ratio43_4_7_20.png,,,,,,,,,,,,
,,,,,,,,,,,,More than half,Many,All,Less than half,None,Some,Few,Most,Half,-0.418518512,0.231481477,1,0,0,QQQ7,,,,,,,,english,2020-07-02_11h00.08.925,Experiment_English,3.2.4,Win32,60,,,1,0,340,108,1,339,ratio14_2_10_6.png,,,,,,,,,,,,
,,,,,,,,,,,,More than half,Many,All,None,Half,Less than half,Some,Most,Few,-0.417592586,0.231481477,1,0,0,QQQ7,,,,,,,,english,2020-07-02_11h00.08.925,Experiment_English,3.2.4,Win32,60,,,1,0,340,97,1,339,ratio13_5_20_2.png,,,,,,,,,,,,
,,,,,,,,,,,,Most,Many,Few,All,Half,More than half,None,Some,Less than half,-0.457407373,-0.207407418,1,0,0,QQQ9,,,,,,,,english,2020-07-02_11h00.08.925,Experiment_English,3.2.4,Win32,60,,,1,0,340,239,1,339,ratio32_12_20_10.png,,,,,,,,,,,,
,,,,,,,,,,,,Less than half,Some,All,More than half,None,Many,Half,Few,Most,-0.411111104,0.274999983,1,0,0,QQQ7,,,,,,,,english,2020-07-02_11h00.08.925,Experiment_English,3.2.4,Win32,60,,,1,0,340,196,1,339,ratio23_8_20_5.png,,,,,,,,,,,,
,,,,,,,,,,,,Few,All,More than half,Half,Some,None,Most,Many,Less than half,0.435185205,0.295370367,1,0,0,QQQ1,,,,,,,,english,2020-07-02_11h00.08.925,Experiment_English,3.2.4,Win32,60,,,1,0,340,87,1,339,ratio13_2_8_8.png,,,,,,,,,,,,
,,,,,,,,,,,,Half,Few,Some,Many,Most,All,More than half,None,Less than half,0.456481502,0.077777743,1,0,0,QQQ2,,,,,,,,english,2020-07-02_11h00.08.925,Experiment_English,3.2.4,Win32,60,,,1,0,340,124,1,339,ratio15_1_6_16.png,,,,,,,,,,,,
,,,,,,,,,,,,All,Half,Some,Many,Few,More than half,Most,None,Less than half,-0.537962958,0.334259257,1,0,0,QQQ7,,,,,,,,english,2020-07-02_11h00.08.925,Experiment_English,3.2.4,Win32,60,,,1,0,340,318,1,339,ratio51_15_18_18.png,,,,,,,,,,,,
,,,,,,,,,,,,Some,Few,Half,All,Most,Many,None,Less than half,More than half,-0.526851818,-0.348148161,1,0,0,QQQ9,,,,,,,,english,2020-07-02_11h00.08.925,Experiment_English,3.2.4,Win32,60,,,1,0,340,220,1,339,ratio32_3_5_1.png,,,,,,,,,,,,
,,,,,,,,,,,,Less than half,Many,Few,More than half,Some,None,Most,Half,All,-0.436111104,0.259259256,1,0,0,QQQ7,,,,,,,,english,2020-07-02_11h00.08.925,Experiment_English,3.2.4,Win32,60,,,1,0,340,163,1,339,ratio21_4_6_1.png,,,,,,,,,,,,
,,,,,,,,,,,,All,Some,Many,Less than half,Few,Half,None,Most,More than half,-0.436111104,0.038888882,1,0,0,QQQ8,,,,,,,,english,2020-07-02_11h00.08.925,Experiment_English,3.2.4,Win32,60,,,1,0,340,337,1,339,ratio91_18_20_16.png,,,,,,,,,,,,
,,,,,,,,,,,,Many,Half,Few,Most,More than half,Less than half,Some,None,All,0.550000134,-0.274074086,1,0,0,QQQ3,,,,,,,,english,2020-07-02_11h00.08.925,Experiment_English,3.2.4,Win32,60,,,1,0,340,134,1,339,ratio15_3_18_5.png,,,,,,,,,,,,
,,,,,,,,,,,,Most,All,Few,Many,Some,None,Half,Less than half,More than half,0.437037057,0.304629627,1,0,0,QQQ1,,,,,,,,english,2020-07-02_11h00.08.925,Experiment_English,3.2.4,Win32,60,,,1,0,340,269,1,339,ratio41_8_10_6.png,,,,,,,,,,,,
,,,,,,,,,,,,Some,All,Many,Most,Few,Less than half,More than half,None,Half,0.056481496,-0.258333345,1,0,0,QQQ6,,,,,,,,english,2020-07-02_11h00.08.925,Experiment_English,3.2.4,Win32,60,,,1,0,340,36,1,339,ratio11_9_18_1.png,,,,,,,,,,,,
,,,,,,,,,,,,Some,Many,All,None,More than half,Few,Half,Less than half,Most,-0.472222216,-0.059259268,1,0,0,QQQ8,,,,,,,,english,2020-07-02_11h00.08.925,Experiment_English,3.2.4,Win32,60,,,1,0,340,30,1,339,ratio11_6_12_6.png,,,,,,,,,,,,
,,,,,,,,,,,,All,Less than half,None,Half,More than half,Most,Many,Few,Some,0.095370385,-0.012962971,1,0,0,QQQ5,,,,,,,,english,2020-07-02_11h00.08.925,Experiment_English,3.2.4,Win32,60,,,1,0,340,306,1,339,ratio51_5_6_18.png,,,,,,,,,,,,
,,,,,,,,,,,,Some,Half,Less than half,None,More than half,Few,All,Most,Many,-0.070370358,-0.33240742,1,0,0,QQQ6,,,,,,,,english,2020-07-02_11h00.08.925,Experiment_English,3.2.4,Win32,60,,,1,0,340,122,1,339,ratio15_1_6_7.png,,,,,,,,,,,,
,,,,,,,,,,,,Half,Many,Some,Few,Most,All,More than half,None,Less than half,0.366666685,-0.037962971,1,0,0,QQQ2,,,,,,,,english,2020-07-02_11h00.08.925,Experiment_English,3.2.4,Win32,60,,,1,0,340,209,1,339,ratio31_9_12_6.png,,,,,,,,,,,,
,,,,,,,,,,,,Few,Less than half,Many,Half,More than half,Some,All,Most,None,0.370370389,0.276851849,1,0,0,QQQ1,,,,,,,,english,2020-07-02_11h00.08.925,Experiment_English,3.2.4,Win32,60,,,1,0,340,154,1,339,ratio19_2_20_11.png,,,,,,,,,,,,
,,,,,,,,,,,,Less than half,Some,All,More than half,Many,Half,None,Most,Few,0.11481483,-0.035185193,1,0,0,QQQ5,,,,,,,,english,2020-07-02_11h00.08.925,Experiment_English,3.2.4,Win32,60,,,1,0,340,264,1,339,ratio41_4_5_6.png,,,,,,,,,,,,
,,,,,,,,,,,,More than half,None,Most,Many,Half,Some,Few,Less than half,All,-0.452777743,0.235185181,1,0,0,QQQ7,,,,,,,,english,2020-07-02_11h00.08.925,Experiment_English,3.2.4,Win32,60,,,1,0,340,113,1,339,ratio14_3_15_8.png,,,,,,,,,,,,
,,,,,,,,,,,,Most,Some,Few,None,Many,More than half,Less than half,All,Half,-0.038888876,-0.287037049,1,0,0,QQQ6,,,,,,,,english,2020-07-02_11h00.08.925,Experiment_English,3.2.4,Win32,60,,,1,0,340,202,1,339,ratio31_3_4_8.png,,,,,,,,,,,,
,,,,,,,,,,,,Some,Most,More than half,None,Less than half,Half,All,Few,Many,0.511111132,-0.276851863,1,0,0,QQQ3,,,,,,,,english,2020-07-02_11h00.08.925,Experiment_English,3.2.4,Win32,60,,,1,0,340,29,1,339,ratio11_6_12_1.png,,,,,,,,,,,,
,,,,,,,,,,,,Half,Many,All,Some,Few,Less than half,None,More than half,Most,0.065740755,-0.010185193,1,0,0,QQQ5,,,,,,,,english,2020-07-02_11h00.08.925,Experiment_English,3.2.4,Win32,60,,,1,0,340,133,1,339,ratio15_3_18_3.png,,,,,,,,,,,,
,,,,,,,,,,,,All,More than half,Half,Most,None,Less than half,Some,Few,Many,0.409259279,-0.343518531,1,0,0,QQQ3,,,,,,,,english,2020-07-02_11h00.08.925,Experiment_English,3.2.4,Win32,60,,,1,0,340,285,1,339,ratio43_4_7_14.png,,,,,,,,,,,,
,,,,,,,,,,,,Some,Many,Few,More than half,Half,Less than half,None,Most,All,0.406481614,-0.341666679,1,0,0,QQQ3,,,,,,,,english,2020-07-02_11h00.08.925,Experiment_English,3.2.4,Win32,60,,,1,0,340,129,1,339,ratio15_2_12_9.png,,,,,,,,,,,,
,,,,,,,,,,,,Less than half,All,None,Some,More than half,Most,Half,Few,Many,0.077777792,-0.350000013,1,0,0,QQQ6,,,,,,,,english,2020-07-02_11h00.08.925,Experiment_English,3.2.4,Win32,60,,,1,0,340,217,1,339,ratio31_15_20_5.png,,,,,,,,,,,,
,,,,,,,,,,,,Most,None,All,Less than half,Many,Few,More than half,Half,Some,-0.10648147,0.303703701,1,0,0,QQQ4,,,,,,,,english,2020-07-02_11h00.08.925,Experiment_English,3.2.4,Win32,60,,,1,0,340,186,1,339,ratio23_4_10_2.png,,,,,,,,,,,,
,,,,,,,,,,,,Less than half,Some,Many,Half,None,More than half,Most,All,Few,0.096296311,0.296296293,1,0,0,QQQ4,,,,,,,,english,2020-07-02_11h00.08.925,Experiment_English,3.2.4,Win32,60,,,1,0,340,191,1,339,ratio23_6_15_7.png,,,,,,,,,,,,
,,,,,,,,,,,,Few,Less than half,All,Some,Many,None,Most,Half,More than half,0.499074208,-0.266666678,1,0,0,QQQ3,,,,,,,,english,2020-07-02_11h00.08.925,Experiment_English,3.2.4,Win32,60,,,1,0,340,43,1,339,ratioX0_6_6_9.png,,,,,,,,,,,,
,,,,,,,,,,,,None,All,Most,More than half,Some,Many,Half,Less than half,Few,0.529629651,-0.296296308,1,0,0,QQQ3,,,,,,,,english,2020-07-02_11h00.08.925,Experiment_English,3.2.4,Win32,60,,,1,0,340,327,1,339,ratio91_9_10_11.png,,,,,,,,,,,,
,,,,,,,,,,,,Few,Some,Many,All,More than half,Less than half,None,Half,Most,0.035185199,-0.041666675,1,0,0,QQQ5,,,,,,,,english,2020-07-02_11h00.08.925,Experiment_English,3.2.4,Win32,60,,,1,0,340,171,1,339,ratio21_8_12_4.png,,,,,,,,,,,,
,,,,,,,,,,,,None,Many,Half,All,More than half,Some,Few,Most,Less than half,0.035185199,-0.041666675,1,0,0,QQQ5,,,,,,,,english,2020-07-02_11h00.08.925,Experiment_English,3.2.4,Win32,60,,,1,0,340,279,1,339,ratio41_16_20_10.png,0.459259279,-0.39537044,1,0,0,continue_button_pause,1,0,1,0,1,0
,,,,,,,,,,,,,,,,,,,,,,,,,,,,,,,,,,english,2020-07-02_11h00.08.925,Experiment_English,3.2.4,Win32,60,,,1,0,340,279,1,339,ratio41_16_20_10.png,,,,,,,,,,,,
,,,,,,,,,,,,Half,More than half,Many,Few,Some,Less than half,None,Most,All,0.072222237,0.305555553,1,0,0,QQQ4,,,,,,,,english,2020-07-02_11h00.08.925,Experiment_English,3.2.4,Win32,60,,,1,0,340,121,1,339,ratio15_1_6_4.png,,,,,,,,,,,,
,,,,,,,,,,,,None,Half,Few,Most,More than half,Some,Many,Less than half,All,-0.462037002,0.031481446,1,0,0,QQQ8,,,,,,,,english,2020-07-02_11h00.08.925,Experiment_English,3.2.4,Win32,60,,,1,0,340,19,1,339,ratio12_6_18_9.png,,,,,,,,,,,,
,,,,,,,,,,,,Half,Most,Few,Some,Many,Less than half,None,All,More than half,0.531481616,-0.05648149,1,0,0,QQQ2,,,,,,,,english,2020-07-02_11h00.08.925,Experiment_English,3.2.4,Win32,60,,,1,0,340,284,1,339,ratio43_4_7_11.png,,,,,,,,,,,,
,,,,,,,,,,,,Less than half,All,Some,None,Few,Most,More than half,Many,Half,-0.482407401,-0.304629642,1,0,0,QQQ9,,,,,,,,english,2020-07-02_11h00.08.925,Experiment_English,3.2.4,Win32,60,,,1,0,340,291,1,339,ratio43_8_14_5.png,,,,,,,,,,,,
,,,,,,,,,,,,None,More than half,Some,Half,Many,Few,Less than half,Most,All,0.465740761,0.0324074,1,0,0,QQQ2,,,,,,,,english,2020-07-02_11h00.08.925,Experiment_English,3.2.4,Win32,60,,,1,0,340,223,1,339,ratio32_3_5_5.png,,,,,,,,,,,,
,,,,,,,,,,,,Most,Less than half,All,Some,None,Half,More than half,Many,Few,0.444444464,0.32222222,1,0,0,QQQ1,,,,,,,,english,2020-07-02_11h00.08.925,Experiment_English,3.2.4,Win32,60,,,1,0,340,328,1,339,ratio91_9_10_15.png,,,,,,,,,,,,
,,,,,,,,,,,,All,Many,None,Few,Some,Most,More than half,Less than half,Half,-0.01759258,0.364814813,1,0,0,QQQ4,,,,,,,,english,2020-07-02_11h00.08.925,Experiment_English,3.2.4,Win32,60,,,1,0,340,136,1,339,ratio15_3_18_8.png,,,,,,,,,,,,
,,,,,,,,,,,,Half,All,Few,None,More than half,Less than half,Most,Some,Many,0.53425928,-0.330555624,1,0,0,QQQ3,,,,,,,,english,2020-07-02_11h00.08.925,Experiment_English,3.2.4,Win32,60,,,1,0,340,135,1,339,ratio15_3_18_7.png,,,,,,,,,,,,
,,,,,,,,,,,,Most,Half,Less than half,More than half,Few,Some,All,Many,None,-0.392592585,-0.302777846,1,0,0,QQQ9,,,,,,,,english,2020-07-02_11h00.08.925,Experiment_English,3.2.4,Win32,60,,,1,0,340,66,1,339,ratio0Y_0_9_8.png,,,,,,,,,,,,
,,,,,,,,,,,,Half,More than half,All,Many,Less than half,Few,None,Some,Most,0.083333348,0.026851817,1,0,0,QQQ5,,,,,,,,english,2020-07-02_11h00.08.925,Experiment_English,3.2.4,Win32,60,,,1,0,340,181,1,339,ratio23_2_5_6.png,,,,,,,,,,,,
,,,,,,,,,,,,Some,All,Few,Many,Less than half,Half,None,More than half,Most,-0.489814781,0.049074067,1,0,0,QQQ8,,,,,,,,english,2020-07-02_11h00.08.925,Experiment_English,3.2.4,Win32,60,,,1,0,340,308,1,339,ratio51_10_12_9.png,,,,,,,,,,,,
,,,,,,,,,,,,Less than half,Most,Some,All,None,More than half,Many,Half,Few,-0.489814781,0.049074067,1,0,0,QQQ8,,,,,,,,english,2020-07-02_11h00.08.925,Experiment_English,3.2.4,Win32,60,,,1,0,340,39,1,339,ratio11_10_20_6.png,,,,,,,,,,,,
,,,,,,,,,,,,Some,Few,None,More than half,Most,Half,Many,All,Less than half,-0.009259246,0.030555549,1,0,0,QQQ5,,,,,,,,english,2020-07-02_11h00.08.925,Experiment_English,3.2.4,Win32,60,,,1,0,340,214,1,339,ratio31_12_16_5.png,,,,,,,,,,,,
,,,,,,,,,,,,Few,All,Most,None,Half,More than half,Many,Less than half,Some,0.364814947,-0.205555623,1,0,0,QQQ3,,,,,,,,english,2020-07-02_11h00.08.925,Experiment_English,3.2.4,Win32,60,,,1,0,340,271,1,339,ratio41_12_15_6.png,,,,,,,,,,,,
,,,,,,,,,,,,Few,Less than half,Some,All,Many,None,Most,More than half,Half,0.47129643,-0.269444456,1,0,0,QQQ3,,,,,,,,english,2020-07-02_11h00.08.925,Experiment_English,3.2.4,Win32,60,,,1,0,340,115,1,339,ratio14_4_20_1.png,,,,,,,,,,,,
,,,,,,,,,,,,Most,Many,Half,More than half,All,None,Some,Few,Less than half,0.47129643,-0.269444456,1,0,0,QQQ3,,,,,,,,english,2020-07-02_11h00.08.925,Experiment_English,3.2.4,Win32,60,,,1,0,340,253,1,339,ratio34_6_14_5.png,,,,,,,,,,,,
,,,,,,,,,,,,Half,Many,More than half,All,Some,Most,Less than half,Few,None,-0.438888854,0.060185179,1,0,0,QQQ8,,,,,,,,english,2020-07-02_11h00.08.925,Experiment_English,3.2.4,Win32,60,,,1,0,340,102,1,339,ratio14_1_5_8.png,,,,,,,,,,,,
,,,,,,,,,,,,More than half,Some,Less than half,All,Most,None,Few,Half,Many,-0.431481475,0.216666662,1,0,0,QQQ7,,,,,,,,english,2020-07-02_11h00.08.925,Experiment_English,3.2.4,Win32,60,,,1,0,340,110,1,339,ratio14_3_15_2.png,,,,,,,,,,,,
,,,,,,,,,,,,All,None,Some,Most,Less than half,More than half,Half,Few,Many,-0.451851845,-0.227777789,1,0,0,QQQ9,,,,,,,,english,2020-07-02_11h00.08.925,Experiment_English,3.2.4,Win32,60,,,1,0,340,236,1,339,ratio32_12_20_2.png,,,,,,,,,,,,
,,,,,,,,,,,,More than half,None,All,Some,Half,Most,Few,Many,Less than half,-0.540740707,0.29259259,1,0,0,QQQ7,,,,,,,,english,2020-07-02_11h00.08.925,Experiment_English,3.2.4,Win32,60,,,1,0,340,117,1,339,ratio14_4_20_6.png,,,,,,,,,,,,
,,,,,,,,,,,,Most,More than half,Few,Half,Many,Less than half,None,Some,All,-0.458333327,0.235185181,1,0,0,QQQ7,,,,,,,,english,2020-07-02_11h00.08.925,Experiment_English,3.2.4,Win32,60,,,1,0,340,79,1,339,ratio0Y_0_20_4.png,,,,,,,,,,,,
,,,,,,,,,,,,All,None,Most,Few,More than half,Some,Half,Many,Less than half,-0.109259191,0.302777761,1,0,0,QQQ4,,,,,,,,english,2020-07-02_11h00.08.925,Experiment_English,3.2.4,Win32,60,,,1,0,340,130,1,339,ratio15_2_12_12.png,,,,,,,,,,,,
,,,,,,,,,,,,None,More than half,Many,All,Most,Less than half,Few,Half,Some,0.424074094,0.243518515,1,0,0,QQQ1,,,,,,,,english,2020-07-02_11h00.08.925,Experiment_English,3.2.4,Win32,60,,,1,0,340,72,1,339,ratio0Y_0_13_4.png,,,,,,,,,,,,
,,,,,,,,,,,,Few,Half,Less than half,More than half,Some,Many,All,None,Most,0.065740755,-0.240740752,1,0,0,QQQ6,,,,,,,,english,2020-07-02_11h00.08.925,Experiment_English,3.2.4,Win32,60,,,1,0,340,37,1,339,ratio11_9_18_8.png,,,,,,,,,,,,
,,,,,,,,,,,,All,None,Some,Many,Few,More than half,Less than half,Half,Most,0.115740756,-0.35277779,1,0,0,QQQ6,,,,,,,,english,2020-07-02_11h00.08.925,Experiment_English,3.2.4,Win32,60,,,1,0,340,281,1,339,ratio43_4_7_4.png,,,,,,,,,,,,
,,,,,,,,,,,,Many,Some,Half,All,Few,Most,More than half,None,Less than half,-0.419444437,0.255555552,1,0,0,QQQ7,,,,,,,,english,2020-07-02_11h00.08.925,Experiment_English,3.2.4,Win32,60,,,1,0,340,233,1,339,ratio32_9_15_9.png,,,,,,,,,,,,
,,,,,,,,,,,,Most,Some,Half,Few,More than half,All,Many,Less than half,None,0.437037057,-0.278703715,1,0,0,QQQ3,,,,,,,,english,2020-07-02_11h00.08.925,Experiment_English,3.2.4,Win32,60,,,1,0,340,245,1,339,ratio34_3_7_10.png,,,,,,,,,,,,
,,,,,,,,,,,,Most,None,Few,Half,Less than half,Some,All,Many,More than half,-0.472222216,0.352777776,1,0,0,QQQ7,,,,,,,,english,2020-07-02_11h00.08.925,Experiment_English,3.2.4,Win32,60,,,1,0,340,47,1,339,ratioX0_9_9_4.png,,,,,,,,,,,,
,,,,,,,,,,,,More than half,Few,Most,Many,Half,Less than half,All,Some,None,-0.53518518,0.073148114,1,0,0,QQQ8,,,,,,,,english,2020-07-02_11h00.08.925,Experiment_English,3.2.4,Win32,60,,,1,0,340,119,1,339,ratio14_4_20_10.png,,,,,,,,,,,,
,,,,,,,,,,,,None,Some,Most,Less than half,Many,Few,Half,All,More than half,0.448148281,-0.044444453,1,0,0,QQQ2,,,,,,,,english,2020-07-02_11h00.08.925,Experiment_English,3.2.4,Win32,60,,,1,0,340,10,1,339,ratio12_4_12_4.png,,,,,,,,,,,,
,,,,,,,,,,,,Less than half,Many,All,Some,More than half,Most,Half,None,Few,0.426851871,0.28333333,1,0,0,QQQ1,,,,,,,,english,2020-07-02_11h00.08.925,Experiment_English,3.2.4,Win32,60,,,1,0,340,183,1,339,ratio23_2_5_9.png,,,,,,,,,,,,
,,,,,,,,,,,,None,Half,Most,Less than half,Some,More than half,Many,Few,All,0.498148169,-0.245370381,1,0,0,QQQ3,,,,,,,,english,2020-07-02_11h00.08.925,Experiment_English,3.2.4,Win32,60,,,1,0,340,302,1,339,ratio51_5_6_5.png,,,,,,,,,,,,
,,,,,,,,,,,,More than half,Many,Half,None,All,Few,Less than half,Most,Some,0.133333349,-0.258333345,1,0,0,QQQ6,,,,,,,,english,2020-07-02_11h00.08.925,Experiment_English,3.2.4,Win32,60,,,1,0,340,123,1,339,ratio15_1_6_12.png,,,,,,,,,,,,
,,,,,,,,,,,,Few,Less than half,More than half,Half,All,Most,Some,None,Many,-0.470370364,-0.285185197,1,0,0,QQQ9,,,,,,,,english,2020-07-02_11h00.08.925,Experiment_English,3.2.4,Win32,60,,,1,0,340,274,1,339,ratio41_12_15_9.png,0.355555687,-0.386111181,1,0,0,continue_button_pause,1,0,1,0,1,0
,,,,,,,,,,,,,,,,,,,,,,,,,,,,,,,,,,english,2020-07-02_11h00.08.925,Experiment_English,3.2.4,Win32,60,,,1,0,340,274,1,339,ratio41_12_15_9.png,,,,,,,,,,,,
,,,,,,,,,,,,Many,Less than half,All,Few,None,Some,More than half,Half,Most,-0.036111098,-0.014814822,1,0,0,QQQ5,,,,,,,,english,2020-07-02_11h00.08.925,Experiment_English,3.2.4,Win32,60,,,1,0,340,68,1,339,ratio0Y_0_11_3.png,,,,,,,,,,,,
,,,,,,,,,,,,Few,More than half,All,Half,Most,Many,Less than half,None,Some,0.493518539,-0.02222223,1,0,0,QQQ2,,,,,,,,english,2020-07-02_11h00.08.925,Experiment_English,3.2.4,Win32,60,,,1,0,340,226,1,339,ratio32_6_10_5.png,,,,,,,,,,,,
,,,,,,,,,,,,None,Few,Many,Half,Some,All,More than half,Most,Less than half,-0.557407402,0.037962956,1,0,0,QQQ8,,,,,,,,english,2020-07-02_11h00.08.925,Experiment_English,3.2.4,Win32,60,,,1,0,340,208,1,339,ratio31_9_12_3.png,,,,,,,,,,,,
,,,,,,,,,,,,Less than half,Half,Most,Few,More than half,Many,All,Some,None,0.010185199,0.323148146,1,0,0,QQQ4,,,,,,,,english,2020-07-02_11h00.08.925,Experiment_English,3.2.4,Win32,60,,,1,0,340,146,1,339,ratio19_1_10_17.png,,,,,,,,,,,,
,,,,,,,,,,,,Half,Many,All,Few,Some,Less than half,Most,More than half,None,-0.444444438,0.274999983,1,0,0,QQQ7,,,,,,,,english,2020-07-02_11h00.08.925,Experiment_English,3.2.4,Win32,60,,,1,0,340,336,1,339,ratio91_18_20_12.png,,,,,,,,,,,,
,,,,,,,,,,,,More than half,None,Half,Few,All,Less than half,Some,Many,Most,-0.444444438,0.274999983,1,0,0,QQQ7,,,,,,,,english,2020-07-02_11h00.08.925,Experiment_English,3.2.4,Win32,60,,,1,0,340,11,1,339,ratio12_4_12_7.png,,,,,,,,,,,,
,,,,,,,,,,,,Less than half,More than half,Most,All,None,Half,Some,Few,Many,0.618518541,0.299074071,1,0,0,QQQ1,,,,,,,,english,2020-07-02_11h00.08.925,Experiment_English,3.2.4,Win32,60,,,1,0,340,250,1,339,ratio34_6_14_1.png,,,,,,,,,,,,
,,,,,,,,,,,,Some,Many,All,More than half,None,Most,Few,Less than half,Half,-0.511111105,-0.279629698,1,0,0,QQQ9,,,,,,,,english,2020-07-02_11h00.08.925,Experiment_English,3.2.4,Win32,60,,,1,0,340,24,1,339,ratio11_4_8_3.png,,,,,,,,,,,,
,,,,,,,,,,,,Few,All,Half,None,Most,Less than half,More than half,Many,Some,-0.066666654,0.220370366,1,0,0,QQQ4,,,,,,,,english,2020-07-02_11h00.08.925,Experiment_English,3.2.4,Win32,60,,,1,0,340,71,1,339,ratio0Y_0_12_10.png,,,,,,,,,,,,
,,,,,,,,,,,,More than half,Most,Many,Half,Less than half,Few,Some,None,All,-0.068518506,-0.207407418,1,0,0,QQQ6,,,,,,,,english,2020-07-02_11h00.08.925,Experiment_English,3.2.4,Win32,60,,,1,0,340,148,1,339,ratio19_1_10_19.png,,,,,,,,,,,,
,,,,,,,,,,,,Half,Some,Most,Few,None,Many,Less than half,More than half,All,-0.390740733,-0.308333345,1,0,0,QQQ9,,,,,,,,english,2020-07-02_11h00.08.925,Experiment_English,3.2.4,Win32,60,,,1,0,340,44,1,339,ratioX0_7_7_5.png,,,,,,,,,,,,
,,,,,,,,,,,,More than half,Many,Less than half,Few,Half,Some,All,None,Most,-0.390740733,-0.308333345,1,0,0,QQQ9,,,,,,,,english,2020-07-02_11h00.08.925,Experiment_English,3.2.4,Win32,60,,,1,0,340,179,1,339,ratio21_12_18_8.png,,,,,,,,,,,,
,,,,,,,,,,,,Less than half,All,More than half,Some,Most,Few,Many,Half,None,-0.447222216,-0.031481489,1,0,0,QQQ8,,,,,,,,english,2020-07-02_11h00.08.925,Experiment_English,3.2.4,Win32,60,,,1,0,340,23,1,339,ratio11_3_6_9.png,,,,,,,,,,,,
,,,,,,,,,,,,All,More than half,Half,Most,None,Some,Many,Less than half,Few,-0.081481413,0.28333333,1,0,0,QQQ4,,,,,,,,english,2020-07-02_11h00.08.925,Experiment_English,3.2.4,Win32,60,,,1,0,340,169,1,339,ratio21_6_9_7.png,,,,,,,,,,,,
,,,,,,,,,,,,Most,More than half,Many,None,Few,Half,Some,All,Less than half,-0.019444431,0.056481475,1,0,0,QQQ5,,,,,,,,english,2020-07-02_11h00.08.925,Experiment_English,3.2.4,Win32,60,,,1,0,340,125,1,339,ratio15_1_6_19.png,,,,,,,,,,,,
,,,,,,,,,,,,Half,None,Most,More than half,All,Few,Many,Less than half,Some,-0.006481468,-0.248148159,1,0,0,QQQ6,,,,,,,,english,2020-07-02_11h00.08.925,Experiment_English,3.2.4,Win32,60,,,1,0,340,155,1,339,ratio19_2_20_13.png,,,,,,,,,,,,
,,,,,,,,,,,,None,Half,All,More than half,Many,Most,Some,Less than half,Few,-0.006481468,-0.248148159,1,0,0,QQQ6,,,,,,,,english,2020-07-02_11h00.08.925,Experiment_English,3.2.4,Win32,60,,,1,0,340,321,1,339,ratio91_9_10_2.png,,,,,,,,,,,,
,,,,,,,,,,,,All,Less than half,More than half,Many,Few,Half,Some,None,Most,0.035185199,0.282407404,1,0,0,QQQ4,,,,,,,,english,2020-07-02_11h00.08.925,Experiment_English,3.2.4,Win32,60,,,1,0,340,166,1,339,ratio21_6_9_1.png,,,,,,,,,,,,
,,,,,,,,,,,,Less than half,Some,More than half,Many,Half,Most,All,Few,None,0.035185199,0.282407404,1,0,0,QQQ4,,,,,,,,english,2020-07-02_11h00.08.925,Experiment_English,3.2.4,Win32,60,,,1,0,340,317,1,339,ratio51_15_18_13.png,,,,,,,,,,,,
,,,,,,,,,,,,More than half,Less than half,All,Some,None,Few,Most,Many,Half,-0.376851844,-0.024074082,1,0,0,QQQ8,,,,,,,,english,2020-07-02_11h00.08.925,Experiment_English,3.2.4,Win32,60,,,1,0,340,229,1,339,ratio32_6_10_9.png,,,,,,,,,,,,
,,,,,,,,,,,,More than half,Less than half,Many,Most,Some,Half,All,None,Few,0.077777792,0.274074071,1,0,0,QQQ4,,,,,,,,english,2020-07-02_11h00.08.925,Experiment_English,3.2.4,Win32,60,,,1,0,340,211,1,339,ratio31_9_12_10.png,,,,,,,,,,,,
,,,,,,,,,,,,Few,None,More than half,Half,Some,Many,Less than half,Most,All,0.51388891,0.277777774,1,0,0,QQQ1,,,,,,,,english,2020-07-02_11h00.08.925,Experiment_English,3.2.4,Win32,60,,,1,0,340,100,1,339,ratio14_1_5_3.png,,,,,,,,,,,,
,,,,,,,,,,,,Few,Half,Some,More than half,Many,Most,None,Less than half,All,0.51388891,0.277777774,1,0,0,QQQ1,,,,,,,,english,2020-07-02_11h00.08.925,Experiment_English,3.2.4,Win32,60,,,1,0,340,144,1,339,ratio19_1_10_11.png,,,,,,,,,,,,
,,,,,,,,,,,,All,Less than half,Some,Many,More than half,None,Half,Most,Few,-0.438888854,-0.035185193,1,0,0,QQQ8,,,,,,,,english,2020-07-02_11h00.08.925,Experiment_English,3.2.4,Win32,60,,,1,0,340,261,1,339,ratio41_4_5_3.png,,,,,,,,,,,,
,,,,,,,,,,,,All,Few,Half,More than half,Some,Many,None,Less than half,Most,0.562037059,0.0074074,1,0,0,QQQ2,,,,,,,,english,2020-07-02_11h00.08.925,Experiment_English,3.2.4,Win32,60,,,1,0,340,141,1,339,ratio19_1_10_2.png,,,,,,,,,,,,
,,,,,,,,,,,,None,Most,More than half,All,Some,Half,Less than half,Many,Few,-0.562037032,-0.39166668,1,0,0,QQQ9,,,,,,,,english,2020-07-02_11h00.08.925,Experiment_English,3.2.4,Win32,60,,,1,0,340,143,1,339,ratio19_1_10_9.png,,,,,,,,,,,,
,,,,,,,,,,,,Most,None,Less than half,All,More than half,Many,Some,Half,Few,-0.562037032,-0.39166668,1,0,0,QQQ9,,,,,,,,english,2020-07-02_11h00.08.925,Experiment_English,3.2.4,Win32,60,,,1,0,340,132,1,339,ratio15_2_12_16.png,,,,,,,,,,,,
,,,,,,,,,,,,None,Half,Less than half,All,Most,More than half,Some,Many,Few,0.404629649,-0.310185197,1,0,0,QQQ3,,,,,,,,english,2020-07-02_11h00.08.925,Experiment_English,3.2.4,Win32,60,,,1,0,340,185,1,339,ratio23_4_10_1.png,,,,,,,,,,,,
,,,,,,,,,,,,Less than half,More than half,Most,Half,Many,Few,None,Some,All,0.461111131,-0.046296304,1,0,0,QQQ2,,,,,,,,english,2020-07-02_11h00.08.925,Experiment_English,3.2.4,Win32,60,,,1,0,340,278,1,339,ratio41_16_20_9.png,,,,,,,,,,,,
,,,,,,,,,,,,Half,Few,More than half,None,All,Less than half,Most,Some,Many,0.447222242,0.229629626,1,0,0,QQQ1,,,,,,,,english,2020-07-02_11h00.08.925,Experiment_English,3.2.4,Win32,60,,,1,0,340,257,1,339,ratio34_6_14_12.png,,,,,,,,,,,,
,,,,,,,,,,,,Few,More than half,Half,All,Some,Most,None,Less than half,Many,-0.425925919,-0.050925934,1,0,0,QQQ8,,,,,,,,english,2020-07-02_11h00.08.925,Experiment_English,3.2.4,Win32,60,,,1,0,340,187,1,339,ratio23_4_10_5.png,,,,,,,,,,,,
,,,,,,,,,,,,Few,Half,Most,None,More than half,Many,All,Some,Less than half,-0.437962956,-0.274074086,1,0,0,QQQ9,,,,,,,,english,2020-07-02_11h00.08.925,Experiment_English,3.2.4,Win32,60,,,1,0,340,6,1,339,ratio12_3_9_1.png,,,,,,,,,,,,
,,,,,,,,,,,,None,Half,Many,All,Less than half,Some,Most,Few,More than half,-0.470370364,-0.012962971,1,0,0,QQQ8,,,,,,,,english,2020-07-02_11h00.08.925,Experiment_English,3.2.4,Win32,60,,,1,0,340,128,1,339,ratio15_2_12_8.png,,,,,,,,,,,,
,,,,,,,,,,,,None,Some,Few,Most,Half,Less than half,Many,More than half,All,-0.108333322,0.276851849,1,0,0,QQQ4,,,,,,,,english,2020-07-02_11h00.08.925,Experiment_English,3.2.4,Win32,60,,,1,0,340,339,1,339,ratio91_18_20_19.png,0.281481499,-0.413888959,1,0,0,continue_button_pause,1,0,1,0,1,0
,,,,,,,,,,,,,,,,,,,,,,,,,,,,,,,,,,english,2020-07-02_11h00.08.925,Experiment_English,3.2.4,Win32,60,,,1,0,340,339,1,339,ratio91_18_20_19.png,,,,,,,,,,,,
,,,,,,,,,,,,Less than half,Half,All,Few,None,Most,Some,Many,More than half,-0.540740707,-0.32314816,1,0,0,QQQ9,,,,,,,,english,2020-07-02_11h00.08.925,Experiment_English,3.2.4,Win32,60,,,1,0,340,288,1,339,ratio43_4_7_18.png,,,,,,,,,,,,
,,,,,,,,,,,,Most,Many,Some,Half,All,Less than half,None,Few,More than half,0.494444578,0.34722222,1,0,0,QQQ1,,,,,,,,english,2020-07-02_11h00.08.925,Experiment_English,3.2.4,Win32,60,,,1,0,340,265,1,339,ratio41_8_10_1.png,,,,,,,,,,,,
,,,,,,,,,,,,Few,More than half,All,Most,None,Half,Less than half,Many,Some,-0.440740734,0.060185179,1,0,0,QQQ8,,,,,,,,english,2020-07-02_11h00.08.925,Experiment_English,3.2.4,Win32,60,,,1,0,340,275,1,339,ratio41_16_20_2.png,,,,,,,,,,,,
,,,,,,,,,,,,Many,Half,All,More than half,Less than half,Most,Few,Some,None,-0.069444432,0.31759259,1,0,0,QQQ4,,,,,,,,english,2020-07-02_11h00.08.925,Experiment_English,3.2.4,Win32,60,,,1,0,340,282,1,339,ratio43_4_7_7.png,,,,,,,,,,,,
,,,,,,,,,,,,Half,Some,More than half,Many,All,Most,Few,None,Less than half,-0.399999993,0.281481478,1,0,0,QQQ7,,,,,,,,english,2020-07-02_11h00.08.925,Experiment_English,3.2.4,Win32,60,,,1,0,340,82,1,339,ratio13_1_4_7.png,,,,,,,,,,,,
,,,,,,,,,,,,Many,Less than half,Some,Few,Half,More than half,None,Most,All,-0.445370364,0.027777771,1,0,0,QQQ8,,,,,,,,english,2020-07-02_11h00.08.925,Experiment_English,3.2.4,Win32,60,,,1,0,340,307,1,339,ratio51_10_12_1.png,,,,,,,,,,,,
,,,,,,,,,,,,All,More than half,Less than half,Few,None,Some,Many,Most,Half,-0.478703698,-0.267592604,1,0,0,QQQ9,,,,,,,,english,2020-07-02_11h00.08.925,Experiment_English,3.2.4,Win32,60,,,1,0,340,252,1,339,ratio34_6_14_3.png,,,,,,,,,,,,
,,,,,,,,,,,,All,Half,Many,Most,More than half,None,Few,Less than half,Some,-0.389814807,-0.018518526,1,0,0,QQQ8,,,,,,,,english,2020-07-02_11h00.08.925,Experiment_English,3.2.4,Win32,60,,,1,0,340,193,1,339,ratio23_6_15_9.png,,,,,,,,,,,,
,,,,,,,,,,,,More than half,Many,Less than half,Some,Most,Half,All,Few,None,0.441666686,-0.20925927,1,0,0,QQQ3,,,,,,,,english,2020-07-02_11h00.08.925,Experiment_English,3.2.4,Win32,60,,,1,0,340,3,1,339,ratio12_2_6_3.png,,,,,,,,,,,,
,,,,,,,,,,,,Less than half,Most,Few,Some,All,More than half,Half,None,Many,0.123148163,-0.062962971,1,0,0,QQQ5,,,,,,,,english,2020-07-02_11h00.08.925,Experiment_English,3.2.4,Win32,60,,,1,0,340,54,1,339,ratioX0_15_15_5.png,,,,,,,,,,,,
,,,,,,,,,,,,All,Many,More than half,Less than half,Some,None,Few,Half,Most,0.066666681,-0.281481493,1,0,0,QQQ6,,,,,,,,english,2020-07-02_11h00.08.925,Experiment_English,3.2.4,Win32,60,,,1,0,340,67,1,339,ratio0Y_0_10_10.png,,,,,,,,,,,,
,,,,,,,,,,,,None,Some,Many,More than half,Half,All,Most,Few,Less than half,-0.43703703,-0.037037045,1,0,0,QQQ8,,,,,,,,english,2020-07-02_11h00.08.925,Experiment_English,3.2.4,Win32,60,,,1,0,340,138,1,339,ratio15_3_18_17.png,,,,,,,,,,,,
,,,,,,,,,,,,All,Some,Few,Half,Most,More than half,Many,Less than half,None,0.606481504,0.022222215,1,0,0,QQQ2,,,,,,,,english,2020-07-02_11h00.08.925,Experiment_English,3.2.4,Win32,60,,,1,0,340,94,1,339,ratio13_4_16_8.png,,,,,,,,,,,,
,,,,,,,,,,,,More than half,Some,Most,None,Few,Many,Half,All,Less than half,-0.043518506,-0.007407415,1,0,0,QQQ5,,,,,,,,english,2020-07-02_11h00.08.925,Experiment_English,3.2.4,Win32,60,,,1,0,340,145,1,339,ratio19_1_10_15.png,,,,,,,,,,,,
,,,,,,,,,,,,Most,All,None,Some,More than half,Many,Few,Half,Less than half,-0.077777766,0.330555539,1,0,0,QQQ4,,,,,,,,english,2020-07-02_11h00.08.925,Experiment_English,3.2.4,Win32,60,,,1,0,340,114,1,339,ratio14_3_15_10.png,,,,,,,,,,,,
,,,,,,,,,,,,Less than half,Some,All,More than half,Many,Few,None,Half,Most,0.54351854,-0.067592601,1,0,0,QQQ2,,,,,,,,english,2020-07-02_11h00.08.925,Experiment_English,3.2.4,Win32,60,,,1,0,340,12,1,339,ratio12_4_12_10.png,,,,,,,,,,,,
,,,,,,,,,,,,Half,Some,All,More than half,None,Many,Less than half,Most,Few,0.54351854,-0.067592601,1,0,0,QQQ2,,,,,,,,english,2020-07-02_11h00.08.925,Experiment_English,3.2.4,Win32,60,,,1,0,340,96,1,339,ratio13_5_20_1.png,,,,,,,,,,,,
,,,,,,,,,,,,Half,Most,All,None,Many,Few,Some,Less than half,More than half,0.501851873,-0.024074082,1,0,0,QQQ2,,,,,,,,english,2020-07-02_11h00.08.925,Experiment_English,3.2.4,Win32,60,,,1,0,340,322,1,339,ratio91_9_10_3.png,,,,,,,,,,,,
,,,,,,,,,,,,Most,Some,Many,Less than half,Half,More than half,Few,All,None,0.501851873,-0.214814882,1,0,0,QQQ3,,,,,,,,english,2020-07-02_11h00.08.925,Experiment_English,3.2.4,Win32,60,,,1,0,340,292,1,339,ratio43_8_14_6.png,,,,,,,,,,,,
,,,,,,,,,,,,Few,None,More than half,Less than half,All,Many,Some,Half,Most,-0.374999992,-0.284259327,1,0,0,QQQ9,,,,,,,,english,2020-07-02_11h00.08.925,Experiment_English,3.2.4,Win32,60,,,1,0,340,201,1,339,ratio31_3_4_7.png,,,,,,,,,,,,
,,,,,,,,,,,,All,Most,None,Few,Less than half,Half,Some,Many,More than half,0.620370393,-0.300925938,1,0,0,QQQ3,,,,,,,,english,2020-07-02_11h00.08.925,Experiment_English,3.2.4,Win32,60,,,1,0,340,62,1,339,ratio0Y_0_5_4.png,,,,,,,,,,,,
,,,,,,,,,,,,All,Half,Less than half,Some,More than half,Many,Few,None,Most,0.522222356,-0.05648149,1,0,0,QQQ2,,,,,,,,english,2020-07-02_11h00.08.925,Experiment_English,3.2.4,Win32,60,,,1,0,340,20,1,339,ratio11_2_4_3.png,,,,,,,,,,,,
,,,,,,,,,,,,More than half,Less than half,Many,Half,Some,Most,All,Few,None,0.522222356,-0.05648149,1,0,0,QQQ2,,,,,,,,english,2020-07-02_11h00.08.925,Experiment_English,3.2.4,Win32,60,,,1,0,340,189,1,339,ratio23_4_10_8.png,,,,,,,,,,,,
,,,,,,,,,,,,Many,Less than half,All,Most,Half,None,Few,Some,More than half,0.541666688,-0.317592605,1,0,0,QQQ3,,,,,,,,english,2020-07-02_11h00.08.925,Experiment_English,3.2.4,Win32,60,,,1,0,340,56,1,339,ratioX0_17_17_10.png,,,,,,,,,,,,
,,,,,,,,,,,,None,All,Half,Most,Many,Some,More than half,Less than half,Few,-0.422222215,0.266666663,1,0,0,QQQ7,,,,,,,,english,2020-07-02_11h00.08.925,Experiment_English,3.2.4,Win32,60,,,1,0,340,178,1,339,ratio21_12_18_2.png,,,,,,,,,,,,
,,,,,,,,,,,,Some,Few,More than half,Half,Less than half,All,Most,Many,None,-0.094444433,0.005555548,1,0,0,QQQ5,,,,,,,,english,2020-07-02_11h00.08.925,Experiment_English,3.2.4,Win32,60,,,1,0,340,8,1,339,ratio12_3_9_4.png,,,,,,,,,,,,
,,,,,,,,,,,,None,More than half,Few,Many,Half,Some,All,Most,Less than half,-0.094444433,0.005555548,1,0,0,QQQ5,,,,,,,,english,2020-07-02_11h00.08.925,Experiment_English,3.2.4,Win32,60,,,1,0,340,251,1,339,ratio34_6_14_2.png,,,,,,,,,,,,
,,,,,,,,,,,,Less than half,Many,Some,More than half,Half,Few,All,None,Most,0.460185205,-0.019444452,1,0,0,QQQ2,,,,,,,,english,2020-07-02_11h00.08.925,Experiment_English,3.2.4,Win32,60,,,1,0,340,213,1,339,ratio31_12_16_2.png,,,,,,,,,,,,
,,,,,,,,,,,,More than half,Few,Half,None,All,Less than half,Some,Most,Many,-0.465740734,-0.316666735,1,0,0,QQQ9,,,,,,,,english,2020-07-02_11h00.08.925,Experiment_English,3.2.4,Win32,60,,,1,0,340,228,1,339,ratio32_6_10_7.png,,,,,,,,,,,,
,,,,,,,,,,,,Less than half,All,Few,Some,Many,None,Most,Half,More than half,-0.012036967,0.031481446,1,0,0,QQQ5,,,,,,,,english,2020-07-02_11h00.08.925,Experiment_English,3.2.4,Win32,60,,,1,0,340,34,1,339,ratio11_8_16_8.png,,,,,,,,,,,,
,,,,,,,,,,,,More than half,Most,Some,All,Less than half,Many,Half,Few,None,0.422222242,0.016666659,1,0,0,QQQ2,,,,,,,,english,2020-07-02_11h00.08.925,Experiment_English,3.2.4,Win32,60,,,1,0,340,219,1,339,ratio31_15_20_10.png,,,,,,,,,,,,
,,,,,,,,,,,,More than half,Half,Less than half,All,Many,Few,Some,None,Most,-0.018518506,-0.044444453,1,0,0,QQQ5,,,,,,,,english,2020-07-02_11h00.08.925,Experiment_English,3.2.4,Win32,60,,,1,0,340,234,1,339,ratio32_9_15_10.png,,,,,,,,,,,,
,,,,,,,,,,,,Few,Half,Some,None,Less than half,More than half,Most,All,Many,0.458333353,-0.342592605,1,0,0,QQQ3,,,,,,,,english,2020-07-02_11h00.08.925,Experiment_English,3.2.4,Win32,60,,,1,0,340,139,1,339,ratio15_3_18_20.png,,,,,,,,,,,,
,,,,,,,,,,,,Most,Some,More than half,Half,None,Many,All,Less than half,Few,0.444444464,0.270370353,1,0,0,QQQ1,,,,,,,,english,2020-07-02_11h00.08.925,Experiment_English,3.2.4,Win32,60,,,1,0,340,272,1,339,ratio41_12_15_7.png,0.312037055,-0.399074087,1,0,0,continue_button_pause,1,0,1,0,1,0
,,,,,,,,,,,,,,,,,,,,,,,,,,,,,,,,,,english,2020-07-02_11h00.08.925,Experiment_English,3.2.4,Win32,60,,,1,0,340,272,1,339,ratio41_12_15_7.png,,,,,,,,,,,,
,,,,,,,,,,,,Less than half,All,Most,Some,None,Few,More than half,Half,Many,0.019444458,-0.316666735,1,0,0,QQQ6,,,,,,,,english,2020-07-02_11h00.08.925,Experiment_English,3.2.4,Win32,60,,,1,0,340,103,1,339,ratio14_1_5_9.png,,,,,,,,,,,,
,,,,,,,,,,,,Many,More than half,Few,None,All,Some,Less than half,Half,Most,0.463888909,-0.060185194,1,0,0,QQQ2,,,,,,,,english,2020-07-02_11h00.08.925,Experiment_English,3.2.4,Win32,60,,,1,0,340,222,1,339,ratio32_3_5_4.png,,,,,,,,,,,,
,,,,,,,,,,,,Some,Half,Many,More than half,None,Few,Less than half,All,Most,-0.487962957,-0.001851859,1,0,0,QQQ8,,,,,,,,english,2020-07-02_11h00.08.925,Experiment_English,3.2.4,Win32,60,,,1,0,340,42,1,339,ratioX0_5_5_5.png,,,,,,,,,,,,
,,,,,,,,,,,,Many,Less than half,Few,More than half,Most,Half,None,Some,All,-0.559259226,-0.282407419,1,0,0,QQQ9,,,,,,,,english,2020-07-02_11h00.08.925,Experiment_English,3.2.4,Win32,60,,,1,0,340,52,1,339,ratioX0_13_13_10.png,,,,,,,,,,,,
,,,,,,,,,,,,Many,Some,Less than half,Most,Few,None,Half,All,More than half,-0.041666654,0.279629612,1,0,0,QQQ4,,,,,,,,english,2020-07-02_11h00.08.925,Experiment_English,3.2.4,Win32,60,,,1,0,340,232,1,339,ratio32_9_15_8.png,,,,,,,,,,,,
,,,,,,,,,,,,None,Many,Some,Less than half,Few,Most,Half,More than half,All,0.087962978,0.288888872,1,0,0,QQQ4,,,,,,,,english,2020-07-02_11h00.08.925,Experiment_English,3.2.4,Win32,60,,,1,0,340,31,1,339,ratio11_6_12_9.png,,,,,,,,,,,,
,,,,,,,,,,,,Few,Most,All,Half,None,More than half,Some,Many,Less than half,-0.467592586,0.28796296,1,0,0,QQQ7,,,,,,,,english,2020-07-02_11h00.08.925,Experiment_English,3.2.4,Win32,60,,,1,0,340,164,1,339,ratio21_4_6_6.png,,,,,,,,,,,,
,,,,,,,,,,,,None,Many,Most,All,Few,Less than half,Half,More than half,Some,-0.099999932,0.020370363,1,0,0,QQQ5,,,,,,,,english,2020-07-02_11h00.08.925,Experiment_English,3.2.4,Win32,60,,,1,0,340,156,1,339,ratio19_2_20_14.png,,,,,,,,,,,,
,,,,,,,,,,,,Most,Less than half,Some,Half,Many,Few,All,None,More than half,-0.439814808,-0.262962974,1,0,0,QQQ9,,,,,,,,english,2020-07-02_11h00.08.925,Experiment_English,3.2.4,Win32,60,,,1,0,340,296,1,339,ratio43_8_14_12.png,,,,,,,,,,,,
,,,,,,,,,,,,Many,Few,None,All,Most,More than half,Some,Half,Less than half,-0.121296285,-0.27314816,1,0,0,QQQ6,,,,,,,,english,2020-07-02_11h00.08.925,Experiment_English,3.2.4,Win32,60,,,1,0,340,210,1,339,ratio31_9_12_9.png,,,,,,,,,,,,
,,,,,,,,,,,,Half,Few,None,Less than half,All,More than half,Most,Many,Some,0.557407429,-0.013888897,1,0,0,QQQ2,,,,,,,,english,2020-07-02_11h00.08.925,Experiment_English,3.2.4,Win32,60,,,1,0,340,153,1,339,ratio19_2_20_8.png,,,,,,,,,,,,
,,,,,,,,,,,,Less than half,Some,Half,Few,More than half,All,Most,None,Many,0.512037058,-0.004629637,1,0,0,QQQ2,,,,,,,,english,2020-07-02_11h00.08.925,Experiment_English,3.2.4,Win32,60,,,1,0,340,299,1,339,ratio43_8_14_17.png,,,,,,,,,,,,
,,,,,,,,,,,,None,Half,Some,Many,Most,Less than half,More than half,All,Few,-0.006481468,0.01203703,1,0,0,QQQ5,,,,,,,,english,2020-07-02_11h00.08.925,Experiment_English,3.2.4,Win32,60,,,1,0,340,305,1,339,ratio51_5_6_14.png,,,,,,,,,,,,
,,,,,,,,,,,,Less than half,Few,Many,Some,Most,More than half,None,Half,All,0.434259392,-0.019444452,1,0,0,QQQ2,,,,,,,,english,2020-07-02_11h00.08.925,Experiment_English,3.2.4,Win32,60,,,1,0,340,142,1,339,ratio19_1_10_6.png,,,,,,,,,,,,
,,,,,,,,,,,,Less than half,All,Half,Many,Few,None,Some,More than half,Most,0.106481496,-0.265740809,1,0,0,QQQ6,,,,,,,,english,2020-07-02_11h00.08.925,Experiment_English,3.2.4,Win32,60,,,1,0,340,70,1,339,ratio0Y_0_12_5.png,,,,,,,,,,,,
,,,,,,,,,,,,Few,Many,Less than half,Half,Some,More than half,None,Most,All,0.131481497,-0.071296305,1,0,0,QQQ5,,,,,,,,english,2020-07-02_11h00.08.925,Experiment_English,3.2.4,Win32,60,,,1,0,340,194,1,339,ratio23_6_15_10.png,,,,,,,,,,,,
,,,,,,,,,,,,Few,Half,More than half,Many,None,Some,Most,Less than half,All,0.528703725,0.319444442,1,0,0,QQQ1,,,,,,,,english,2020-07-02_11h00.08.925,Experiment_English,3.2.4,Win32,60,,,1,0,340,105,1,339,ratio14_2_10_1.png,,,,,,,,,,,,
,,,,,,,,,,,,Some,Many,More than half,Less than half,None,Half,All,Few,Most,0.491666687,0.249999996,1,0,0,QQQ1,,,,,,,,english,2020-07-02_11h00.08.925,Experiment_English,3.2.4,Win32,60,,,1,0,340,260,1,339,ratio41_4_5_2.png,,,,,,,,,,,,
,,,,,,,,,,,,Less than half,Most,None,All,More than half,Some,Few,Half,Many,0.461111131,0.005555548,1,0,0,QQQ2,,,,,,,,english,2020-07-02_11h00.08.925,Experiment_English,3.2.4,Win32,60,,,1,0,340,304,1,339,ratio51_5_6_13.png,,,,,,,,,,,,
,,,,,,,,,,,,Few,Half,Some,More than half,Many,All,None,Most,Less than half,-0.019444431,0.057407401,1,0,0,QQQ5,,,,,,,,english,2020-07-02_11h00.08.925,Experiment_English,3.2.4,Win32,60,,,1,0,340,235,1,339,ratio32_12_20_1.png,,,,,,,,,,,,
,,,,,,,,,,,,Most,Less than half,More than half,Many,Some,All,Few,Half,None,0.093518533,0.31759259,1,0,0,QQQ4,,,,,,,,english,2020-07-02_11h00.08.925,Experiment_English,3.2.4,Win32,60,,,1,0,340,316,1,339,ratio51_15_18_11.png,,,,,,,,,,,,
,,,,,,,,,,,,All,More than half,Many,Half,None,Most,Few,Less than half,Some,-0.464814808,0.379629628,1,0,0,QQQ7,,,,,,,,english,2020-07-02_11h00.08.925,Experiment_English,3.2.4,Win32,60,,,1,0,340,80,1,339,ratio13_1_4_3.png,,,,,,,,,,,,
,,,,,,,,,,,,Some,Many,More than half,Few,Most,All,Less than half,Half,None,-0.040740728,-0.329629642,1,0,0,QQQ6,,,,,,,,english,2020-07-02_11h00.08.925,Experiment_English,3.2.4,Win32,60,,,1,0,340,46,1,339,ratioX0_9_9_3.png,,,,,,,,,,,,
,,,,,,,,,,,,Most,Less than half,None,Few,All,Many,Some,More than half,Half,0.518518539,0.255555552,1,0,0,QQQ1,,,,,,,,english,2020-07-02_11h00.08.925,Experiment_English,3.2.4,Win32,60,,,1,0,340,303,1,339,ratio51_5_6_6.png,,,,,,,,,,,,
,,,,,,,,,,,,Few,Most,None,Less than half,More than half,Some,Half,All,Many,-0.474074068,-0.2638889,1,0,0,QQQ9,,,,,,,,english,2020-07-02_11h00.08.925,Experiment_English,3.2.4,Win32,60,,,1,0,340,174,1,339,ratio21_10_15_1.png,,,,,,,,,,,,
,,,,,,,,,,,,Few,All,More than half,Less than half,Some,Half,Many,None,Most,-0.474074068,-0.2638889,1,0,0,QQQ9,,,,,,,,english,2020-07-02_11h00.08.925,Experiment_English,3.2.4,Win32,60,,,1,0,340,160,1,339,ratio21_2_3_2.png,,,,,,,,,,,,
,,,,,,,,,,,,Some,Less than half,None,All,Half,Most,Many,More than half,Few,-0.448148113,-0.275000068,1,0,0,QQQ9,,,,,,,,english,2020-07-02_11h00.08.925,Experiment_English,3.2.4,Win32,60,,,1,0,340,149,1,339,ratio19_1_10_20.png,,,,,,,,,,,,
,,,,,,,,,,,,Most,Many,More than half,None,Some,Half,All,Less than half,Few,-0.021296227,-0.024074082,1,0,0,QQQ5,,,,,,,,english,2020-07-02_11h00.08.925,Experiment_English,3.2.4,Win32,60,,,1,0,340,298,1,339,ratio43_8_14_14.png,,,,,,,,,,,,
,,,,,,,,,,,,More than half,Few,None,Less than half,Half,Most,Some,All,Many,-0.367592585,-0.288888957,1,0,0,QQQ9,,,,,,,,english,2020-07-02_11h00.08.925,Experiment_English,3.2.4,Win32,60,,,1,0,340,329,1,339,ratio91_9_10_20.png,,,,,,,,,,,,
,,,,,,,,,,,,Half,Some,Few,None,Many,All,Less than half,Most,More than half,0.05092594,-0.252777789,1,0,0,QQQ6,,,,,,,,english,2020-07-02_11h00.08.925,Experiment_English,3.2.4,Win32,60,,,1,0,340,48,1,339,ratioX0_10_10_1.png,,,,,,,,,,,,
,,,,,,,,,,,,Many,All,More than half,Some,Most,Few,Less than half,Half,None,0.045370384,-0.036111119,1,0,0,QQQ5,,,,,,,,english,2020-07-02_11h00.08.925,Experiment_English,3.2.4,Win32,60,,,1,0,340,293,1,339,ratio43_8_14_7.png,,,,,,,,,,,,
,,,,,,,,,,,,Half,All,None,Many,More than half,Most,Some,Less than half,Few,-0.442592586,-0.240740752,1,0,0,QQQ9,,,,,,,,english,2020-07-02_11h00.08.925,Experiment_English,3.2.4,Win32,60,,,1,0,340,157,1,339,ratio19_2_20_16.png,,,,,,,,,,,,
,,,,,,,,,,,,Most,Few,All,Many,Some,Less than half,None,More than half,Half,0.493518539,-0.030555563,1,0,0,QQQ2,,,,,,,,english,2020-07-02_11h00.08.925,Experiment_English,3.2.4,Win32,60,,,1,0,340,104,1,339,ratio14_1_5_10.png,,,,,,,,,,,,
,,,,,,,,,,,,None,More than half,Less than half,Some,Most,All,Many,Few,Half,-0.405555548,-0.014814822,1,0,0,QQQ8,,,,,,,,english,2020-07-02_11h00.08.925,Experiment_English,3.2.4,Win32,60,,,1,0,340,86,1,339,ratio13_2_8_6.png,,,,,,,,,,,,
