continue_mouse.x,continue_mouse.y,continue_mouse.leftButton,continue_mouse.midButton,continue_mouse.rightButton,continue_mouse.clicked_name,continue_mouse_2.x,continue_mouse_2.y,continue_mouse_2.leftButton,continue_mouse_2.midButton,continue_mouse_2.rightButton,continue_mouse_2.clicked_name,Q1,Q2,Q3,Q4,Q5,Q6,Q7,Q8,Q9,select_answer.x,select_answer.y,select_answer.leftButton,select_answer.midButton,select_answer.rightButton,select_answer.clicked_name,trial.thisRepN,trial.thisTrialN,trial.thisN,trial.thisIndex,trial.ran,trial.order,trials,Native tongue*,date,expName,psychopyVersion,OS,frameRate,key_resp.keys,key_resp.rt,Actual_Experiment.thisRepN,Actual_Experiment.thisTrialN,Actual_Experiment.thisN,Actual_Experiment.thisIndex,Actual_Experiment.ran,Actual_Experiment.order,Pic,mouse_pause.x,mouse_pause.y,mouse_pause.leftButton,mouse_pause.midButton,mouse_pause.rightButton,mouse_pause.clicked_name,pause.thisRepN,pause.thisTrialN,pause.thisN,pause.thisIndex,pause.ran,pause.order
0.309472656,-0.41934082,1,0,0,continue_button,0.361201172,-0.436567383,1,0,0,continue_button_2,Less than half,Many,Some,All,Few,More than half,Most,None,Half,-0.024570313,-0.269873047,1,0,0,QQQ6,1,0,16,8,1,15,ratio21_12_18_3.png,English,2020-07-02_03h15.45.769,Experiment_English,3.2.4,MacIntel,60,,,,,,,,,,,,,,,,,,,,,
,,,,,,,,,,,,Some,More than half,Less than half,Half,All,None,Few,Many,Most,-0.00953125,0.27449707,1,0,0,QQQ4,1,0,16,14,1,15,ratio11_5_10_6.png,English,2020-07-02_03h15.45.769,Experiment_English,3.2.4,MacIntel,60,,,,,,,,,,,,,,,,,,,,,
,,,,,,,,,,,,Some,Half,Most,Few,None,Many,All,Less than half,More than half,-0.00953125,0.27449707,1,0,0,QQQ4,1,0,16,2,1,15,ratio43_8_14_19.png,English,2020-07-02_03h15.45.769,Experiment_English,3.2.4,MacIntel,60,,,,,,,,,,,,,,,,,,,,,
,,,,,,,,,,,,Some,Half,Most,Less than half,Many,More than half,None,All,Few,0.369780273,0.263637695,1,0,0,QQQ1,1,0,16,5,1,15,ratio32_6_10_2.png,English,2020-07-02_03h15.45.769,Experiment_English,3.2.4,MacIntel,60,,,,,,,,,,,,,,,,,,,,,
,,,,,,,,,,,,Few,All,Many,Some,More than half,Less than half,None,Half,Most,-0.440512695,-0.022084961,1,0,0,QQQ8,1,0,16,4,1,15,ratio34_3_7_3.png,English,2020-07-02_03h15.45.769,Experiment_English,3.2.4,MacIntel,60,,,,,,,,,,,,,,,,,,,,,
,,,,,,,,,,,,Some,Half,Few,All,None,Many,Less than half,Most,More than half,-0.427695312,0.346474609,1,0,0,QQQ7,,,,,,,,English,2020-07-02_03h15.45.769,Experiment_English,3.2.4,MacIntel,60,b,36.73599982,1,0,340,131,1,339,ratio15_2_12_14.png,,,,,,,,,,,,
,,,,,,,,,,,,All,Most,More than half,Few,None,Less than half,Half,Some,Many,-0.439550781,-0.023520508,1,0,0,QQQ8,,,,,,,,English,2020-07-02_03h15.45.769,Experiment_English,3.2.4,MacIntel,60,,,1,0,340,158,1,339,ratio19_2_20_17.png,,,,,,,,,,,,
,,,,,,,,,,,,Some,Many,All,None,Few,More than half,Most,Less than half,Half,0.033735352,0.024296875,1,0,0,QQQ5,,,,,,,,English,2020-07-02_03h15.45.769,Experiment_English,3.2.4,MacIntel,60,,,1,0,340,187,1,339,ratio23_4_10_5.png,,,,,,,,,,,,
,,,,,,,,,,,,Less than half,Some,All,More than half,Half,None,Most,Few,Many,0.008549805,0.328916016,1,0,0,QQQ4,,,,,,,,English,2020-07-02_03h15.45.769,Experiment_English,3.2.4,MacIntel,60,,,1,0,340,212,1,339,ratio31_12_16_1.png,,,,,,,,,,,,
,,,,,,,,,,,,Some,All,Few,None,Less than half,Half,More than half,Most,Many,0.567158203,0.282016602,1,0,0,QQQ1,,,,,,,,English,2020-07-02_03h15.45.769,Experiment_English,3.2.4,MacIntel,60,,,1,0,340,150,1,339,ratio19_2_20_1.png,,,,,,,,,,,,
,,,,,,,,,,,,Half,Some,Few,None,More than half,All,Less than half,Most,Many,-0.39234375,0.028964844,1,0,0,QQQ8,,,,,,,,English,2020-07-02_03h15.45.769,Experiment_English,3.2.4,MacIntel,60,,,1,0,340,176,1,339,ratio21_10_15_3.png,,,,,,,,,,,,
,,,,,,,,,,,,Many,More than half,Less than half,Few,Half,All,None,Some,Most,-0.014125977,0.332978516,1,0,0,QQQ4,,,,,,,,English,2020-07-02_03h15.45.769,Experiment_English,3.2.4,MacIntel,60,,,1,0,340,194,1,339,ratio23_6_15_10.png,,,,,,,,,,,,
,,,,,,,,,,,,Half,None,Most,More than half,Less than half,Some,All,Few,Many,-0.016074219,0.312836914,1,0,0,QQQ4,,,,,,,,English,2020-07-02_03h15.45.769,Experiment_English,3.2.4,MacIntel,60,,,1,0,340,169,1,339,ratio21_6_9_7.png,,,,,,,,,,,,
,,,,,,,,,,,,Less than half,More than half,Most,None,Half,Many,Some,Few,All,0.076630859,-0.283325195,1,0,0,QQQ6,,,,,,,,English,2020-07-02_03h15.45.769,Experiment_English,3.2.4,MacIntel,60,,,1,0,340,178,1,339,ratio21_12_18_2.png,,,,,,,,,,,,
,,,,,,,,,,,,Some,Many,None,All,Half,Most,Few,Less than half,More than half,0.076630859,-0.283325195,1,0,0,QQQ6,,,,,,,,English,2020-07-02_03h15.45.769,Experiment_English,3.2.4,MacIntel,60,,,1,0,340,234,1,339,ratio32_9_15_10.png,,,,,,,,,,,,
,,,,,,,,,,,,Many,Most,Few,Less than half,Some,Half,All,More than half,None,-0.399790039,0.012226562,1,0,0,QQQ8,,,,,,,,English,2020-07-02_03h15.45.769,Experiment_English,3.2.4,MacIntel,60,,,1,0,340,19,1,339,ratio12_6_18_9.png,,,,,,,,,,,,
,,,,,,,,,,,,Many,Some,More than half,All,Most,Half,Less than half,Few,None,0.55456543,0.00315918,1,0,0,QQQ2,,,,,,,,English,2020-07-02_03h15.45.769,Experiment_English,3.2.4,MacIntel,60,,,1,0,340,193,1,339,ratio23_6_15_9.png,,,,,,,,,,,,
,,,,,,,,,,,,Some,Few,None,More than half,Less than half,All,Many,Half,Most,-0.031650391,0.273911133,1,0,0,QQQ4,,,,,,,,English,2020-07-02_03h15.45.769,Experiment_English,3.2.4,MacIntel,60,,,1,0,340,258,1,339,ratio34_6_14_14.png,,,,,,,,,,,,
,,,,,,,,,,,,Few,Most,Many,More than half,Less than half,Half,Some,None,All,0.417988281,-0.038144531,1,0,0,QQQ2,,,,,,,,English,2020-07-02_03h15.45.769,Experiment_English,3.2.4,MacIntel,60,,,1,0,340,308,1,339,ratio51_10_12_9.png,,,,,,,,,,,,
,,,,,,,,,,,,Most,None,Some,Many,Few,All,Half,Less than half,More than half,-0.482910156,0.322285156,1,0,0,QQQ7,,,,,,,,English,2020-07-02_03h15.45.769,Experiment_English,3.2.4,MacIntel,60,,,1,0,340,17,1,339,ratio12_6_18_5.png,,,,,,,,,,,,
,,,,,,,,,,,,Most,Less than half,Many,More than half,Half,None,All,Some,Few,-0.121118164,0.271147461,1,0,0,QQQ4,,,,,,,,English,2020-07-02_03h15.45.769,Experiment_English,3.2.4,MacIntel,60,,,1,0,340,292,1,339,ratio43_8_14_6.png,,,,,,,,,,,,
,,,,,,,,,,,,Half,None,Less than half,All,Many,Most,More than half,Few,Some,-0.431621094,0.029677734,1,0,0,QQQ8,,,,,,,,English,2020-07-02_03h15.45.769,Experiment_English,3.2.4,MacIntel,60,,,1,0,340,144,1,339,ratio19_1_10_11.png,,,,,,,,,,,,
,,,,,,,,,,,,Few,Half,More than half,Most,None,All,Less than half,Many,Some,-0.059047852,0.340419922,1,0,0,QQQ4,,,,,,,,English,2020-07-02_03h15.45.769,Experiment_English,3.2.4,MacIntel,60,,,1,0,340,265,1,339,ratio41_8_10_1.png,,,,,,,,,,,,
,,,,,,,,,,,,Half,Some,Most,Many,More than half,Less than half,None,Few,All,-0.39,-0.242548828,1,0,0,QQQ9,,,,,,,,English,2020-07-02_03h15.45.769,Experiment_English,3.2.4,MacIntel,60,,,1,0,340,59,1,339,ratioX0_20_20_9.png,,,,,,,,,,,,
,,,,,,,,,,,,Half,Few,Some,More than half,All,Less than half,None,Many,Most,0.395146484,0.031020508,1,0,0,QQQ2,,,,,,,,English,2020-07-02_03h15.45.769,Experiment_English,3.2.4,MacIntel,60,,,1,0,340,106,1,339,ratio14_2_10_2.png,,,,,,,,,,,,
,,,,,,,,,,,,Most,Many,None,All,Less than half,Some,Few,More than half,Half,-0.495585938,0.311152344,1,0,0,QQQ7,,,,,,,,English,2020-07-02_03h15.45.769,Experiment_English,3.2.4,MacIntel,60,,,1,0,340,60,1,339,ratio0Y_0_3_5.png,,,,,,,,,,,,
,,,,,,,,,,,,Less than half,More than half,Many,None,Few,Half,Most,Some,All,-0.103037109,-0.027983398,1,0,0,QQQ5,,,,,,,,English,2020-07-02_03h15.45.769,Experiment_English,3.2.4,MacIntel,60,,,1,0,340,113,1,339,ratio14_3_15_8.png,,,,,,,,,,,,
,,,,,,,,,,,,Half,Few,All,Some,Less than half,Most,More than half,Many,None,0.538325195,-0.354526367,1,0,0,QQQ3,,,,,,,,English,2020-07-02_03h15.45.769,Experiment_English,3.2.4,MacIntel,60,,,1,0,340,54,1,339,ratioX0_15_15_5.png,,,,,,,,,,,,
,,,,,,,,,,,,Less than half,Some,More than half,Half,Few,Most,None,Many,All,0.052470703,-0.329667969,1,0,0,QQQ6,,,,,,,,English,2020-07-02_03h15.45.769,Experiment_English,3.2.4,MacIntel,60,,,1,0,340,216,1,339,ratio31_15_20_3.png,,,,,,,,,,,,
,,,,,,,,,,,,Less than half,None,Few,Most,Many,Half,More than half,Some,All,-0.11449707,0.240043945,1,0,0,QQQ4,,,,,,,,English,2020-07-02_03h15.45.769,Experiment_English,3.2.4,MacIntel,60,,,1,0,340,326,1,339,ratio91_9_10_10.png,,,,,,,,,,,,
,,,,,,,,,,,,None,Some,Many,More than half,Few,Less than half,Half,Most,All,-0.45277832,-0.279272461,1,0,0,QQQ9,,,,,,,,English,2020-07-02_03h15.45.769,Experiment_English,3.2.4,MacIntel,60,,,1,0,340,52,1,339,ratioX0_13_13_10.png,,,,,,,,,,,,
,,,,,,,,,,,,Less than half,All,Half,Many,None,Most,Some,More than half,Few,-0.435078125,-0.288349609,1,0,0,QQQ9,,,,,,,,English,2020-07-02_03h15.45.769,Experiment_English,3.2.4,MacIntel,60,,,1,0,340,134,1,339,ratio15_3_18_5.png,,,,,,,,,,,,
,,,,,,,,,,,,Many,Some,Most,All,Less than half,None,Few,Half,More than half,-0.395854492,0.237705078,1,0,0,QQQ7,,,,,,,,English,2020-07-02_03h15.45.769,Experiment_English,3.2.4,MacIntel,60,,,1,0,340,83,1,339,ratio13_1_4_10.png,,,,,,,,,,,,
,,,,,,,,,,,,Most,Some,More than half,Half,Less than half,Many,All,None,Few,0.431977539,0.292749023,1,0,0,QQQ1,,,,,,,,English,2020-07-02_03h15.45.769,Experiment_English,3.2.4,MacIntel,60,,,1,0,340,309,1,339,ratio51_10_12_10.png,,,,,,,,,,,,
,,,,,,,,,,,,More than half,None,Few,Some,Less than half,Most,Half,All,Many,0.55465332,-0.255756836,1,0,0,QQQ3,,,,,,,,English,2020-07-02_03h15.45.769,Experiment_English,3.2.4,MacIntel,60,,,1,0,340,10,1,339,ratio12_4_12_4.png,,,,,,,,,,,,
,,,,,,,,,,,,Less than half,Many,All,Most,Few,None,Some,More than half,Half,0.019506836,0.315693359,1,0,0,QQQ4,,,,,,,,English,2020-07-02_03h15.45.769,Experiment_English,3.2.4,MacIntel,60,,,1,0,340,319,1,339,ratio51_15_18_20.png,,,,,,,,,,,,
,,,,,,,,,,,,Many,Few,All,Some,None,Most,More than half,Half,Less than half,0.478886719,-0.055361328,1,0,0,QQQ2,,,,,,,,English,2020-07-02_03h15.45.769,Experiment_English,3.2.4,MacIntel,60,,,1,0,340,112,1,339,ratio14_3_15_4.png,,,,,,,,,,,,
,,,,,,,,,,,,Few,None,Most,Many,Half,Some,More than half,All,Less than half,0.497504883,-0.301572266,1,0,0,QQQ3,,,,,,,,English,2020-07-02_03h15.45.769,Experiment_English,3.2.4,MacIntel,60,,,1,0,340,318,1,339,ratio51_15_18_18.png,,,,,,,,,,,,
,,,,,,,,,,,,None,Less than half,All,Many,Some,More than half,Few,Half,Most,-0.473071289,-0.27519043,1,0,0,QQQ9,,,,,,,,English,2020-07-02_03h15.45.769,Experiment_English,3.2.4,MacIntel,60,,,1,0,340,332,1,339,ratio91_18_20_4.png,0.263520508,-0.374575195,1,0,0,continue_button_pause,1,0,1,0,1,0
,,,,,,,,,,,,,,,,,,,,,,,,,,,,,,,,,,English,2020-07-02_03h15.45.769,Experiment_English,3.2.4,MacIntel,60,,,1,0,340,332,1,339,ratio91_18_20_4.png,,,,,,,,,,,,
,,,,,,,,,,,,Most,None,Half,All,More than half,Some,Less than half,Many,Few,0.497714844,0.289301758,1,0,0,QQQ1,,,,,,,,English,2020-07-02_03h15.45.769,Experiment_English,3.2.4,MacIntel,60,,,1,0,340,331,1,339,ratio91_18_20_3.png,,,,,,,,,,,,
,,,,,,,,,,,,More than half,Few,Less than half,None,All,Some,Half,Many,Most,-0.448481445,-0.246489258,1,0,0,QQQ9,,,,,,,,English,2020-07-02_03h15.45.769,Experiment_English,3.2.4,MacIntel,60,,,1,0,340,289,1,339,ratio43_4_7_20.png,,,,,,,,,,,,
,,,,,,,,,,,,None,Less than half,Some,Few,Half,All,More than half,Most,Many,0.573149414,-0.337446289,1,0,0,QQQ3,,,,,,,,English,2020-07-02_03h15.45.769,Experiment_English,3.2.4,MacIntel,60,,,1,0,340,118,1,339,ratio14_4_20_8.png,,,,,,,,,,,,
,,,,,,,,,,,,Most,All,Less than half,None,Half,Some,Many,Few,More than half,-0.528344727,0.021030273,1,0,0,QQQ8,,,,,,,,English,2020-07-02_03h15.45.769,Experiment_English,3.2.4,MacIntel,60,,,1,0,340,82,1,339,ratio13_1_4_7.png,,,,,,,,,,,,
,,,,,,,,,,,,Some,Less than half,More than half,All,Few,None,Many,Half,Most,-0.038027344,-0.046274414,1,0,0,QQQ5,,,,,,,,English,2020-07-02_03h15.45.769,Experiment_English,3.2.4,MacIntel,60,,,1,0,340,251,1,339,ratio34_6_14_2.png,,,,,,,,,,,,
,,,,,,,,,,,,None,Many,More than half,Less than half,All,Few,Half,Most,Some,0.071264648,0.312128906,1,0,0,QQQ4,,,,,,,,English,2020-07-02_03h15.45.769,Experiment_English,3.2.4,MacIntel,60,,,1,0,340,198,1,339,ratio23_8_20_7.png,,,,,,,,,,,,
,,,,,,,,,,,,More than half,Many,Some,Most,Less than half,None,Half,All,Few,-0.399824219,0.033349609,1,0,0,QQQ8,,,,,,,,English,2020-07-02_03h15.45.769,Experiment_English,3.2.4,MacIntel,60,,,1,0,340,57,1,339,ratioX0_18_18_1.png,,,,,,,,,,,,
,,,,,,,,,,,,All,More than half,None,Few,Some,Less than half,Most,Many,Half,0.443295898,-0.282666016,1,0,0,QQQ3,,,,,,,,English,2020-07-02_03h15.45.769,Experiment_English,3.2.4,MacIntel,60,,,1,0,340,61,1,339,ratio0Y_0_4_7.png,,,,,,,,,,,,
,,,,,,,,,,,,All,None,Most,Some,Few,Half,Less than half,Many,More than half,-0.462514648,-0.273330078,1,0,0,QQQ9,,,,,,,,English,2020-07-02_03h15.45.769,Experiment_English,3.2.4,MacIntel,60,,,1,0,340,165,1,339,ratio21_4_6_10.png,,,,,,,,,,,,
,,,,,,,,,,,,Few,All,More than half,Some,Most,Less than half,Many,None,Half,0.430009766,0.009145508,1,0,0,QQQ2,,,,,,,,English,2020-07-02_03h15.45.769,Experiment_English,3.2.4,MacIntel,60,,,1,0,340,43,1,339,ratioX0_6_6_9.png,,,,,,,,,,,,
,,,,,,,,,,,,Many,None,Less than half,All,Few,Some,Half,More than half,Most,-0.455458984,0.024882813,1,0,0,QQQ8,,,,,,,,English,2020-07-02_03h15.45.769,Experiment_English,3.2.4,MacIntel,60,,,1,0,340,229,1,339,ratio32_6_10_9.png,,,,,,,,,,,,
,,,,,,,,,,,,Few,Half,Most,More than half,All,Less than half,Some,None,Many,-0.439550781,0.024726563,1,0,0,QQQ8,,,,,,,,English,2020-07-02_03h15.45.769,Experiment_English,3.2.4,MacIntel,60,,,1,0,340,73,1,339,ratio0Y_0_14_7.png,,,,,,,,,,,,
,,,,,,,,,,,,All,Half,Less than half,Most,More than half,Few,Some,None,Many,0.003051758,0.218344727,1,0,0,QQQ4,,,,,,,,English,2020-07-02_03h15.45.769,Experiment_English,3.2.4,MacIntel,60,,,1,0,340,337,1,339,ratio91_18_20_16.png,,,,,,,,,,,,
,,,,,,,,,,,,Half,Many,Some,Few,None,All,Less than half,More than half,Most,0.46355957,-0.216875,1,0,0,QQQ3,,,,,,,,English,2020-07-02_03h15.45.769,Experiment_English,3.2.4,MacIntel,60,,,1,0,340,130,1,339,ratio15_2_12_12.png,,,,,,,,,,,,
,,,,,,,,,,,,Many,More than half,Half,Few,Most,Some,None,Less than half,All,0.363632813,-0.066196289,1,0,0,QQQ2,,,,,,,,English,2020-07-02_03h15.45.769,Experiment_English,3.2.4,MacIntel,60,,,1,0,340,295,1,339,ratio43_8_14_11.png,,,,,,,,,,,,
,,,,,,,,,,,,Most,None,Many,Some,Less than half,Few,Half,All,More than half,-0.534702148,0.32262207,1,0,0,QQQ7,,,,,,,,English,2020-07-02_03h15.45.769,Experiment_English,3.2.4,MacIntel,60,,,1,0,340,299,1,339,ratio43_8_14_17.png,,,,,,,,,,,,
,,,,,,,,,,,,Less than half,Some,Many,Most,None,Half,All,Few,More than half,-0.094111328,-0.002128906,1,0,0,QQQ5,,,,,,,,English,2020-07-02_03h15.45.769,Experiment_English,3.2.4,MacIntel,60,,,1,0,340,78,1,339,ratio0Y_0_19_1.png,,,,,,,,,,,,
,,,,,,,,,,,,All,Less than half,Half,Many,Some,None,Most,Few,More than half,-0.491762695,0.335336914,1,0,0,QQQ7,,,,,,,,English,2020-07-02_03h15.45.769,Experiment_English,3.2.4,MacIntel,60,,,1,0,340,330,1,339,ratio91_18_20_2.png,,,,,,,,,,,,
,,,,,,,,,,,,Few,Many,All,Most,Less than half,Half,More than half,None,Some,-0.091796875,0.318095703,1,0,0,QQQ4,,,,,,,,English,2020-07-02_03h15.45.769,Experiment_English,3.2.4,MacIntel,60,,,1,0,340,310,1,339,ratio51_10_12_12.png,,,,,,,,,,,,
,,,,,,,,,,,,Most,Less than half,More than half,None,Few,Many,Some,Half,All,0.447192383,0.356689453,1,0,0,QQQ1,,,,,,,,English,2020-07-02_03h15.45.769,Experiment_English,3.2.4,MacIntel,60,,,1,0,340,239,1,339,ratio32_12_20_10.png,,,,,,,,,,,,
,,,,,,,,,,,,None,All,Half,More than half,Few,Most,Many,Some,Less than half,0.476616211,-0.336401367,1,0,0,QQQ3,,,,,,,,English,2020-07-02_03h15.45.769,Experiment_English,3.2.4,MacIntel,60,,,1,0,340,21,1,339,ratio11_2_4_10.png,,,,,,,,,,,,
,,,,,,,,,,,,Few,Half,Some,Most,All,More than half,None,Many,Less than half,-0.048647461,0.051108398,1,0,0,QQQ5,,,,,,,,English,2020-07-02_03h15.45.769,Experiment_English,3.2.4,MacIntel,60,,,1,0,340,53,1,339,ratioX0_14_14_8.png,,,,,,,,,,,,
,,,,,,,,,,,,Less than half,Some,None,All,Half,Most,Few,Many,More than half,0.024946289,-0.246445313,1,0,0,QQQ6,,,,,,,,English,2020-07-02_03h15.45.769,Experiment_English,3.2.4,MacIntel,60,,,1,0,340,213,1,339,ratio31_12_16_2.png,,,,,,,,,,,,
,,,,,,,,,,,,Most,Half,Few,More than half,Less than half,Some,Many,None,All,0.49355957,0.340424805,1,0,0,QQQ1,,,,,,,,English,2020-07-02_03h15.45.769,Experiment_English,3.2.4,MacIntel,60,,,1,0,340,218,1,339,ratio31_15_20_7.png,,,,,,,,,,,,
,,,,,,,,,,,,Few,None,More than half,Some,Less than half,All,Most,Half,Many,-0.424487305,0.237182617,1,0,0,QQQ7,,,,,,,,English,2020-07-02_03h15.45.769,Experiment_English,3.2.4,MacIntel,60,,,1,0,340,168,1,339,ratio21_6_9_3.png,,,,,,,,,,,,
,,,,,,,,,,,,Many,None,Less than half,Most,Few,Some,All,More than half,Half,0.419780273,0.034121094,1,0,0,QQQ2,,,,,,,,English,2020-07-02_03h15.45.769,Experiment_English,3.2.4,MacIntel,60,,,1,0,340,338,1,339,ratio91_18_20_18.png,,,,,,,,,,,,
,,,,,,,,,,,,Few,Many,Most,Less than half,Some,None,All,More than half,Half,-0.513676758,0.000488281,1,0,0,QQQ8,,,,,,,,English,2020-07-02_03h15.45.769,Experiment_English,3.2.4,MacIntel,60,,,1,0,340,163,1,339,ratio21_4_6_1.png,,,,,,,,,,,,
,,,,,,,,,,,,Many,Half,All,Some,Less than half,More than half,Most,Few,None,0.412612305,-0.25484375,1,0,0,QQQ3,,,,,,,,English,2020-07-02_03h15.45.769,Experiment_English,3.2.4,MacIntel,60,,,1,0,340,44,1,339,ratioX0_7_7_5.png,,,,,,,,,,,,
,,,,,,,,,,,,Half,More than half,Most,Some,All,None,Many,Less than half,Few,0.446352539,-0.285595703,1,0,0,QQQ3,,,,,,,,English,2020-07-02_03h15.45.769,Experiment_English,3.2.4,MacIntel,60,,,1,0,340,324,1,339,ratio91_9_10_7.png,,,,,,,,,,,,
,,,,,,,,,,,,Most,More than half,Half,Less than half,All,Many,Some,None,Few,-0.520424805,0.35359375,1,0,0,QQQ7,,,,,,,,English,2020-07-02_03h15.45.769,Experiment_English,3.2.4,MacIntel,60,,,1,0,340,182,1,339,ratio23_2_5_7.png,,,,,,,,,,,,
,,,,,,,,,,,,Most,Many,None,Some,All,Half,More than half,Few,Less than half,-0.5021875,-0.035043945,1,0,0,QQQ8,,,,,,,,English,2020-07-02_03h15.45.769,Experiment_English,3.2.4,MacIntel,60,,,1,0,340,2,1,339,ratio12_1_3_10.png,,,,,,,,,,,,
,,,,,,,,,,,,All,More than half,None,Most,Few,Many,Less than half,Some,Half,-0.481225586,0.219970703,1,0,0,QQQ7,,,,,,,,English,2020-07-02_03h15.45.769,Experiment_English,3.2.4,MacIntel,60,,,1,0,340,185,1,339,ratio23_4_10_1.png,,,,,,,,,,,,
,,,,,,,,,,,,Most,More than half,All,Some,Few,Many,Less than half,None,Half,-0.405825195,-0.024057617,1,0,0,QQQ8,,,,,,,,English,2020-07-02_03h15.45.769,Experiment_English,3.2.4,MacIntel,60,,,1,0,340,167,1,339,ratio21_6_9_2.png,,,,,,,,,,,,
,,,,,,,,,,,,None,Few,Some,All,Many,Less than half,Half,Most,More than half,-0.405825195,-0.024057617,1,0,0,QQQ8,,,,,,,,English,2020-07-02_03h15.45.769,Experiment_English,3.2.4,MacIntel,60,,,1,0,340,285,1,339,ratio43_4_7_14.png,0.372597656,-0.403959961,1,0,0,continue_button_pause,1,0,1,0,1,0
,,,,,,,,,,,,,,,,,,,,,,,,,,,,,,,,,,English,2020-07-02_03h15.45.769,Experiment_English,3.2.4,MacIntel,60,,,1,0,340,285,1,339,ratio43_4_7_14.png,,,,,,,,,,,,
,,,,,,,,,,,,More than half,All,Most,Many,Few,Some,Less than half,None,Half,0.121176758,-0.291494141,1,0,0,QQQ6,,,,,,,,English,2020-07-02_03h15.45.769,Experiment_English,3.2.4,MacIntel,60,,,1,0,340,127,1,339,ratio15_2_12_2.png,,,,,,,,,,,,
,,,,,,,,,,,,All,Few,More than half,Many,None,Half,Some,Most,Less than half,0.498310547,0.250717773,1,0,0,QQQ1,,,,,,,,English,2020-07-02_03h15.45.769,Experiment_English,3.2.4,MacIntel,60,,,1,0,340,49,1,339,ratioX0_11_11_2.png,,,,,,,,,,,,
,,,,,,,,,,,,None,All,Few,Many,Some,Half,Most,Less than half,More than half,0.126162109,-0.001464844,1,0,0,QQQ5,,,,,,,,English,2020-07-02_03h15.45.769,Experiment_English,3.2.4,MacIntel,60,,,1,0,340,125,1,339,ratio15_1_6_19.png,,,,,,,,,,,,
,,,,,,,,,,,,Few,More than half,Some,None,Less than half,Most,Half,All,Many,0.415205078,0.287524414,1,0,0,QQQ1,,,,,,,,English,2020-07-02_03h15.45.769,Experiment_English,3.2.4,MacIntel,60,,,1,0,340,180,1,339,ratio23_2_5_4.png,,,,,,,,,,,,
,,,,,,,,,,,,Most,More than half,Few,Many,Some,Less than half,All,Half,None,0.518720703,-0.285556641,1,0,0,QQQ3,,,,,,,,English,2020-07-02_03h15.45.769,Experiment_English,3.2.4,MacIntel,60,,,1,0,340,107,1,339,ratio14_2_10_5.png,,,,,,,,,,,,
,,,,,,,,,,,,All,Less than half,None,Some,More than half,Few,Half,Most,Many,-0.043994141,-0.014111328,1,0,0,QQQ5,,,,,,,,English,2020-07-02_03h15.45.769,Experiment_English,3.2.4,MacIntel,60,,,1,0,340,316,1,339,ratio51_15_18_11.png,,,,,,,,,,,,
,,,,,,,,,,,,All,Most,More than half,None,Half,Less than half,Few,Many,Some,0.464931641,-0.336206055,1,0,0,QQQ3,,,,,,,,English,2020-07-02_03h15.45.769,Experiment_English,3.2.4,MacIntel,60,,,1,0,340,226,1,339,ratio32_6_10_5.png,,,,,,,,,,,,
,,,,,,,,,,,,Some,Half,Many,All,More than half,Few,None,Less than half,Most,-0.484199219,-0.238500977,1,0,0,QQQ9,,,,,,,,English,2020-07-02_03h15.45.769,Experiment_English,3.2.4,MacIntel,60,,,1,0,340,210,1,339,ratio31_9_12_9.png,,,,,,,,,,,,
,,,,,,,,,,,,Less than half,Many,All,Few,More than half,Some,Half,Most,None,-0.476435547,-0.004228516,1,0,0,QQQ8,,,,,,,,English,2020-07-02_03h15.45.769,Experiment_English,3.2.4,MacIntel,60,,,1,0,340,238,1,339,ratio32_12_20_9.png,,,,,,,,,,,,
,,,,,,,,,,,,None,Half,All,Less than half,Some,Many,Few,More than half,Most,-0.42277832,-0.253857422,1,0,0,QQQ9,,,,,,,,English,2020-07-02_03h15.45.769,Experiment_English,3.2.4,MacIntel,60,,,1,0,340,270,1,339,ratio41_12_15_3.png,,,,,,,,,,,,
,,,,,,,,,,,,Less than half,All,Few,More than half,Half,Some,None,Most,Many,0.451411133,-0.069467773,1,0,0,QQQ2,,,,,,,,English,2020-07-02_03h15.45.769,Experiment_English,3.2.4,MacIntel,60,,,1,0,340,50,1,339,ratioX0_12_12_3.png,,,,,,,,,,,,
,,,,,,,,,,,,Most,Many,Few,Less than half,None,Some,All,Half,More than half,0.031074219,0.310922852,1,0,0,QQQ4,,,,,,,,English,2020-07-02_03h15.45.769,Experiment_English,3.2.4,MacIntel,60,,,1,0,340,188,1,339,ratio23_4_10_6.png,,,,,,,,,,,,
,,,,,,,,,,,,Many,Few,Some,Half,None,Most,More than half,All,Less than half,-0.431015625,-0.234697266,1,0,0,QQQ9,,,,,,,,English,2020-07-02_03h15.45.769,Experiment_English,3.2.4,MacIntel,60,,,1,0,340,243,1,339,ratio34_3_7_8.png,,,,,,,,,,,,
,,,,,,,,,,,,Many,Most,None,Few,More than half,Half,All,Less than half,Some,-0.413212891,-0.263725586,1,0,0,QQQ9,,,,,,,,English,2020-07-02_03h15.45.769,Experiment_English,3.2.4,MacIntel,60,,,1,0,340,141,1,339,ratio19_1_10_2.png,,,,,,,,,,,,
,,,,,,,,,,,,Less than half,None,Half,Many,More than half,All,Most,Some,Few,-0.460664063,-0.299819336,1,0,0,QQQ9,,,,,,,,English,2020-07-02_03h15.45.769,Experiment_English,3.2.4,MacIntel,60,,,1,0,340,124,1,339,ratio15_1_6_16.png,,,,,,,,,,,,
,,,,,,,,,,,,Some,None,Few,All,Most,Half,Many,More than half,Less than half,0.54980957,-0.248959961,1,0,0,QQQ3,,,,,,,,English,2020-07-02_03h15.45.769,Experiment_English,3.2.4,MacIntel,60,,,1,0,340,120,1,339,ratio15_1_6_1.png,,,,,,,,,,,,
,,,,,,,,,,,,More than half,Few,All,Less than half,None,Many,Most,Some,Half,-0.446005859,-0.030200195,1,0,0,QQQ8,,,,,,,,English,2020-07-02_03h15.45.769,Experiment_English,3.2.4,MacIntel,60,,,1,0,340,108,1,339,ratio14_2_10_6.png,,,,,,,,,,,,
,,,,,,,,,,,,Some,Most,Few,All,Half,Many,None,More than half,Less than half,0.398051758,-0.308828125,1,0,0,QQQ3,,,,,,,,English,2020-07-02_03h15.45.769,Experiment_English,3.2.4,MacIntel,60,,,1,0,340,123,1,339,ratio15_1_6_12.png,,,,,,,,,,,,
,,,,,,,,,,,,Few,Most,More than half,Half,Some,None,All,Many,Less than half,-0.485283203,-0.315634766,1,0,0,QQQ9,,,,,,,,English,2020-07-02_03h15.45.769,Experiment_English,3.2.4,MacIntel,60,,,1,0,340,256,1,339,ratio34_6_14_11.png,,,,,,,,,,,,
,,,,,,,,,,,,None,Few,More than half,Less than half,Most,All,Many,Some,Half,-0.449990234,-0.023657227,1,0,0,QQQ8,,,,,,,,English,2020-07-02_03h15.45.769,Experiment_English,3.2.4,MacIntel,60,,,1,0,340,92,1,339,ratio13_4_16_3.png,,,,,,,,,,,,
,,,,,,,,,,,,Most,None,Less than half,More than half,All,Few,Half,Many,Some,-0.579394531,0.219838867,1,0,0,QQQ7,,,,,,,,English,2020-07-02_03h15.45.769,Experiment_English,3.2.4,MacIntel,60,,,1,0,340,259,1,339,ratio34_6_14_19.png,,,,,,,,,,,,
,,,,,,,,,,,,Most,Some,None,Many,Less than half,Half,More than half,All,Few,0.541166992,-0.289130859,1,0,0,QQQ3,,,,,,,,English,2020-07-02_03h15.45.769,Experiment_English,3.2.4,MacIntel,60,,,1,0,340,62,1,339,ratio0Y_0_5_4.png,,,,,,,,,,,,
,,,,,,,,,,,,Some,Few,Many,More than half,Half,All,Less than half,Most,None,-0.504707031,-0.279892578,1,0,0,QQQ9,,,,,,,,English,2020-07-02_03h15.45.769,Experiment_English,3.2.4,MacIntel,60,,,1,0,340,63,1,339,ratio0Y_0_6_8.png,,,,,,,,,,,,
,,,,,,,,,,,,Half,More than half,None,All,Many,Less than half,Most,Few,Some,-0.482729492,0.264584961,1,0,0,QQQ7,,,,,,,,English,2020-07-02_03h15.45.769,Experiment_English,3.2.4,MacIntel,60,,,1,0,340,177,1,339,ratio21_12_18_1.png,,,,,,,,,,,,
,,,,,,,,,,,,Most,Less than half,Few,More than half,Half,Many,Some,None,All,0.448134766,0.283637695,1,0,0,QQQ1,,,,,,,,English,2020-07-02_03h15.45.769,Experiment_English,3.2.4,MacIntel,60,,,1,0,340,278,1,339,ratio41_16_20_9.png,,,,,,,,,,,,
,,,,,,,,,,,,Some,All,Half,Few,Less than half,Most,None,More than half,Many,-0.533510742,-0.039487305,1,0,0,QQQ8,,,,,,,,English,2020-07-02_03h15.45.769,Experiment_English,3.2.4,MacIntel,60,,,1,0,340,32,1,339,ratio11_7_14_5.png,,,,,,,,,,,,
,,,,,,,,,,,,Half,All,Less than half,More than half,Many,Few,Some,Most,None,0.587519531,-0.286787109,1,0,0,QQQ3,,,,,,,,English,2020-07-02_03h15.45.769,Experiment_English,3.2.4,MacIntel,60,,,1,0,340,154,1,339,ratio19_2_20_11.png,,,,,,,,,,,,
,,,,,,,,,,,,Half,Most,Less than half,Some,Many,More than half,Few,None,All,-0.024916992,0.268764648,1,0,0,QQQ4,,,,,,,,English,2020-07-02_03h15.45.769,Experiment_English,3.2.4,MacIntel,60,,,1,0,340,136,1,339,ratio15_3_18_8.png,,,,,,,,,,,,
,,,,,,,,,,,,None,Some,Half,All,Less than half,Many,Few,More than half,Most,-0.56206543,-0.274897461,1,0,0,QQQ9,,,,,,,,English,2020-07-02_03h15.45.769,Experiment_English,3.2.4,MacIntel,60,,,1,0,340,263,1,339,ratio41_4_5_5.png,,,,,,,,,,,,
,,,,,,,,,,,,Few,None,Most,Less than half,All,Some,Half,More than half,Many,0.499584961,-0.036118164,1,0,0,QQQ2,,,,,,,,English,2020-07-02_03h15.45.769,Experiment_English,3.2.4,MacIntel,60,,,1,0,340,79,1,339,ratio0Y_0_20_4.png,,,,,,,,,,,,
,,,,,,,,,,,,More than half,Some,None,Few,Half,Less than half,Most,All,Many,0.5825,-0.399956055,1,0,0,QQQ3,,,,,,,,English,2020-07-02_03h15.45.769,Experiment_English,3.2.4,MacIntel,60,,,1,0,340,74,1,339,ratio0Y_0_15_10.png,,,,,,,,,,,,
,,,,,,,,,,,,Many,Half,More than half,Less than half,None,All,Some,Few,Most,-0.006162109,-0.260566406,1,0,0,QQQ6,,,,,,,,English,2020-07-02_03h15.45.769,Experiment_English,3.2.4,MacIntel,60,,,1,0,340,40,1,339,ratioX0_3_3_5.png,,,,,,,,,,,,
,,,,,,,,,,,,Most,All,Less than half,Few,Half,More than half,Many,Some,None,0.013759766,0.235224609,1,0,0,QQQ4,,,,,,,,English,2020-07-02_03h15.45.769,Experiment_English,3.2.4,MacIntel,60,,,1,0,340,155,1,339,ratio19_2_20_13.png,,,,,,,,,,,,
,,,,,,,,,,,,More than half,Less than half,Half,Most,None,Many,All,Few,Some,0.431845703,0.295805664,1,0,0,QQQ1,,,,,,,,English,2020-07-02_03h15.45.769,Experiment_English,3.2.4,MacIntel,60,,,1,0,340,237,1,339,ratio32_12_20_5.png,0.330288086,-0.416347656,1,0,0,continue_button_pause,1,0,1,0,1,0
,,,,,,,,,,,,,,,,,,,,,,,,,,,,,,,,,,English,2020-07-02_03h15.45.769,Experiment_English,3.2.4,MacIntel,60,,,1,0,340,237,1,339,ratio32_12_20_5.png,,,,,,,,,,,,
,,,,,,,,,,,,Some,More than half,Half,None,Most,Many,All,Few,Less than half,0.008193359,0.035478516,1,0,0,QQQ5,,,,,,,,English,2020-07-02_03h15.45.769,Experiment_English,3.2.4,MacIntel,60,,,1,0,340,268,1,339,ratio41_8_10_5.png,,,,,,,,,,,,
,,,,,,,,,,,,None,More than half,Many,Less than half,Half,All,Most,Some,Few,0.508862305,0.322939453,1,0,0,QQQ1,,,,,,,,English,2020-07-02_03h15.45.769,Experiment_English,3.2.4,MacIntel,60,,,1,0,340,76,1,339,ratio0Y_0_17_10.png,,,,,,,,,,,,
,,,,,,,,,,,,More than half,Many,Some,Less than half,All,Half,None,Few,Most,0.408764648,0.263886719,1,0,0,QQQ1,,,,,,,,English,2020-07-02_03h15.45.769,Experiment_English,3.2.4,MacIntel,60,,,1,0,340,33,1,339,ratio11_7_14_8.png,,,,,,,,,,,,
,,,,,,,,,,,,Some,Half,None,Few,Many,Most,Less than half,All,More than half,-0.092587891,-0.315224609,1,0,0,QQQ6,,,,,,,,English,2020-07-02_03h15.45.769,Experiment_English,3.2.4,MacIntel,60,,,1,0,340,233,1,339,ratio32_9_15_9.png,,,,,,,,,,,,
,,,,,,,,,,,,Most,Half,Few,All,Some,More than half,None,Less than half,Many,0.571196289,0.296835937,1,0,0,QQQ1,,,,,,,,English,2020-07-02_03h15.45.769,Experiment_English,3.2.4,MacIntel,60,,,1,0,340,313,1,339,ratio51_15_18_2.png,,,,,,,,,,,,
,,,,,,,,,,,,Many,More than half,Half,All,Some,None,Less than half,Few,Most,0.473349609,-0.277983398,1,0,0,QQQ3,,,,,,,,English,2020-07-02_03h15.45.769,Experiment_English,3.2.4,MacIntel,60,,,1,0,340,288,1,339,ratio43_4_7_18.png,,,,,,,,,,,,
,,,,,,,,,,,,Some,Many,None,Most,Few,All,Half,More than half,Less than half,-0.376879883,0.324570313,1,0,0,QQQ7,,,,,,,,English,2020-07-02_03h15.45.769,Experiment_English,3.2.4,MacIntel,60,,,1,0,340,245,1,339,ratio34_3_7_10.png,,,,,,,,,,,,
,,,,,,,,,,,,Less than half,Few,None,Some,All,Most,More than half,Half,Many,0.017993164,-0.290878906,1,0,0,QQQ6,,,,,,,,English,2020-07-02_03h15.45.769,Experiment_English,3.2.4,MacIntel,60,,,1,0,340,202,1,339,ratio31_3_4_8.png,,,,,,,,,,,,
,,,,,,,,,,,,More than half,All,Most,Few,Some,Many,Less than half,Half,None,-0.530927734,-0.261074219,1,0,0,QQQ9,,,,,,,,English,2020-07-02_03h15.45.769,Experiment_English,3.2.4,MacIntel,60,,,1,0,340,77,1,339,ratio0Y_0_18_3.png,,,,,,,,,,,,
,,,,,,,,,,,,Many,Less than half,Most,Half,Some,None,All,Few,More than half,0.493925781,-0.035327148,1,0,0,QQQ2,,,,,,,,English,2020-07-02_03h15.45.769,Experiment_English,3.2.4,MacIntel,60,,,1,0,340,94,1,339,ratio13_4_16_8.png,,,,,,,,,,,,
,,,,,,,,,,,,Some,Many,Most,Less than half,Half,Few,More than half,None,All,0.448662109,0.25734375,1,0,0,QQQ1,,,,,,,,English,2020-07-02_03h15.45.769,Experiment_English,3.2.4,MacIntel,60,,,1,0,340,87,1,339,ratio13_2_8_8.png,,,,,,,,,,,,
,,,,,,,,,,,,Few,All,Many,Less than half,Some,More than half,Most,Half,None,0.492509766,0.325625,1,0,0,QQQ1,,,,,,,,English,2020-07-02_03h15.45.769,Experiment_English,3.2.4,MacIntel,60,,,1,0,340,152,1,339,ratio19_2_20_6.png,,,,,,,,,,,,
,,,,,,,,,,,,None,Less than half,Most,All,Some,Half,Few,Many,More than half,0.469716797,-0.358134766,1,0,0,QQQ3,,,,,,,,English,2020-07-02_03h15.45.769,Experiment_English,3.2.4,MacIntel,60,,,1,0,340,312,1,339,ratio51_10_12_16.png,,,,,,,,,,,,
,,,,,,,,,,,,Half,Some,All,None,Few,Most,Less than half,More than half,Many,0.448876953,0.003911133,1,0,0,QQQ2,,,,,,,,English,2020-07-02_03h15.45.769,Experiment_English,3.2.4,MacIntel,60,,,1,0,340,160,1,339,ratio21_2_3_2.png,,,,,,,,,,,,
,,,,,,,,,,,,Half,More than half,Many,Most,Few,All,None,Some,Less than half,0.00934082,0.335742188,1,0,0,QQQ4,,,,,,,,English,2020-07-02_03h15.45.769,Experiment_English,3.2.4,MacIntel,60,,,1,0,340,267,1,339,ratio41_8_10_4.png,,,,,,,,,,,,
,,,,,,,,,,,,More than half,Less than half,Half,None,All,Few,Most,Many,Some,0.503930664,-0.02543457,1,0,0,QQQ2,,,,,,,,English,2020-07-02_03h15.45.769,Experiment_English,3.2.4,MacIntel,60,,,1,0,340,14,1,339,ratio12_5_15_4.png,,,,,,,,,,,,
,,,,,,,,,,,,None,Most,Many,More than half,All,Half,Less than half,Some,Few,0.486113281,-0.036733398,1,0,0,QQQ2,,,,,,,,English,2020-07-02_03h15.45.769,Experiment_English,3.2.4,MacIntel,60,,,1,0,340,306,1,339,ratio51_5_6_18.png,,,,,,,,,,,,
,,,,,,,,,,,,Half,Some,More than half,Most,Many,All,Less than half,None,Few,0.505458984,-0.359975586,1,0,0,QQQ3,,,,,,,,English,2020-07-02_03h15.45.769,Experiment_English,3.2.4,MacIntel,60,,,1,0,340,294,1,339,ratio43_8_14_9.png,,,,,,,,,,,,
,,,,,,,,,,,,None,Some,Less than half,Most,All,More than half,Many,Half,Few,-0.451118164,-0.292890625,1,0,0,QQQ9,,,,,,,,English,2020-07-02_03h15.45.769,Experiment_English,3.2.4,MacIntel,60,,,1,0,340,156,1,339,ratio19_2_20_14.png,,,,,,,,,,,,
,,,,,,,,,,,,More than half,Half,Some,Most,Many,Few,Less than half,None,All,0.448730469,0.265913086,1,0,0,QQQ1,,,,,,,,English,2020-07-02_03h15.45.769,Experiment_English,3.2.4,MacIntel,60,,,1,0,340,225,1,339,ratio32_6_10_4.png,,,,,,,,,,,,
,,,,,,,,,,,,Many,More than half,All,None,Few,Some,Most,Less than half,Half,0.468271484,0.040976563,1,0,0,QQQ2,,,,,,,,English,2020-07-02_03h15.45.769,Experiment_English,3.2.4,MacIntel,60,,,1,0,340,223,1,339,ratio32_3_5_5.png,,,,,,,,,,,,
,,,,,,,,,,,,Half,None,Few,Some,Many,Less than half,All,More than half,Most,-0.4628125,-0.238447266,1,0,0,QQQ9,,,,,,,,English,2020-07-02_03h15.45.769,Experiment_English,3.2.4,MacIntel,60,,,1,0,340,327,1,339,ratio91_9_10_11.png,,,,,,,,,,,,
,,,,,,,,,,,,Most,Many,None,Half,Less than half,Few,Some,More than half,All,-0.05262207,-0.257329102,1,0,0,QQQ6,,,,,,,,English,2020-07-02_03h15.45.769,Experiment_English,3.2.4,MacIntel,60,,,1,0,340,153,1,339,ratio19_2_20_8.png,,,,,,,,,,,,
,,,,,,,,,,,,Most,More than half,Less than half,All,Some,Many,Half,Few,None,0.404902344,-0.267475586,1,0,0,QQQ3,,,,,,,,English,2020-07-02_03h15.45.769,Experiment_English,3.2.4,MacIntel,60,,,1,0,340,15,1,339,ratio12_5_15_5.png,,,,,,,,,,,,
,,,,,,,,,,,,Less than half,Few,Some,None,More than half,All,Many,Most,Half,0.104897461,-0.266318359,1,0,0,QQQ6,,,,,,,,English,2020-07-02_03h15.45.769,Experiment_English,3.2.4,MacIntel,60,,,1,0,340,45,1,339,ratioX0_8_8_3.png,,,,,,,,,,,,
,,,,,,,,,,,,Most,Half,None,Less than half,Few,Some,All,More than half,Many,-0.448154297,-0.002734375,1,0,0,QQQ8,,,,,,,,English,2020-07-02_03h15.45.769,Experiment_English,3.2.4,MacIntel,60,,,1,0,340,36,1,339,ratio11_9_18_1.png,,,,,,,,,,,,
,,,,,,,,,,,,Some,Less than half,None,Few,Half,Most,Many,All,More than half,-0.059204102,-0.281791992,1,0,0,QQQ6,,,,,,,,English,2020-07-02_03h15.45.769,Experiment_English,3.2.4,MacIntel,60,,,1,0,340,161,1,339,ratio21_2_3_8.png,,,,,,,,,,,,
,,,,,,,,,,,,More than half,All,Few,Many,Some,Most,Half,None,Less than half,-0.491450195,0.041503906,1,0,0,QQQ8,,,,,,,,English,2020-07-02_03h15.45.769,Experiment_English,3.2.4,MacIntel,60,,,1,0,340,75,1,339,ratio0Y_0_16_10.png,,,,,,,,,,,,
,,,,,,,,,,,,Half,None,Many,Few,All,Most,More than half,Less than half,Some,-0.439248047,-0.262314453,1,0,0,QQQ9,,,,,,,,English,2020-07-02_03h15.45.769,Experiment_English,3.2.4,MacIntel,60,,,1,0,340,101,1,339,ratio14_1_5_7.png,,,,,,,,,,,,
,,,,,,,,,,,,Few,All,More than half,Many,Most,Some,Less than half,None,Half,0.064511719,-0.276054688,1,0,0,QQQ6,,,,,,,,English,2020-07-02_03h15.45.769,Experiment_English,3.2.4,MacIntel,60,,,1,0,340,95,1,339,ratio13_4_16_10.png,,,,,,,,,,,,
,,,,,,,,,,,,All,Half,Less than half,Most,Few,None,Many,More than half,Some,0.020219727,0.271303711,1,0,0,QQQ4,,,,,,,,English,2020-07-02_03h15.45.769,Experiment_English,3.2.4,MacIntel,60,,,1,0,340,320,1,339,ratio91_9_10_1.png,,,,,,,,,,,,
,,,,,,,,,,,,More than half,Many,Few,Less than half,All,Some,None,Half,Most,-0.479052734,0.00300293,1,0,0,QQQ8,,,,,,,,English,2020-07-02_03h15.45.769,Experiment_English,3.2.4,MacIntel,60,,,1,0,340,253,1,339,ratio34_6_14_5.png,,,,,,,,,,,,
,,,,,,,,,,,,All,More than half,Less than half,Few,Many,None,Most,Half,Some,-0.483789062,0.257607422,1,0,0,QQQ7,,,,,,,,English,2020-07-02_03h15.45.769,Experiment_English,3.2.4,MacIntel,60,,,1,0,340,281,1,339,ratio43_4_7_4.png,,,,,,,,,,,,
,,,,,,,,,,,,Few,None,Many,Half,Some,All,Less than half,More than half,Most,-0.558579102,0.279145508,1,0,0,QQQ7,,,,,,,,English,2020-07-02_03h15.45.769,Experiment_English,3.2.4,MacIntel,60,,,1,0,340,199,1,339,ratio23_8_20_8.png,0.277988281,-0.388662109,1,0,0,continue_button_pause,1,0,1,0,1,0
,,,,,,,,,,,,,,,,,,,,,,,,,,,,,,,,,,English,2020-07-02_03h15.45.769,Experiment_English,3.2.4,MacIntel,60,,,1,0,340,199,1,339,ratio23_8_20_8.png,,,,,,,,,,,,
,,,,,,,,,,,,None,Half,Less than half,Many,Few,All,Some,More than half,Most,0.490488281,-0.046728516,1,0,0,QQQ2,,,,,,,,English,2020-07-02_03h15.45.769,Experiment_English,3.2.4,MacIntel,60,,,1,0,340,22,1,339,ratio11_3_6_6.png,,,,,,,,,,,,
,,,,,,,,,,,,More than half,Half,Most,Some,Less than half,All,Many,None,Few,-0.017788086,0.272739258,1,0,0,QQQ4,,,,,,,,English,2020-07-02_03h15.45.769,Experiment_English,3.2.4,MacIntel,60,,,1,0,340,143,1,339,ratio19_1_10_9.png,,,,,,,,,,,,
,,,,,,,,,,,,All,Many,None,Less than half,Some,Most,Half,More than half,Few,0.043701172,-0.285908203,1,0,0,QQQ6,,,,,,,,English,2020-07-02_03h15.45.769,Experiment_English,3.2.4,MacIntel,60,,,1,0,340,266,1,339,ratio41_8_10_2.png,,,,,,,,,,,,
,,,,,,,,,,,,Many,Most,Few,None,Half,More than half,All,Less than half,Some,0.498134766,-0.013852539,1,0,0,QQQ2,,,,,,,,English,2020-07-02_03h15.45.769,Experiment_English,3.2.4,MacIntel,60,,,1,0,340,232,1,339,ratio32_9_15_8.png,,,,,,,,,,,,
,,,,,,,,,,,,Some,Half,Less than half,Few,Most,All,None,More than half,Many,-0.0015625,0.302270508,1,0,0,QQQ4,,,,,,,,English,2020-07-02_03h15.45.769,Experiment_English,3.2.4,MacIntel,60,,,1,0,340,89,1,339,ratio13_3_12_6.png,,,,,,,,,,,,
,,,,,,,,,,,,More than half,None,Many,Most,All,Half,Some,Few,Less than half,0.465209961,0.049111328,1,0,0,QQQ2,,,,,,,,English,2020-07-02_03h15.45.769,Experiment_English,3.2.4,MacIntel,60,,,1,0,340,67,1,339,ratio0Y_0_10_10.png,,,,,,,,,,,,
,,,,,,,,,,,,Less than half,Some,Many,Half,More than half,All,None,Few,Most,-0.48171875,0.002856445,1,0,0,QQQ8,,,,,,,,English,2020-07-02_03h15.45.769,Experiment_English,3.2.4,MacIntel,60,,,1,0,340,110,1,339,ratio14_3_15_2.png,,,,,,,,,,,,
,,,,,,,,,,,,None,Many,Half,Few,Less than half,More than half,Most,All,Some,-0.486547852,0.049702148,1,0,0,QQQ8,,,,,,,,English,2020-07-02_03h15.45.769,Experiment_English,3.2.4,MacIntel,60,,,1,0,340,42,1,339,ratioX0_5_5_5.png,,,,,,,,,,,,
,,,,,,,,,,,,Some,All,Few,Most,None,Half,Many,Less than half,More than half,-0.522749023,-0.321186523,1,0,0,QQQ9,,,,,,,,English,2020-07-02_03h15.45.769,Experiment_English,3.2.4,MacIntel,60,,,1,0,340,227,1,339,ratio32_6_10_6.png,,,,,,,,,,,,
,,,,,,,,,,,,More than half,All,Most,Some,None,Half,Few,Less than half,Many,0.568374023,-0.305761719,1,0,0,QQQ3,,,,,,,,English,2020-07-02_03h15.45.769,Experiment_English,3.2.4,MacIntel,60,,,1,0,340,26,1,339,ratio11_5_10_4.png,,,,,,,,,,,,
,,,,,,,,,,,,None,Few,Most,More than half,Less than half,Half,All,Many,Some,0.399628906,-0.014667969,1,0,0,QQQ2,,,,,,,,English,2020-07-02_03h15.45.769,Experiment_English,3.2.4,MacIntel,60,,,1,0,340,85,1,339,ratio13_2_8_5.png,,,,,,,,,,,,
,,,,,,,,,,,,Less than half,Many,Half,Few,All,None,Some,Most,More than half,0.025317383,0.019741211,1,0,0,QQQ5,,,,,,,,English,2020-07-02_03h15.45.769,Experiment_English,3.2.4,MacIntel,60,,,1,0,340,47,1,339,ratioX0_9_9_4.png,,,,,,,,,,,,
,,,,,,,,,,,,More than half,Most,All,Less than half,Many,Half,Some,None,Few,0.502329102,-0.001972656,1,0,0,QQQ2,,,,,,,,English,2020-07-02_03h15.45.769,Experiment_English,3.2.4,MacIntel,60,,,1,0,340,275,1,339,ratio41_16_20_2.png,,,,,,,,,,,,
,,,,,,,,,,,,Many,Few,Most,More than half,Half,Some,Less than half,All,None,-0.417597656,0.298955078,1,0,0,QQQ7,,,,,,,,English,2020-07-02_03h15.45.769,Experiment_English,3.2.4,MacIntel,60,,,1,0,340,16,1,339,ratio12_5_15_6.png,,,,,,,,,,,,
,,,,,,,,,,,,All,Half,Few,Many,Some,More than half,Less than half,None,Most,0.599804688,-0.022431641,1,0,0,QQQ2,,,,,,,,English,2020-07-02_03h15.45.769,Experiment_English,3.2.4,MacIntel,60,,,1,0,340,20,1,339,ratio11_2_4_3.png,,,,,,,,,,,,
,,,,,,,,,,,,Many,Some,More than half,Few,Most,None,Half,Less than half,All,-0.552758789,0.062294922,1,0,0,QQQ8,,,,,,,,English,2020-07-02_03h15.45.769,Experiment_English,3.2.4,MacIntel,60,,,1,0,340,189,1,339,ratio23_4_10_8.png,,,,,,,,,,,,
,,,,,,,,,,,,More than half,Few,Most,None,Less than half,Half,Many,All,Some,0.419936523,-0.030473633,1,0,0,QQQ2,,,,,,,,English,2020-07-02_03h15.45.769,Experiment_English,3.2.4,MacIntel,60,,,1,0,340,80,1,339,ratio13_1_4_3.png,,,,,,,,,,,,
,,,,,,,,,,,,Some,Half,Most,None,Less than half,All,Many,Few,More than half,0.554589844,-0.241850586,1,0,0,QQQ3,,,,,,,,English,2020-07-02_03h15.45.769,Experiment_English,3.2.4,MacIntel,60,,,1,0,340,277,1,339,ratio41_16_20_8.png,,,,,,,,,,,,
,,,,,,,,,,,,Few,Half,Most,Some,Less than half,None,More than half,All,Many,-0.467084961,0.316269531,1,0,0,QQQ7,,,,,,,,English,2020-07-02_03h15.45.769,Experiment_English,3.2.4,MacIntel,60,,,1,0,340,31,1,339,ratio11_6_12_9.png,,,,,,,,,,,,
,,,,,,,,,,,,Less than half,Half,Few,None,Most,Many,All,More than half,Some,-0.377128906,-0.296777344,1,0,0,QQQ9,,,,,,,,English,2020-07-02_03h15.45.769,Experiment_English,3.2.4,MacIntel,60,,,1,0,340,138,1,339,ratio15_3_18_17.png,,,,,,,,,,,,
,,,,,,,,,,,,All,Few,More than half,Less than half,None,Most,Half,Many,Some,-0.472109375,0.330043945,1,0,0,QQQ7,,,,,,,,English,2020-07-02_03h15.45.769,Experiment_English,3.2.4,MacIntel,60,,,1,0,340,296,1,339,ratio43_8_14_12.png,,,,,,,,,,,,
,,,,,,,,,,,,More than half,All,Most,Some,Many,Few,Half,None,Less than half,0.090170898,0.267080078,1,0,0,QQQ4,,,,,,,,English,2020-07-02_03h15.45.769,Experiment_English,3.2.4,MacIntel,60,,,1,0,340,100,1,339,ratio14_1_5_3.png,,,,,,,,,,,,
,,,,,,,,,,,,None,More than half,Some,Half,Less than half,Few,Many,All,Most,-0.055493164,-0.253999023,1,0,0,QQQ6,,,,,,,,English,2020-07-02_03h15.45.769,Experiment_English,3.2.4,MacIntel,60,,,1,0,340,132,1,339,ratio15_2_12_16.png,,,,,,,,,,,,
,,,,,,,,,,,,Some,More than half,Many,Few,All,Most,Half,None,Less than half,-0.019501953,-0.287675781,1,0,0,QQQ6,,,,,,,,English,2020-07-02_03h15.45.769,Experiment_English,3.2.4,MacIntel,60,,,1,0,340,261,1,339,ratio41_4_5_3.png,,,,,,,,,,,,
,,,,,,,,,,,,Some,Few,None,More than half,Half,Many,Less than half,All,Most,-0.458354492,-0.32355957,1,0,0,QQQ9,,,,,,,,English,2020-07-02_03h15.45.769,Experiment_English,3.2.4,MacIntel,60,,,1,0,340,175,1,339,ratio21_10_15_2.png,,,,,,,,,,,,
,,,,,,,,,,,,All,None,More than half,Few,Half,Less than half,Many,Most,Some,0.43246582,-0.043017578,1,0,0,QQQ2,,,,,,,,English,2020-07-02_03h15.45.769,Experiment_English,3.2.4,MacIntel,60,,,1,0,340,58,1,339,ratioX0_19_19_4.png,,,,,,,,,,,,
,,,,,,,,,,,,Most,Half,Few,Some,Less than half,All,None,More than half,Many,0.433769531,0.262958984,1,0,0,QQQ1,,,,,,,,English,2020-07-02_03h15.45.769,Experiment_English,3.2.4,MacIntel,60,,,1,0,340,298,1,339,ratio43_8_14_14.png,,,,,,,,,,,,
,,,,,,,,,,,,More than half,Many,Most,All,Some,Half,Less than half,None,Few,-0.073413086,-0.318305664,1,0,0,QQQ6,,,,,,,,English,2020-07-02_03h15.45.769,Experiment_English,3.2.4,MacIntel,60,,,1,0,340,29,1,339,ratio11_6_12_1.png,,,,,,,,,,,,
,,,,,,,,,,,,Few,All,Half,Some,More than half,Less than half,Most,Many,None,0.561000977,-0.300712891,1,0,0,QQQ3,,,,,,,,English,2020-07-02_03h15.45.769,Experiment_English,3.2.4,MacIntel,60,,,1,0,340,9,1,339,ratio12_3_9_5.png,,,,,,,,,,,,
,,,,,,,,,,,,None,Some,Most,More than half,Half,All,Many,Less than half,Few,0.005615234,0.062949219,1,0,0,QQQ5,,,,,,,,English,2020-07-02_03h15.45.769,Experiment_English,3.2.4,MacIntel,60,,,1,0,340,25,1,339,ratio11_4_8_10.png,,,,,,,,,,,,
,,,,,,,,,,,,All,Many,Few,Some,Half,None,Less than half,More than half,Most,-0.494780273,-0.29746582,1,0,0,QQQ9,,,,,,,,English,2020-07-02_03h15.45.769,Experiment_English,3.2.4,MacIntel,60,,,1,0,340,301,1,339,ratio51_5_6_4.png,,,,,,,,,,,,
,,,,,,,,,,,,Less than half,All,None,Many,Few,Half,More than half,Some,Most,-0.494711914,0.272695313,1,0,0,QQQ7,,,,,,,,English,2020-07-02_03h15.45.769,Experiment_English,3.2.4,MacIntel,60,,,1,0,340,224,1,339,ratio32_3_5_10.png,,,,,,,,,,,,
,,,,,,,,,,,,All,Some,None,Many,Most,Few,Less than half,Half,More than half,0.018496094,0.010024414,1,0,0,QQQ5,,,,,,,,English,2020-07-02_03h15.45.769,Experiment_English,3.2.4,MacIntel,60,,,1,0,340,179,1,339,ratio21_12_18_8.png,,,,,,,,,,,,
,,,,,,,,,,,,Few,Less than half,Some,Most,Half,All,Many,More than half,None,-0.049243164,0.262749023,1,0,0,QQQ4,,,,,,,,English,2020-07-02_03h15.45.769,Experiment_English,3.2.4,MacIntel,60,,,1,0,340,262,1,339,ratio41_4_5_4.png,0.356894531,-0.370385742,1,0,0,continue_button_pause,1,0,1,0,1,0
,,,,,,,,,,,,,,,,,,,,,,,,,,,,,,,,,,English,2020-07-02_03h15.45.769,Experiment_English,3.2.4,MacIntel,60,,,1,0,340,262,1,339,ratio41_4_5_4.png,,,,,,,,,,,,
,,,,,,,,,,,,Many,Less than half,None,Half,Few,Most,Some,All,More than half,-0.102905273,-0.229101562,1,0,0,QQQ6,,,,,,,,English,2020-07-02_03h15.45.769,Experiment_English,3.2.4,MacIntel,60,,,1,0,340,300,1,339,ratio51_5_6_1.png,,,,,,,,,,,,
,,,,,,,,,,,,More than half,Half,All,Less than half,Few,Most,None,Some,Many,0.418500977,0.244208984,1,0,0,QQQ1,,,,,,,,English,2020-07-02_03h15.45.769,Experiment_English,3.2.4,MacIntel,60,,,1,0,340,284,1,339,ratio43_4_7_11.png,,,,,,,,,,,,
,,,,,,,,,,,,Most,Few,Half,All,None,More than half,Some,Less than half,Many,0.034257812,0.032211914,1,0,0,QQQ5,,,,,,,,English,2020-07-02_03h15.45.769,Experiment_English,3.2.4,MacIntel,60,,,1,0,340,72,1,339,ratio0Y_0_13_4.png,,,,,,,,,,,,
,,,,,,,,,,,,All,None,Few,More than half,Most,Half,Some,Many,Less than half,-0.037773437,0.031347656,1,0,0,QQQ5,,,,,,,,English,2020-07-02_03h15.45.769,Experiment_English,3.2.4,MacIntel,60,,,1,0,340,23,1,339,ratio11_3_6_9.png,,,,,,,,,,,,
,,,,,,,,,,,,All,Many,Most,Few,None,Half,Less than half,More than half,Some,0.431147461,-0.310395508,1,0,0,QQQ3,,,,,,,,English,2020-07-02_03h15.45.769,Experiment_English,3.2.4,MacIntel,60,,,1,0,340,211,1,339,ratio31_9_12_10.png,,,,,,,,,,,,
,,,,,,,,,,,,Most,All,Half,Many,None,Some,Few,Less than half,More than half,0.46519043,0.29234375,1,0,0,QQQ1,,,,,,,,English,2020-07-02_03h15.45.769,Experiment_English,3.2.4,MacIntel,60,,,1,0,340,335,1,339,ratio91_18_20_11.png,,,,,,,,,,,,
,,,,,,,,,,,,All,Some,None,Half,Few,More than half,Many,Less than half,Most,0.488427734,-0.004501953,1,0,0,QQQ2,,,,,,,,English,2020-07-02_03h15.45.769,Experiment_English,3.2.4,MacIntel,60,,,1,0,340,195,1,339,ratio23_8_20_1.png,,,,,,,,,,,,
,,,,,,,,,,,,Some,None,Less than half,All,Half,Most,Many,Few,More than half,-0.545048828,0.017211914,1,0,0,QQQ8,,,,,,,,English,2020-07-02_03h15.45.769,Experiment_English,3.2.4,MacIntel,60,,,1,0,340,0,1,339,ratio12_1_3_3.png,,,,,,,,,,,,
,,,,,,,,,,,,None,Most,Few,More than half,Half,Less than half,All,Many,Some,0.434858398,-0.004448242,1,0,0,QQQ2,,,,,,,,English,2020-07-02_03h15.45.769,Experiment_English,3.2.4,MacIntel,60,,,1,0,340,314,1,339,ratio51_15_18_4.png,,,,,,,,,,,,
,,,,,,,,,,,,More than half,Less than half,None,Most,Many,Some,Few,Half,All,0.023745117,-0.298393555,1,0,0,QQQ6,,,,,,,,English,2020-07-02_03h15.45.769,Experiment_English,3.2.4,MacIntel,60,,,1,0,340,117,1,339,ratio14_4_20_6.png,,,,,,,,,,,,
,,,,,,,,,,,,Many,All,Less than half,Few,Half,None,Most,More than half,Some,-0.588525391,-0.290356445,1,0,0,QQQ9,,,,,,,,English,2020-07-02_03h15.45.769,Experiment_English,3.2.4,MacIntel,60,,,1,0,340,142,1,339,ratio19_1_10_6.png,,,,,,,,,,,,
,,,,,,,,,,,,Many,Most,Half,Few,All,More than half,Some,None,Less than half,-0.030585938,0.338413086,1,0,0,QQQ4,,,,,,,,English,2020-07-02_03h15.45.769,Experiment_English,3.2.4,MacIntel,60,,,1,0,340,109,1,339,ratio14_2_10_9.png,,,,,,,,,,,,
,,,,,,,,,,,,Most,Some,All,Less than half,Few,None,More than half,Many,Half,0.011533203,-0.038393555,1,0,0,QQQ5,,,,,,,,English,2020-07-02_03h15.45.769,Experiment_English,3.2.4,MacIntel,60,,,1,0,340,3,1,339,ratio12_2_6_3.png,,,,,,,,,,,,
,,,,,,,,,,,,Many,Some,Most,Less than half,None,Half,All,More than half,Few,0.069287109,-0.276352539,1,0,0,QQQ6,,,,,,,,English,2020-07-02_03h15.45.769,Experiment_English,3.2.4,MacIntel,60,,,1,0,340,39,1,339,ratio11_10_20_6.png,,,,,,,,,,,,
,,,,,,,,,,,,Less than half,Few,Half,More than half,Some,Many,None,All,Most,-0.360668945,-0.304658203,1,0,0,QQQ9,,,,,,,,English,2020-07-02_03h15.45.769,Experiment_English,3.2.4,MacIntel,60,,,1,0,340,273,1,339,ratio41_12_15_8.png,,,,,,,,,,,,
,,,,,,,,,,,,Few,Most,All,Less than half,Many,Some,More than half,None,Half,0.406474609,0.268320312,1,0,0,QQQ1,,,,,,,,English,2020-07-02_03h15.45.769,Experiment_English,3.2.4,MacIntel,60,,,1,0,340,7,1,339,ratio12_3_9_2.png,,,,,,,,,,,,
,,,,,,,,,,,,Half,Few,Less than half,Most,More than half,Some,All,Many,None,0.062998047,0.286503906,1,0,0,QQQ4,,,,,,,,English,2020-07-02_03h15.45.769,Experiment_English,3.2.4,MacIntel,60,,,1,0,340,201,1,339,ratio31_3_4_7.png,,,,,,,,,,,,
,,,,,,,,,,,,All,Few,None,More than half,Many,Less than half,Most,Some,Half,-0.481635742,0.084536133,1,0,0,QQQ8,,,,,,,,English,2020-07-02_03h15.45.769,Experiment_English,3.2.4,MacIntel,60,,,1,0,340,90,1,339,ratio13_3_12_7.png,,,,,,,,,,,,
,,,,,,,,,,,,Less than half,All,Most,Few,Half,None,Some,Many,More than half,0.442617188,-0.256904297,1,0,0,QQQ3,,,,,,,,English,2020-07-02_03h15.45.769,Experiment_English,3.2.4,MacIntel,60,,,1,0,340,264,1,339,ratio41_4_5_6.png,,,,,,,,,,,,
,,,,,,,,,,,,Few,More than half,None,Many,Some,Most,Half,All,Less than half,-0.416308594,-0.282788086,1,0,0,QQQ9,,,,,,,,English,2020-07-02_03h15.45.769,Experiment_English,3.2.4,MacIntel,60,,,1,0,340,35,1,339,ratio11_8_16_10.png,,,,,,,,,,,,
,,,,,,,,,,,,Some,Most,Less than half,Many,Half,Few,None,More than half,All,0.027807617,-0.34699707,1,0,0,QQQ6,,,,,,,,English,2020-07-02_03h15.45.769,Experiment_English,3.2.4,MacIntel,60,,,1,0,340,149,1,339,ratio19_1_10_20.png,,,,,,,,,,,,
,,,,,,,,,,,,Many,Less than half,All,Few,Half,More than half,Some,None,Most,0.47203125,0.004477539,1,0,0,QQQ2,,,,,,,,English,2020-07-02_03h15.45.769,Experiment_English,3.2.4,MacIntel,60,,,1,0,340,255,1,339,ratio34_6_14_10.png,,,,,,,,,,,,
,,,,,,,,,,,,More than half,Some,Less than half,Few,Half,Most,Many,All,None,-0.042470703,0.311845703,1,0,0,QQQ4,,,,,,,,English,2020-07-02_03h15.45.769,Experiment_English,3.2.4,MacIntel,60,,,1,0,340,140,1,339,ratio19_1_10_1.png,,,,,,,,,,,,
,,,,,,,,,,,,More than half,All,Less than half,Half,Some,Most,Few,Many,None,0.468408203,-0.237890625,1,0,0,QQQ3,,,,,,,,English,2020-07-02_03h15.45.769,Experiment_English,3.2.4,MacIntel,60,,,1,0,340,196,1,339,ratio23_8_20_5.png,,,,,,,,,,,,
,,,,,,,,,,,,Few,More than half,Some,None,Less than half,All,Many,Most,Half,0.040517578,0.045014648,1,0,0,QQQ5,,,,,,,,English,2020-07-02_03h15.45.769,Experiment_English,3.2.4,MacIntel,60,,,1,0,340,171,1,339,ratio21_8_12_4.png,,,,,,,,,,,,
,,,,,,,,,,,,None,Few,All,Some,Many,Most,Half,Less than half,More than half,0.429223633,-0.337543945,1,0,0,QQQ3,,,,,,,,English,2020-07-02_03h15.45.769,Experiment_English,3.2.4,MacIntel,60,,,1,0,340,46,1,339,ratioX0_9_9_3.png,,,,,,,,,,,,
,,,,,,,,,,,,Most,None,Many,Less than half,All,Half,Some,More than half,Few,-0.457495117,0.27359375,1,0,0,QQQ7,,,,,,,,English,2020-07-02_03h15.45.769,Experiment_English,3.2.4,MacIntel,60,,,1,0,340,88,1,339,ratio13_3_12_5.png,,,,,,,,,,,,
,,,,,,,,,,,,Most,Some,Less than half,More than half,None,Half,Many,Few,All,0.386879883,0.332700195,1,0,0,QQQ1,,,,,,,,English,2020-07-02_03h15.45.769,Experiment_English,3.2.4,MacIntel,60,,,1,0,340,276,1,339,ratio41_16_20_4.png,,,,,,,,,,,,
,,,,,,,,,,,,Most,Many,Some,Half,Few,All,None,More than half,Less than half,-0.424321289,-0.254379883,1,0,0,QQQ9,,,,,,,,English,2020-07-02_03h15.45.769,Experiment_English,3.2.4,MacIntel,60,,,1,0,340,293,1,339,ratio43_8_14_7.png,,,,,,,,,,,,
,,,,,,,,,,,,Half,More than half,Most,Many,All,Less than half,None,Some,Few,0.412470703,-0.268618164,1,0,0,QQQ3,,,,,,,,English,2020-07-02_03h15.45.769,Experiment_English,3.2.4,MacIntel,60,,,1,0,340,336,1,339,ratio91_18_20_12.png,,,,,,,,,,,,
,,,,,,,,,,,,Half,Few,Some,None,Most,More than half,All,Many,Less than half,-0.060146484,0.005605469,1,0,0,QQQ5,,,,,,,,English,2020-07-02_03h15.45.769,Experiment_English,3.2.4,MacIntel,60,,,1,0,340,323,1,339,ratio91_9_10_5.png,,,,,,,,,,,,
,,,,,,,,,,,,All,Few,Half,Less than half,None,Most,Some,Many,More than half,0.455986328,-0.061806641,1,0,0,QQQ2,,,,,,,,English,2020-07-02_03h15.45.769,Experiment_English,3.2.4,MacIntel,60,,,1,0,340,183,1,339,ratio23_2_5_9.png,,,,,,,,,,,,
,,,,,,,,,,,,All,Half,More than half,None,Few,Most,Many,Less than half,Some,0.005791016,-0.385639648,1,0,0,QQQ6,,,,,,,,English,2020-07-02_03h15.45.769,Experiment_English,3.2.4,MacIntel,60,,,1,0,340,304,1,339,ratio51_5_6_13.png,,,,,,,,,,,,
,,,,,,,,,,,,Half,All,Most,None,Less than half,Few,Many,More than half,Some,0.458867187,-0.326518555,1,0,0,QQQ3,,,,,,,,English,2020-07-02_03h15.45.769,Experiment_English,3.2.4,MacIntel,60,,,1,0,340,166,1,339,ratio21_6_9_1.png,0.421523437,-0.38855957,1,0,0,continue_button_pause,1,0,1,0,1,0
,,,,,,,,,,,,,,,,,,,,,,,,,,,,,,,,,,English,2020-07-02_03h15.45.769,Experiment_English,3.2.4,MacIntel,60,,,1,0,340,166,1,339,ratio21_6_9_1.png,,,,,,,,,,,,
,,,,,,,,,,,,Less than half,Half,Few,Many,None,More than half,All,Most,Some,0.496210938,-0.025698242,1,0,0,QQQ2,,,,,,,,English,2020-07-02_03h15.45.769,Experiment_English,3.2.4,MacIntel,60,,,1,0,340,282,1,339,ratio43_4_7_7.png,,,,,,,,,,,,
,,,,,,,,,,,,Most,Less than half,All,Some,More than half,Few,Many,Half,None,0.39715332,0.290961914,1,0,0,QQQ1,,,,,,,,English,2020-07-02_03h15.45.769,Experiment_English,3.2.4,MacIntel,60,,,1,0,340,164,1,339,ratio21_4_6_6.png,,,,,,,,,,,,
,,,,,,,,,,,,Less than half,Most,Half,Some,Many,None,All,Few,More than half,0.493500977,-0.045185547,1,0,0,QQQ2,,,,,,,,English,2020-07-02_03h15.45.769,Experiment_English,3.2.4,MacIntel,60,,,1,0,340,328,1,339,ratio91_9_10_15.png,,,,,,,,,,,,
,,,,,,,,,,,,None,Many,Half,Most,Less than half,Few,More than half,Some,All,0.493500977,-0.045185547,1,0,0,QQQ2,,,,,,,,English,2020-07-02_03h15.45.769,Experiment_English,3.2.4,MacIntel,60,,,1,0,340,247,1,339,ratio34_3_7_12.png,,,,,,,,,,,,
,,,,,,,,,,,,Less than half,None,More than half,Most,Many,Half,All,Few,Some,0.515766602,0.012211914,1,0,0,QQQ2,,,,,,,,English,2020-07-02_03h15.45.769,Experiment_English,3.2.4,MacIntel,60,,,1,0,340,71,1,339,ratio0Y_0_12_10.png,,,,,,,,,,,,
,,,,,,,,,,,,More than half,Many,None,Few,Most,Some,All,Less than half,Half,0.081308594,-0.058540039,1,0,0,QQQ5,,,,,,,,English,2020-07-02_03h15.45.769,Experiment_English,3.2.4,MacIntel,60,,,1,0,340,287,1,339,ratio43_4_7_17.png,,,,,,,,,,,,
,,,,,,,,,,,,Most,More than half,None,All,Few,Many,Less than half,Half,Some,0.437763672,0.297529297,1,0,0,QQQ1,,,,,,,,English,2020-07-02_03h15.45.769,Experiment_English,3.2.4,MacIntel,60,,,1,0,340,260,1,339,ratio41_4_5_2.png,,,,,,,,,,,,
,,,,,,,,,,,,None,Less than half,More than half,Most,Many,Some,Few,All,Half,0.410839844,-0.02152832,1,0,0,QQQ2,,,,,,,,English,2020-07-02_03h15.45.769,Experiment_English,3.2.4,MacIntel,60,,,1,0,340,186,1,339,ratio23_4_10_2.png,,,,,,,,,,,,
,,,,,,,,,,,,More than half,Few,Less than half,Half,Many,Some,Most,All,None,0.05128418,0.316293945,1,0,0,QQQ4,,,,,,,,English,2020-07-02_03h15.45.769,Experiment_English,3.2.4,MacIntel,60,,,1,0,340,286,1,339,ratio43_4_7_15.png,,,,,,,,,,,,
,,,,,,,,,,,,Many,Less than half,All,More than half,None,Some,Half,Few,Most,0.035498047,0.327402344,1,0,0,QQQ4,,,,,,,,English,2020-07-02_03h15.45.769,Experiment_English,3.2.4,MacIntel,60,,,1,0,340,283,1,339,ratio43_4_7_8.png,,,,,,,,,,,,
,,,,,,,,,,,,All,Few,Half,Less than half,More than half,Some,Most,None,Many,0.051337891,-0.016391602,1,0,0,QQQ5,,,,,,,,English,2020-07-02_03h15.45.769,Experiment_English,3.2.4,MacIntel,60,,,1,0,340,170,1,339,ratio21_6_9_8.png,,,,,,,,,,,,
,,,,,,,,,,,,Many,Less than half,None,Most,Few,Half,More than half,All,Some,-0.544272461,-0.26949707,1,0,0,QQQ9,,,,,,,,English,2020-07-02_03h15.45.769,Experiment_English,3.2.4,MacIntel,60,,,1,0,340,12,1,339,ratio12_4_12_10.png,,,,,,,,,,,,
,,,,,,,,,,,,Many,Few,Less than half,More than half,Half,All,Most,None,Some,0.068540039,-0.319897461,1,0,0,QQQ6,,,,,,,,English,2020-07-02_03h15.45.769,Experiment_English,3.2.4,MacIntel,60,,,1,0,340,55,1,339,ratioX0_16_16_3.png,,,,,,,,,,,,
,,,,,,,,,,,,Few,Many,None,All,More than half,Most,Half,Some,Less than half,-0.028071289,0.016210938,1,0,0,QQQ5,,,,,,,,English,2020-07-02_03h15.45.769,Experiment_English,3.2.4,MacIntel,60,,,1,0,340,221,1,339,ratio32_3_5_3.png,,,,,,,,,,,,
,,,,,,,,,,,,All,Few,Many,Some,Half,More than half,Most,None,Less than half,0.067182617,0.304057617,1,0,0,QQQ4,,,,,,,,English,2020-07-02_03h15.45.769,Experiment_English,3.2.4,MacIntel,60,,,1,0,340,99,1,339,ratio13_5_20_4.png,,,,,,,,,,,,
,,,,,,,,,,,,Less than half,All,Few,None,Most,More than half,Some,Many,Half,-0.518271484,0.312094727,1,0,0,QQQ7,,,,,,,,English,2020-07-02_03h15.45.769,Experiment_English,3.2.4,MacIntel,60,,,1,0,340,97,1,339,ratio13_5_20_2.png,,,,,,,,,,,,
,,,,,,,,,,,,Few,Less than half,Some,Half,Many,More than half,All,Most,None,0.521181641,-0.353227539,1,0,0,QQQ3,,,,,,,,English,2020-07-02_03h15.45.769,Experiment_English,3.2.4,MacIntel,60,,,1,0,340,18,1,339,ratio12_6_18_7.png,,,,,,,,,,,,
,,,,,,,,,,,,All,More than half,Less than half,Most,None,Few,Many,Half,Some,-0.3815625,0.094702148,1,0,0,QQQ8,,,,,,,,English,2020-07-02_03h15.45.769,Experiment_English,3.2.4,MacIntel,60,,,1,0,340,28,1,339,ratio11_5_10_9.png,,,,,,,,,,,,
,,,,,,,,,,,,Half,Some,More than half,Less than half,All,Most,Many,None,Few,0.055131836,-0.306459961,1,0,0,QQQ6,,,,,,,,English,2020-07-02_03h15.45.769,Experiment_English,3.2.4,MacIntel,60,,,1,0,340,279,1,339,ratio41_16_20_10.png,,,,,,,,,,,,
,,,,,,,,,,,,Many,More than half,Less than half,Some,Half,None,Most,Few,All,-0.443237305,0.285673828,1,0,0,QQQ7,,,,,,,,English,2020-07-02_03h15.45.769,Experiment_English,3.2.4,MacIntel,60,,,1,0,340,252,1,339,ratio34_6_14_3.png,,,,,,,,,,,,
,,,,,,,,,,,,None,Few,All,Less than half,Many,Some,More than half,Half,Most,-0.45902832,-0.297446289,1,0,0,QQQ9,,,,,,,,English,2020-07-02_03h15.45.769,Experiment_English,3.2.4,MacIntel,60,,,1,0,340,219,1,339,ratio31_15_20_10.png,,,,,,,,,,,,
,,,,,,,,,,,,Most,Some,Half,Less than half,All,Few,None,More than half,Many,0.486142578,0.288764648,1,0,0,QQQ1,,,,,,,,English,2020-07-02_03h15.45.769,Experiment_English,3.2.4,MacIntel,60,,,1,0,340,200,1,339,ratio31_3_4_4.png,,,,,,,,,,,,
,,,,,,,,,,,,Some,Most,None,Less than half,Few,All,Many,Half,More than half,-0.443183594,-0.337397461,1,0,0,QQQ9,,,,,,,,English,2020-07-02_03h15.45.769,Experiment_English,3.2.4,MacIntel,60,,,1,0,340,290,1,339,ratio43_8_14_3.png,,,,,,,,,,,,
,,,,,,,,,,,,Few,Some,Half,None,All,Less than half,More than half,Many,Most,-0.387114258,-0.291948242,1,0,0,QQQ9,,,,,,,,English,2020-07-02_03h15.45.769,Experiment_English,3.2.4,MacIntel,60,,,1,0,340,48,1,339,ratioX0_10_10_1.png,,,,,,,,,,,,
,,,,,,,,,,,,All,More than half,Some,Many,Less than half,Few,Half,None,Most,-0.387114258,-0.291948242,1,0,0,QQQ9,,,,,,,,English,2020-07-02_03h15.45.769,Experiment_English,3.2.4,MacIntel,60,,,1,0,340,27,1,339,ratio11_5_10_7.png,,,,,,,,,,,,
,,,,,,,,,,,,Many,Most,Less than half,Some,More than half,All,None,Few,Half,0.010209961,-0.269331055,1,0,0,QQQ6,,,,,,,,English,2020-07-02_03h15.45.769,Experiment_English,3.2.4,MacIntel,60,,,1,0,340,41,1,339,ratioX0_4_4_9.png,,,,,,,,,,,,
,,,,,,,,,,,,Less than half,More than half,Few,Some,Half,None,Most,All,Many,0.026210937,0.255708008,1,0,0,QQQ4,,,,,,,,English,2020-07-02_03h15.45.769,Experiment_English,3.2.4,MacIntel,60,,,1,0,340,114,1,339,ratio14_3_15_10.png,,,,,,,,,,,,
,,,,,,,,,,,,More than half,Half,Some,Few,Many,All,Most,Less than half,None,0.026210937,0.255708008,1,0,0,QQQ4,,,,,,,,English,2020-07-02_03h15.45.769,Experiment_English,3.2.4,MacIntel,60,,,1,0,340,159,1,339,ratio19_2_20_20.png,,,,,,,,,,,,
,,,,,,,,,,,,Half,None,Some,More than half,Less than half,Few,Most,Many,All,0.064423828,-0.039868164,1,0,0,QQQ5,,,,,,,,English,2020-07-02_03h15.45.769,Experiment_English,3.2.4,MacIntel,60,,,1,0,340,244,1,339,ratio34_3_7_9.png,,,,,,,,,,,,
,,,,,,,,,,,,None,Less than half,All,More than half,Half,Many,Most,Some,Few,0.36980957,0.043886719,1,0,0,QQQ2,,,,,,,,English,2020-07-02_03h15.45.769,Experiment_English,3.2.4,MacIntel,60,,,1,0,340,24,1,339,ratio11_4_8_3.png,,,,,,,,,,,,
,,,,,,,,,,,,All,Few,Many,Some,Most,None,More than half,Less than half,Half,-0.464736328,-0.020209961,1,0,0,QQQ8,,,,,,,,English,2020-07-02_03h15.45.769,Experiment_English,3.2.4,MacIntel,60,,,1,0,340,246,1,339,ratio34_3_7_11.png,,,,,,,,,,,,
,,,,,,,,,,,,Few,Many,None,Half,Most,Some,More than half,Less than half,All,0.067529297,0.052358398,1,0,0,QQQ5,,,,,,,,English,2020-07-02_03h15.45.769,Experiment_English,3.2.4,MacIntel,60,,,1,0,340,339,1,339,ratio91_18_20_19.png,,,,,,,,,,,,
,,,,,,,,,,,,More than half,Some,Many,Most,Few,All,None,Half,Less than half,-0.086137695,0.012412109,1,0,0,QQQ5,,,,,,,,English,2020-07-02_03h15.45.769,Experiment_English,3.2.4,MacIntel,60,,,1,0,340,86,1,339,ratio13_2_8_6.png,,,,,,,,,,,,
,,,,,,,,,,,,Some,Half,More than half,Most,Less than half,Few,None,Many,All,0.433535156,-0.06184082,1,0,0,QQQ2,,,,,,,,English,2020-07-02_03h15.45.769,Experiment_English,3.2.4,MacIntel,60,,,1,0,340,207,1,339,ratio31_6_8_9.png,0.295932617,-0.375727539,1,0,0,continue_button_pause,1,0,1,0,1,0
,,,,,,,,,,,,,,,,,,,,,,,,,,,,,,,,,,English,2020-07-02_03h15.45.769,Experiment_English,3.2.4,MacIntel,60,,,1,0,340,207,1,339,ratio31_6_8_9.png,,,,,,,,,,,,
,,,,,,,,,,,,None,Less than half,Half,More than half,Some,Many,All,Most,Few,-0.52550293,-0.286025391,1,0,0,QQQ9,,,,,,,,English,2020-07-02_03h15.45.769,Experiment_English,3.2.4,MacIntel,60,,,1,0,340,128,1,339,ratio15_2_12_8.png,,,,,,,,,,,,
,,,,,,,,,,,,More than half,Most,All,Many,None,Some,Half,Less than half,Few,0.427426758,0.227763672,1,0,0,QQQ1,,,,,,,,English,2020-07-02_03h15.45.769,Experiment_English,3.2.4,MacIntel,60,,,1,0,340,235,1,339,ratio32_12_20_1.png,,,,,,,,,,,,
,,,,,,,,,,,,None,Half,More than half,Many,Few,All,Some,Most,Less than half,-0.552441406,-0.014477539,1,0,0,QQQ8,,,,,,,,English,2020-07-02_03h15.45.769,Experiment_English,3.2.4,MacIntel,60,,,1,0,340,271,1,339,ratio41_12_15_6.png,,,,,,,,,,,,
,,,,,,,,,,,,Half,None,Less than half,Many,All,More than half,Few,Most,Some,-0.395996094,-0.266333008,1,0,0,QQQ9,,,,,,,,English,2020-07-02_03h15.45.769,Experiment_English,3.2.4,MacIntel,60,,,1,0,340,148,1,339,ratio19_1_10_19.png,,,,,,,,,,,,
,,,,,,,,,,,,Few,Some,Less than half,More than half,Half,None,Many,Most,All,-0.038623047,-0.303505859,1,0,0,QQQ6,,,,,,,,English,2020-07-02_03h15.45.769,Experiment_English,3.2.4,MacIntel,60,,,1,0,340,64,1,339,ratio0Y_0_7_1.png,,,,,,,,,,,,
,,,,,,,,,,,,Few,Most,Some,None,Many,Half,All,More than half,Less than half,0.521416016,0.014829102,1,0,0,QQQ2,,,,,,,,English,2020-07-02_03h15.45.769,Experiment_English,3.2.4,MacIntel,60,,,1,0,340,206,1,339,ratio31_6_8_6.png,,,,,,,,,,,,
,,,,,,,,,,,,Few,All,Many,Half,Less than half,Most,Some,None,More than half,0.005043945,0.24362793,1,0,0,QQQ4,,,,,,,,English,2020-07-02_03h15.45.769,Experiment_English,3.2.4,MacIntel,60,,,1,0,340,37,1,339,ratio11_9_18_8.png,,,,,,,,,,,,
,,,,,,,,,,,,None,More than half,All,Few,Half,Some,Many,Most,Less than half,0.424897461,-0.347363281,1,0,0,QQQ3,,,,,,,,English,2020-07-02_03h15.45.769,Experiment_English,3.2.4,MacIntel,60,,,1,0,340,51,1,339,ratioX0_12_12_9.png,,,,,,,,,,,,
,,,,,,,,,,,,None,Many,All,Half,Few,Some,Most,Less than half,More than half,0.057607422,0.030361328,1,0,0,QQQ5,,,,,,,,English,2020-07-02_03h15.45.769,Experiment_English,3.2.4,MacIntel,60,,,1,0,340,105,1,339,ratio14_2_10_1.png,,,,,,,,,,,,
,,,,,,,,,,,,Half,Few,More than half,All,Less than half,Some,None,Many,Most,0.038608398,-0.311274414,1,0,0,QQQ6,,,,,,,,English,2020-07-02_03h15.45.769,Experiment_English,3.2.4,MacIntel,60,,,1,0,340,13,1,339,ratio12_5_15_3.png,,,,,,,,,,,,
,,,,,,,,,,,,Few,Half,Most,Some,All,Less than half,Many,None,More than half,0.567202148,-0.015893555,1,0,0,QQQ2,,,,,,,,English,2020-07-02_03h15.45.769,Experiment_English,3.2.4,MacIntel,60,,,1,0,340,8,1,339,ratio12_3_9_4.png,,,,,,,,,,,,
,,,,,,,,,,,,Most,All,Half,Some,More than half,Few,Less than half,Many,None,0.496694336,0.295991211,1,0,0,QQQ1,,,,,,,,English,2020-07-02_03h15.45.769,Experiment_English,3.2.4,MacIntel,60,,,1,0,340,272,1,339,ratio41_12_15_7.png,,,,,,,,,,,,
,,,,,,,,,,,,Half,More than half,Many,None,Some,Most,Less than half,Few,All,0.03168457,0.051083984,1,0,0,QQQ5,,,,,,,,English,2020-07-02_03h15.45.769,Experiment_English,3.2.4,MacIntel,60,,,1,0,340,317,1,339,ratio51_15_18_13.png,,,,,,,,,,,,
,,,,,,,,,,,,Less than half,All,Some,More than half,Most,Many,None,Few,Half,-0.100307617,0.010859375,1,0,0,QQQ5,,,,,,,,English,2020-07-02_03h15.45.769,Experiment_English,3.2.4,MacIntel,60,,,1,0,340,325,1,339,ratio91_9_10_8.png,,,,,,,,,,,,
,,,,,,,,,,,,Few,All,Many,Half,More than half,Less than half,Some,None,Most,-0.063452148,-0.046079102,1,0,0,QQQ5,,,,,,,,English,2020-07-02_03h15.45.769,Experiment_English,3.2.4,MacIntel,60,,,1,0,340,240,1,339,ratio34_3_7_4.png,,,,,,,,,,,,
,,,,,,,,,,,,More than half,Most,Less than half,Many,All,Some,Few,None,Half,0.492089844,-0.007485352,1,0,0,QQQ2,,,,,,,,English,2020-07-02_03h15.45.769,Experiment_English,3.2.4,MacIntel,60,,,1,0,340,208,1,339,ratio31_9_12_3.png,,,,,,,,,,,,
,,,,,,,,,,,,Few,Many,More than half,Most,All,Some,Half,None,Less than half,0.492089844,-0.008837891,1,0,0,QQQ2,,,,,,,,English,2020-07-02_03h15.45.769,Experiment_English,3.2.4,MacIntel,60,,,1,0,340,297,1,339,ratio43_8_14_13.png,,,,,,,,,,,,
,,,,,,,,,,,,Some,None,Most,Less than half,All,More than half,Many,Few,Half,0.545249023,-0.306948242,1,0,0,QQQ3,,,,,,,,English,2020-07-02_03h15.45.769,Experiment_English,3.2.4,MacIntel,60,,,1,0,340,215,1,339,ratio31_12_16_8.png,,,,,,,,,,,,
,,,,,,,,,,,,Half,None,Less than half,All,Some,More than half,Many,Few,Most,0.093754883,-0.275800781,1,0,0,QQQ6,,,,,,,,English,2020-07-02_03h15.45.769,Experiment_English,3.2.4,MacIntel,60,,,1,0,340,280,1,339,ratio43_4_7_2.png,,,,,,,,,,,,
,,,,,,,,,,,,Most,All,More than half,Some,Many,None,Few,Half,Less than half,-0.150708008,0.237475586,1,0,0,QQQ4,,,,,,,,English,2020-07-02_03h15.45.769,Experiment_English,3.2.4,MacIntel,60,,,1,0,340,129,1,339,ratio15_2_12_9.png,,,,,,,,,,,,
,,,,,,,,,,,,More than half,Many,Most,Some,None,Half,All,Less than half,Few,0.530078125,-0.288393555,1,0,0,QQQ3,,,,,,,,English,2020-07-02_03h15.45.769,Experiment_English,3.2.4,MacIntel,60,,,1,0,340,329,1,339,ratio91_9_10_20.png,,,,,,,,,,,,
,,,,,,,,,,,,None,Few,Most,Many,All,More than half,Some,Half,Less than half,0.472695313,-0.026655273,1,0,0,QQQ2,,,,,,,,English,2020-07-02_03h15.45.769,Experiment_English,3.2.4,MacIntel,60,,,1,0,340,157,1,339,ratio19_2_20_16.png,,,,,,,,,,,,
,,,,,,,,,,,,Few,Most,Half,Some,Less than half,Many,None,More than half,All,0.057568359,0.302426758,1,0,0,QQQ4,,,,,,,,English,2020-07-02_03h15.45.769,Experiment_English,3.2.4,MacIntel,60,,,1,0,340,145,1,339,ratio19_1_10_15.png,,,,,,,,,,,,
,,,,,,,,,,,,Many,Some,Half,Most,Less than half,More than half,None,All,Few,0.052353516,-0.247485352,1,0,0,QQQ6,,,,,,,,English,2020-07-02_03h15.45.769,Experiment_English,3.2.4,MacIntel,60,,,1,0,340,222,1,339,ratio32_3_5_4.png,,,,,,,,,,,,
,,,,,,,,,,,,Many,None,All,Half,Less than half,Some,Few,Most,More than half,-0.478422852,0.070493164,1,0,0,QQQ8,,,,,,,,English,2020-07-02_03h15.45.769,Experiment_English,3.2.4,MacIntel,60,,,1,0,340,305,1,339,ratio51_5_6_14.png,,,,,,,,,,,,
,,,,,,,,,,,,Few,All,More than half,Most,None,Many,Half,Less than half,Some,-0.485268555,-0.013720703,1,0,0,QQQ8,,,,,,,,English,2020-07-02_03h15.45.769,Experiment_English,3.2.4,MacIntel,60,,,1,0,340,242,1,339,ratio34_3_7_6.png,,,,,,,,,,,,
,,,,,,,,,,,,Most,Less than half,Half,Many,None,Few,Some,All,More than half,-0.020639648,-0.073647461,1,0,0,QQQ5,,,,,,,,English,2020-07-02_03h15.45.769,Experiment_English,3.2.4,MacIntel,60,,,1,0,340,70,1,339,ratio0Y_0_12_5.png,,,,,,,,,,,,
,,,,,,,,,,,,Many,Few,None,Less than half,More than half,Most,All,Half,Some,-0.046259766,0.256054687,1,0,0,QQQ4,,,,,,,,English,2020-07-02_03h15.45.769,Experiment_English,3.2.4,MacIntel,60,,,1,0,340,257,1,339,ratio34_6_14_12.png,,,,,,,,,,,,
,,,,,,,,,,,,Half,More than half,Some,Few,None,Less than half,Many,All,Most,-0.368022461,-0.328857422,1,0,0,QQQ9,,,,,,,,English,2020-07-02_03h15.45.769,Experiment_English,3.2.4,MacIntel,60,,,1,0,340,311,1,339,ratio51_10_12_14.png,,,,,,,,,,,,
,,,,,,,,,,,,None,Less than half,Some,Half,Few,Many,Most,More than half,All,-0.461938477,0.301674805,1,0,0,QQQ7,,,,,,,,English,2020-07-02_03h15.45.769,Experiment_English,3.2.4,MacIntel,60,,,1,0,340,217,1,339,ratio31_15_20_5.png,,,,,,,,,,,,
,,,,,,,,,,,,Most,Many,All,More than half,Less than half,Some,Few,Half,None,-0.506503906,-0.293662109,1,0,0,QQQ9,,,,,,,,English,2020-07-02_03h15.45.769,Experiment_English,3.2.4,MacIntel,60,,,1,0,340,69,1,339,ratio0Y_0_11_6.png,,,,,,,,,,,,
,,,,,,,,,,,,Half,More than half,Many,All,Few,None,Most,Less than half,Some,-0.031982422,-0.003828125,1,0,0,QQQ5,,,,,,,,English,2020-07-02_03h15.45.769,Experiment_English,3.2.4,MacIntel,60,,,1,0,340,146,1,339,ratio19_1_10_17.png,,,,,,,,,,,,
,,,,,,,,,,,,Some,Less than half,Few,All,Half,More than half,None,Most,Many,0.393408203,-0.004697266,1,0,0,QQQ2,,,,,,,,English,2020-07-02_03h15.45.769,Experiment_English,3.2.4,MacIntel,60,,,1,0,340,191,1,339,ratio23_6_15_7.png,,,,,,,,,,,,
,,,,,,,,,,,,More than half,Some,Half,Many,All,None,Less than half,Most,Few,0.59809082,-0.002197266,1,0,0,QQQ2,,,,,,,,English,2020-07-02_03h15.45.769,Experiment_English,3.2.4,MacIntel,60,,,1,0,340,103,1,339,ratio14_1_5_9.png,0.402685547,-0.397353516,1,0,0,continue_button_pause,1,0,1,0,1,0
,,,,,,,,,,,,,,,,,,,,,,,,,,,,,,,,,,English,2020-07-02_03h15.45.769,Experiment_English,3.2.4,MacIntel,60,,,1,0,340,103,1,339,ratio14_1_5_9.png,,,,,,,,,,,,
,,,,,,,,,,,,Few,Many,Less than half,Half,Most,More than half,None,Some,All,0.400776367,-0.297675781,1,0,0,QQQ3,,,,,,,,English,2020-07-02_03h15.45.769,Experiment_English,3.2.4,MacIntel,60,,,1,0,340,254,1,339,ratio34_6_14_9.png,,,,,,,,,,,,
,,,,,,,,,,,,Half,Less than half,All,Many,Few,Most,Some,None,More than half,0.422910156,-0.006992188,1,0,0,QQQ2,,,,,,,,English,2020-07-02_03h15.45.769,Experiment_English,3.2.4,MacIntel,60,,,1,0,340,241,1,339,ratio34_3_7_5.png,,,,,,,,,,,,
,,,,,,,,,,,,None,Most,Many,Some,More than half,Half,Less than half,All,Few,-0.541430664,0.218139648,1,0,0,QQQ7,,,,,,,,English,2020-07-02_03h15.45.769,Experiment_English,3.2.4,MacIntel,60,,,1,0,340,6,1,339,ratio12_3_9_1.png,,,,,,,,,,,,
,,,,,,,,,,,,More than half,Half,None,Less than half,Few,All,Most,Many,Some,-0.423730469,0.344545898,1,0,0,QQQ7,,,,,,,,English,2020-07-02_03h15.45.769,Experiment_English,3.2.4,MacIntel,60,,,1,0,340,214,1,339,ratio31_12_16_5.png,,,,,,,,,,,,
,,,,,,,,,,,,None,Many,Less than half,Some,Half,More than half,All,Few,Most,-0.097211914,0.222026367,1,0,0,QQQ4,,,,,,,,English,2020-07-02_03h15.45.769,Experiment_English,3.2.4,MacIntel,60,,,1,0,340,184,1,339,ratio23_2_5_10.png,,,,,,,,,,,,
,,,,,,,,,,,,Most,Less than half,Some,More than half,None,All,Many,Half,Few,-0.430166016,-0.296669922,1,0,0,QQQ9,,,,,,,,English,2020-07-02_03h15.45.769,Experiment_English,3.2.4,MacIntel,60,,,1,0,340,121,1,339,ratio15_1_6_4.png,,,,,,,,,,,,
,,,,,,,,,,,,None,Most,Some,Half,Less than half,Many,All,More than half,Few,0.362294922,-0.266640625,1,0,0,QQQ3,,,,,,,,English,2020-07-02_03h15.45.769,Experiment_English,3.2.4,MacIntel,60,,,1,0,340,11,1,339,ratio12_4_12_7.png,,,,,,,,,,,,
,,,,,,,,,,,,Few,None,More than half,Half,Many,Most,All,Less than half,Some,-0.367436523,-0.006049805,1,0,0,QQQ8,,,,,,,,English,2020-07-02_03h15.45.769,Experiment_English,3.2.4,MacIntel,60,,,1,0,340,197,1,339,ratio23_8_20_6.png,,,,,,,,,,,,
,,,,,,,,,,,,All,Most,None,Less than half,Half,Few,Many,Some,More than half,0.46527832,0.037241211,1,0,0,QQQ2,,,,,,,,English,2020-07-02_03h15.45.769,Experiment_English,3.2.4,MacIntel,60,,,1,0,340,269,1,339,ratio41_8_10_6.png,,,,,,,,,,,,
,,,,,,,,,,,,Half,Less than half,None,Some,Many,More than half,Few,Most,All,-0.020195312,0.335175781,1,0,0,QQQ4,,,,,,,,English,2020-07-02_03h15.45.769,Experiment_English,3.2.4,MacIntel,60,,,1,0,340,111,1,339,ratio14_3_15_3.png,,,,,,,,,,,,
,,,,,,,,,,,,Few,Most,Half,Some,More than half,All,None,Less than half,Many,-0.037998047,0.008081055,1,0,0,QQQ5,,,,,,,,English,2020-07-02_03h15.45.769,Experiment_English,3.2.4,MacIntel,60,,,1,0,340,231,1,339,ratio32_9_15_2.png,,,,,,,,,,,,
,,,,,,,,,,,,Some,Less than half,More than half,All,None,Half,Most,Many,Few,0.524423828,0.255029297,1,0,0,QQQ1,,,,,,,,English,2020-07-02_03h15.45.769,Experiment_English,3.2.4,MacIntel,60,,,1,0,340,151,1,339,ratio19_2_20_4.png,,,,,,,,,,,,
,,,,,,,,,,,,All,More than half,Less than half,Some,Many,None,Most,Half,Few,-0.051381836,-0.293686523,1,0,0,QQQ6,,,,,,,,English,2020-07-02_03h15.45.769,Experiment_English,3.2.4,MacIntel,60,,,1,0,340,66,1,339,ratio0Y_0_9_8.png,,,,,,,,,,,,
,,,,,,,,,,,,Less than half,Most,All,More than half,Many,Few,None,Half,Some,0.540014648,0.256499023,1,0,0,QQQ1,,,,,,,,English,2020-07-02_03h15.45.769,Experiment_English,3.2.4,MacIntel,60,,,1,0,340,230,1,339,ratio32_9_15_1.png,,,,,,,,,,,,
,,,,,,,,,,,,Some,All,Many,Most,None,More than half,Half,Few,Less than half,0.020712891,0.245527344,1,0,0,QQQ4,,,,,,,,English,2020-07-02_03h15.45.769,Experiment_English,3.2.4,MacIntel,60,,,1,0,340,315,1,339,ratio51_15_18_10.png,,,,,,,,,,,,
,,,,,,,,,,,,Few,Some,Half,Less than half,None,Most,More than half,Many,All,0.467973633,-0.026391602,1,0,0,QQQ2,,,,,,,,English,2020-07-02_03h15.45.769,Experiment_English,3.2.4,MacIntel,60,,,1,0,340,322,1,339,ratio91_9_10_3.png,,,,,,,,,,,,
,,,,,,,,,,,,Half,Less than half,More than half,Many,Most,Some,None,All,Few,-0.04637207,-0.041157227,1,0,0,QQQ5,,,,,,,,English,2020-07-02_03h15.45.769,Experiment_English,3.2.4,MacIntel,60,,,1,0,340,333,1,339,ratio91_18_20_6.png,,,,,,,,,,,,
,,,,,,,,,,,,Many,Some,None,Half,Less than half,Most,Few,All,More than half,-0.013422852,-0.021616211,1,0,0,QQQ5,,,,,,,,English,2020-07-02_03h15.45.769,Experiment_English,3.2.4,MacIntel,60,,,1,0,340,119,1,339,ratio14_4_20_10.png,,,,,,,,,,,,
,,,,,,,,,,,,Many,Few,Less than half,All,Most,Some,None,Half,More than half,-0.386757813,-0.292416992,1,0,0,QQQ9,,,,,,,,English,2020-07-02_03h15.45.769,Experiment_English,3.2.4,MacIntel,60,,,1,0,340,220,1,339,ratio32_3_5_1.png,,,,,,,,,,,,
,,,,,,,,,,,,Less than half,Some,More than half,Many,Most,Few,All,Half,None,0.499619141,0.338256836,1,0,0,QQQ1,,,,,,,,English,2020-07-02_03h15.45.769,Experiment_English,3.2.4,MacIntel,60,,,1,0,340,38,1,339,ratio11_10_20_5.png,,,,,,,,,,,,
,,,,,,,,,,,,None,Many,More than half,Half,Few,Most,All,Some,Less than half,0.067875977,-0.041694336,1,0,0,QQQ5,,,,,,,,English,2020-07-02_03h15.45.769,Experiment_English,3.2.4,MacIntel,60,,,1,0,340,84,1,339,ratio13_2_8_1.png,,,,,,,,,,,,
,,,,,,,,,,,,More than half,Some,Less than half,Half,All,Many,None,Most,Few,0.471274414,0.243110352,1,0,0,QQQ1,,,,,,,,English,2020-07-02_03h15.45.769,Experiment_English,3.2.4,MacIntel,60,,,1,0,340,209,1,339,ratio31_9_12_6.png,,,,,,,,,,,,
,,,,,,,,,,,,Most,Few,More than half,Less than half,Half,Many,All,Some,None,0.012553711,0.029902344,1,0,0,QQQ5,,,,,,,,English,2020-07-02_03h15.45.769,Experiment_English,3.2.4,MacIntel,60,,,1,0,340,236,1,339,ratio32_12_20_2.png,,,,,,,,,,,,
,,,,,,,,,,,,Less than half,All,Some,Most,Many,Half,None,More than half,Few,0.567451172,-0.330458984,1,0,0,QQQ3,,,,,,,,English,2020-07-02_03h15.45.769,Experiment_English,3.2.4,MacIntel,60,,,1,0,340,115,1,339,ratio14_4_20_1.png,,,,,,,,,,,,
,,,,,,,,,,,,Half,Few,Less than half,All,Many,None,Some,Most,More than half,-0.491035156,0.294228516,1,0,0,QQQ7,,,,,,,,English,2020-07-02_03h15.45.769,Experiment_English,3.2.4,MacIntel,60,,,1,0,340,98,1,339,ratio13_5_20_3.png,,,,,,,,,,,,
,,,,,,,,,,,,All,Half,Many,Most,Some,Few,None,Less than half,More than half,-0.458354492,0.245869141,1,0,0,QQQ7,,,,,,,,English,2020-07-02_03h15.45.769,Experiment_English,3.2.4,MacIntel,60,,,1,0,340,65,1,339,ratio0Y_0_8_4.png,,,,,,,,,,,,
,,,,,,,,,,,,Few,Most,All,Less than half,Many,None,More than half,Half,Some,-0.374116211,-0.211816406,1,0,0,QQQ9,,,,,,,,English,2020-07-02_03h15.45.769,Experiment_English,3.2.4,MacIntel,60,,,1,0,340,104,1,339,ratio14_1_5_10.png,,,,,,,,,,,,
,,,,,,,,,,,,Many,None,More than half,Half,Less than half,All,Most,Some,Few,-0.456713867,0.237553711,1,0,0,QQQ7,,,,,,,,English,2020-07-02_03h15.45.769,Experiment_English,3.2.4,MacIntel,60,,,1,0,340,203,1,339,ratio31_3_4_9.png,,,,,,,,,,,,
,,,,,,,,,,,,Few,Most,Many,More than half,Less than half,Half,None,Some,All,0.035932617,0.023842773,1,0,0,QQQ5,,,,,,,,English,2020-07-02_03h15.45.769,Experiment_English,3.2.4,MacIntel,60,,,1,0,340,173,1,339,ratio21_8_12_9.png,,,,,,,,,,,,
,,,,,,,,,,,,All,Most,Few,Half,More than half,None,Some,Many,Less than half,0.539008789,-0.0325,1,0,0,QQQ2,,,,,,,,English,2020-07-02_03h15.45.769,Experiment_English,3.2.4,MacIntel,60,,,1,0,340,307,1,339,ratio51_10_12_1.png,,,,,,,,,,,,
,,,,,,,,,,,,More than half,Most,Less than half,Half,Many,Some,All,None,Few,0.119160156,0.282373047,1,0,0,QQQ4,,,,,,,,English,2020-07-02_03h15.45.769,Experiment_English,3.2.4,MacIntel,60,,,1,0,340,291,1,339,ratio43_8_14_5.png,,,,,,,,,,,,
,,,,,,,,,,,,Half,All,Many,Some,None,More than half,Most,Few,Less than half,-0.016635742,0.293173828,1,0,0,QQQ4,,,,,,,,English,2020-07-02_03h15.45.769,Experiment_English,3.2.4,MacIntel,60,,,1,0,340,122,1,339,ratio15_1_6_7.png,,,,,,,,,,,,
,,,,,,,,,,,,Some,Half,All,Many,None,Less than half,Few,Most,More than half,-0.417485352,0.321401367,1,0,0,QQQ7,,,,,,,,English,2020-07-02_03h15.45.769,Experiment_English,3.2.4,MacIntel,60,,,1,0,340,81,1,339,ratio13_1_4_5.png,,,,,,,,,,,,
,,,,,,,,,,,,Few,Many,None,More than half,All,Half,Some,Less than half,Most,-0.429750977,-0.337387695,1,0,0,QQQ9,,,,,,,,English,2020-07-02_03h15.45.769,Experiment_English,3.2.4,MacIntel,60,,,1,0,340,274,1,339,ratio41_12_15_9.png,0.329902344,-0.399072266,1,0,0,continue_button_pause,1,0,1,0,1,0
,,,,,,,,,,,,,,,,,,,,,,,,,,,,,,,,,,English,2020-07-02_03h15.45.769,Experiment_English,3.2.4,MacIntel,60,,,1,0,340,274,1,339,ratio41_12_15_9.png,,,,,,,,,,,,
,,,,,,,,,,,,None,Few,All,More than half,Less than half,Many,Some,Half,Most,-0.393701172,0.238881836,1,0,0,QQQ7,,,,,,,,English,2020-07-02_03h15.45.769,Experiment_English,3.2.4,MacIntel,60,,,1,0,340,192,1,339,ratio23_6_15_8.png,,,,,,,,,,,,
,,,,,,,,,,,,Few,None,Half,All,Many,Less than half,Most,Some,More than half,-0.454008789,0.042612305,1,0,0,QQQ8,,,,,,,,English,2020-07-02_03h15.45.769,Experiment_English,3.2.4,MacIntel,60,,,1,0,340,133,1,339,ratio15_3_18_3.png,,,,,,,,,,,,
,,,,,,,,,,,,Many,Few,Half,Less than half,Most,More than half,Some,All,None,0.564267578,0.036625977,1,0,0,QQQ2,,,,,,,,English,2020-07-02_03h15.45.769,Experiment_English,3.2.4,MacIntel,60,,,1,0,340,4,1,339,ratio12_2_6_5.png,,,,,,,,,,,,
,,,,,,,,,,,,Half,Few,Many,None,Some,Most,More than half,All,Less than half,-0.414702148,-0.252128906,1,0,0,QQQ9,,,,,,,,English,2020-07-02_03h15.45.769,Experiment_English,3.2.4,MacIntel,60,,,1,0,340,249,1,339,ratio34_3_7_20.png,,,,,,,,,,,,
,,,,,,,,,,,,Half,Most,Few,All,Less than half,None,Some,More than half,Many,0.417246094,-0.038198242,1,0,0,QQQ2,,,,,,,,English,2020-07-02_03h15.45.769,Experiment_English,3.2.4,MacIntel,60,,,1,0,340,303,1,339,ratio51_5_6_6.png,,,,,,,,,,,,
,,,,,,,,,,,,Less than half,Most,Half,All,None,Some,More than half,Few,Many,0.417246094,-0.038198242,1,0,0,QQQ2,,,,,,,,English,2020-07-02_03h15.45.769,Experiment_English,3.2.4,MacIntel,60,,,1,0,340,172,1,339,ratio21_8_12_6.png,,,,,,,,,,,,
,,,,,,,,,,,,Most,Some,None,Few,Half,All,Many,More than half,Less than half,0.383813477,0.242592773,1,0,0,QQQ1,,,,,,,,English,2020-07-02_03h15.45.769,Experiment_English,3.2.4,MacIntel,60,,,1,0,340,228,1,339,ratio32_6_10_7.png,,,,,,,,,,,,
,,,,,,,,,,,,All,Half,Many,Most,Less than half,Few,More than half,Some,None,-0.407333984,-0.015644531,1,0,0,QQQ8,,,,,,,,English,2020-07-02_03h15.45.769,Experiment_English,3.2.4,MacIntel,60,,,1,0,340,126,1,339,ratio15_2_12_1.png,,,,,,,,,,,,
,,,,,,,,,,,,More than half,Less than half,Some,Most,Many,Few,All,None,Half,0.421972656,-0.222783203,1,0,0,QQQ3,,,,,,,,English,2020-07-02_03h15.45.769,Experiment_English,3.2.4,MacIntel,60,,,1,0,340,91,1,339,ratio13_3_12_10.png,,,,,,,,,,,,
,,,,,,,,,,,,Some,More than half,Half,Most,Less than half,None,All,Many,Few,0.587944336,0.338520508,1,0,0,QQQ1,,,,,,,,English,2020-07-02_03h15.45.769,Experiment_English,3.2.4,MacIntel,60,,,1,0,340,102,1,339,ratio14_1_5_8.png,,,,,,,,,,,,
,,,,,,,,,,,,Less than half,Some,None,Many,Half,More than half,Most,All,Few,0.403017578,-0.019301758,1,0,0,QQQ2,,,,,,,,English,2020-07-02_03h15.45.769,Experiment_English,3.2.4,MacIntel,60,,,1,0,340,1,1,339,ratio12_1_3_7.png,,,,,,,,,,,,
,,,,,,,,,,,,Many,Less than half,Most,Half,Few,More than half,None,Some,All,0.107514648,0.036713867,1,0,0,QQQ5,,,,,,,,English,2020-07-02_03h15.45.769,Experiment_English,3.2.4,MacIntel,60,,,1,0,340,116,1,339,ratio14_4_20_3.png,,,,,,,,,,,,
,,,,,,,,,,,,Half,Many,Some,Most,Few,All,More than half,None,Less than half,0.453598633,-0.232456055,1,0,0,QQQ3,,,,,,,,English,2020-07-02_03h15.45.769,Experiment_English,3.2.4,MacIntel,60,,,1,0,340,147,1,339,ratio19_1_10_18.png,,,,,,,,,,,,
,,,,,,,,,,,,More than half,None,Most,Few,Half,All,Many,Some,Less than half,0.558271484,-0.353569336,1,0,0,QQQ3,,,,,,,,English,2020-07-02_03h15.45.769,Experiment_English,3.2.4,MacIntel,60,,,1,0,340,162,1,339,ratio21_2_3_9.png,,,,,,,,,,,,
,,,,,,,,,,,,Half,Less than half,More than half,Many,Few,Some,None,Most,All,-0.409682617,-0.256220703,1,0,0,QQQ9,,,,,,,,English,2020-07-02_03h15.45.769,Experiment_English,3.2.4,MacIntel,60,,,1,0,340,56,1,339,ratioX0_17_17_10.png,,,,,,,,,,,,
,,,,,,,,,,,,All,Many,Half,None,Some,Most,More than half,Few,Less than half,-0.065058594,-0.001972656,1,0,0,QQQ5,,,,,,,,English,2020-07-02_03h15.45.769,Experiment_English,3.2.4,MacIntel,60,,,1,0,340,137,1,339,ratio15_3_18_16.png,,,,,,,,,,,,
,,,,,,,,,,,,All,Most,Few,Some,None,More than half,Half,Many,Less than half,-0.122983398,0.229858398,1,0,0,QQQ4,,,,,,,,English,2020-07-02_03h15.45.769,Experiment_English,3.2.4,MacIntel,60,,,1,0,340,96,1,339,ratio13_5_20_1.png,,,,,,,,,,,,
,,,,,,,,,,,,Few,All,Most,Some,Less than half,Many,None,More than half,Half,0.449677734,-0.372607422,1,0,0,QQQ3,,,,,,,,English,2020-07-02_03h15.45.769,Experiment_English,3.2.4,MacIntel,60,,,1,0,340,334,1,339,ratio91_18_20_9.png,,,,,,,,,,,,
,,,,,,,,,,,,Half,Most,Many,Few,Less than half,All,More than half,Some,None,0.448032227,0.067441406,1,0,0,QQQ2,,,,,,,,English,2020-07-02_03h15.45.769,Experiment_English,3.2.4,MacIntel,60,,,1,0,340,34,1,339,ratio11_8_16_8.png,,,,,,,,,,,,
,,,,,,,,,,,,Some,Less than half,None,Few,More than half,Many,Most,Half,All,-0.468037109,0.329663086,1,0,0,QQQ7,,,,,,,,English,2020-07-02_03h15.45.769,Experiment_English,3.2.4,MacIntel,60,,,1,0,340,205,1,339,ratio31_6_8_2.png,,,,,,,,,,,,
,,,,,,,,,,,,More than half,Most,Some,Many,All,None,Less than half,Half,Few,-0.467421875,0.270214844,1,0,0,QQQ7,,,,,,,,English,2020-07-02_03h15.45.769,Experiment_English,3.2.4,MacIntel,60,,,1,0,340,248,1,339,ratio34_3_7_19.png,,,,,,,,,,,,
,,,,,,,,,,,,Less than half,Some,None,More than half,Many,Half,Few,Most,All,-0.040361328,0.260859375,1,0,0,QQQ4,,,,,,,,English,2020-07-02_03h15.45.769,Experiment_English,3.2.4,MacIntel,60,,,1,0,340,204,1,339,ratio31_6_8_1.png,,,,,,,,,,,,
,,,,,,,,,,,,Most,Many,All,Some,Half,None,Less than half,More than half,Few,0.129921875,-0.268378906,1,0,0,QQQ6,,,,,,,,English,2020-07-02_03h15.45.769,Experiment_English,3.2.4,MacIntel,60,,,1,0,340,68,1,339,ratio0Y_0_11_3.png,,,,,,,,,,,,
,,,,,,,,,,,,Most,Some,Less than half,Few,All,More than half,None,Half,Many,0.436884766,0.013764648,1,0,0,QQQ2,,,,,,,,English,2020-07-02_03h15.45.769,Experiment_English,3.2.4,MacIntel,60,,,1,0,340,5,1,339,ratio12_2_6_9.png,,,,,,,,,,,,
,,,,,,,,,,,,Some,Few,All,Less than half,Most,None,Half,More than half,Many,0.368330078,0.279082031,1,0,0,QQQ1,,,,,,,,English,2020-07-02_03h15.45.769,Experiment_English,3.2.4,MacIntel,60,,,1,0,340,93,1,339,ratio13_4_16_7.png,,,,,,,,,,,,
,,,,,,,,,,,,Few,More than half,Many,Half,All,Some,Less than half,None,Most,0.380107422,0.281201172,1,0,0,QQQ1,,,,,,,,English,2020-07-02_03h15.45.769,Experiment_English,3.2.4,MacIntel,60,,,1,0,340,139,1,339,ratio15_3_18_20.png,,,,,,,,,,,,
,,,,,,,,,,,,All,Many,Few,Most,Some,None,Less than half,More than half,Half,0.011376953,0.020922852,0,0,1,QQQ5,,,,,,,,English,2020-07-02_03h15.45.769,Experiment_English,3.2.4,MacIntel,60,,,1,0,340,30,1,339,ratio11_6_12_6.png,,,,,,,,,,,,
,,,,,,,,,,,,All,Most,Few,Half,None,Many,Some,Less than half,More than half,-0.444067383,0.287109375,1,0,1,QQQ7,,,,,,,,English,2020-07-02_03h15.45.769,Experiment_English,3.2.4,MacIntel,60,,,1,0,340,250,1,339,ratio34_6_14_1.png,,,,,,,,,,,,
,,,,,,,,,,,,More than half,Many,All,Less than half,Half,Few,None,Most,Some,0.044775391,-0.230625,1,0,1,QQQ6,,,,,,,,English,2020-07-02_03h15.45.769,Experiment_English,3.2.4,MacIntel,60,,,1,0,340,181,1,339,ratio23_2_5_6.png,,,,,,,,,,,,
,,,,,,,,,,,,More than half,Most,Some,Few,Half,Many,Less than half,All,None,0.502167969,-0.227402344,1,0,1,QQQ3,,,,,,,,English,2020-07-02_03h15.45.769,Experiment_English,3.2.4,MacIntel,60,,,1,0,340,135,1,339,ratio15_3_18_7.png,,,,,,,,,,,,
,,,,,,,,,,,,Less than half,Few,Half,More than half,Many,Some,All,Most,None,-0.431499023,0.029282227,1,0,1,QQQ8,,,,,,,,English,2020-07-02_03h15.45.769,Experiment_English,3.2.4,MacIntel,60,,,1,0,340,302,1,339,ratio51_5_6_5.png,,,,,,,,,,,,
,,,,,,,,,,,,All,Many,Some,Half,Less than half,None,More than half,Most,Few,0.414882812,-0.289985352,1,0,1,QQQ3,,,,,,,,English,2020-07-02_03h15.45.769,Experiment_English,3.2.4,MacIntel,60,,,1,0,340,190,1,339,ratio23_6_15_3.png,,,,,,,,,,,,
,,,,,,,,,,,,More than half,All,None,Some,Many,Less than half,Most,Few,Half,0.424023437,0.332749023,1,0,1,QQQ1,,,,,,,,English,2020-07-02_03h15.45.769,Experiment_English,3.2.4,MacIntel,60,,,1,0,340,174,1,339,ratio21_10_15_1.png,,,,,,,,,,,,
,,,,,,,,,,,,None,Some,Less than half,More than half,Few,Half,Most,Many,All,-0.407216797,0.284008789,1,0,1,QQQ7,,,,,,,,English,2020-07-02_03h15.45.769,Experiment_English,3.2.4,MacIntel,60,,,1,0,340,321,1,339,ratio91_9_10_2.png,,,,,,,,,,,,
