continue_mouse.x,continue_mouse.y,continue_mouse.leftButton,continue_mouse.midButton,continue_mouse.rightButton,continue_mouse.clicked_name,continue_mouse_2.x,continue_mouse_2.y,continue_mouse_2.leftButton,continue_mouse_2.midButton,continue_mouse_2.rightButton,continue_mouse_2.clicked_name,Q1,Q2,Q3,Q4,Q5,Q6,Q7,Q8,Q9,select_answer.x,select_answer.y,select_answer.leftButton,select_answer.midButton,select_answer.rightButton,select_answer.clicked_name,trial.thisRepN,trial.thisTrialN,trial.thisN,trial.thisIndex,trial.ran,trial.order,trials,Native tongue*,date,expName,psychopyVersion,OS,frameRate,key_resp.keys,key_resp.rt,Actual_Experiment.thisRepN,Actual_Experiment.thisTrialN,Actual_Experiment.thisN,Actual_Experiment.thisIndex,Actual_Experiment.ran,Actual_Experiment.order,Pic,mouse_pause.x,mouse_pause.y,mouse_pause.leftButton,mouse_pause.midButton,mouse_pause.rightButton,mouse_pause.clicked_name,pause.thisRepN,pause.thisTrialN,pause.thisN,pause.thisIndex,pause.ran,pause.order
0.387963001,-0.437037065,1,0,0,continue_button,0.351851889,-0.432407492,1,0,0,continue_button_2,Many,Few,None,All,More than half,Half,Less than half,Some,Most,-0.03055553,-1.4912E-08,1,0,0,QQQ5,1,0,16,13,1,15,ratio12_5_15_1.png,English,2020-07-02_11h03.01.798,Experiment_English,3.2.4,Win32,60,,,,,,,,,,,,,,,,,,,,,
,,,,,,,,,,,,Half,Most,Less than half,Many,Few,More than half,Some,None,All,-0.50648147,0.299074068,1,0,0,QQQ7,1,0,16,11,1,15,ratio14_1_5_7.png,English,2020-07-02_11h03.01.798,Experiment_English,3.2.4,Win32,60,,,,,,,,,,,,,,,,,,,,,
,,,,,,,,,,,,Few,Half,All,More than half,Many,Less than half,Some,None,Most,-0.104629606,-0.007407423,1,0,0,QQQ5,1,0,16,10,1,15,ratio15_2_12_4.png,English,2020-07-02_11h03.01.798,Experiment_English,3.2.4,Win32,60,,,,,,,,,,,,,,,,,,,,,
,,,,,,,,,,,,Most,Many,Few,More than half,None,Some,Less than half,All,Half,-0.029629604,0.293518512,1,0,0,QQQ4,1,0,16,12,1,15,ratio13_3_12_3.png,English,2020-07-02_11h03.01.798,Experiment_English,3.2.4,Win32,60,,,,,,,,,,,,,,,,,,,,,
,,,,,,,,,,,,Many,None,More than half,Half,Some,Less than half,All,Most,Few,0.437037077,-0.306481506,1,0,0,QQQ3,1,0,16,1,1,15,ratio51_5_6_8.png,English,2020-07-02_11h03.01.798,Experiment_English,3.2.4,Win32,60,,,,,,,,,,,,,,,,,,,,,
,,,,,,,,,,,,None,Many,Most,Less than half,Few,More than half,All,Some,Half,-0.002777751,-0.275925949,1,0,0,QQQ6,,,,,,,,English,2020-07-02_11h03.01.798,Experiment_English,3.2.4,Win32,60,b,18.86500001,1,0,340,227,1,339,ratio32_6_10_6.png,,,,,,,,,,,,
,,,,,,,,,,,,Many,Less than half,More than half,None,All,Most,Half,Some,Few,-0.002777751,-0.275925949,1,0,0,QQQ6,,,,,,,,English,2020-07-02_11h03.01.798,Experiment_English,3.2.4,Win32,60,,,1,0,340,324,1,339,ratio91_9_10_7.png,,,,,,,,,,,,
,,,,,,,,,,,,Some,Many,Less than half,More than half,Half,None,Most,All,Few,-0.391666652,0.274074067,1,0,0,QQQ7,,,,,,,,English,2020-07-02_11h03.01.798,Experiment_English,3.2.4,Win32,60,,,1,0,340,49,1,339,ratioX0_11_11_2.png,,,,,,,,,,,,
,,,,,,,,,,,,Many,Less than half,Few,Some,All,None,Most,Half,More than half,-0.009259177,0.030555542,1,0,0,QQQ5,,,,,,,,English,2020-07-02_11h03.01.798,Experiment_English,3.2.4,Win32,60,,,1,0,340,54,1,339,ratioX0_15_15_5.png,,,,,,,,,,,,
,,,,,,,,,,,,Most,None,All,More than half,Many,Less than half,Some,Few,Half,0.034259287,0.316666661,1,0,0,QQQ4,,,,,,,,English,2020-07-02_11h03.01.798,Experiment_English,3.2.4,Win32,60,,,1,0,340,292,1,339,ratio43_8_14_6.png,,,,,,,,,,,,
,,,,,,,,,,,,Few,More than half,None,Half,Many,Some,All,Less than half,Most,0.448148188,0.246296289,1,0,0,QQQ1,,,,,,,,English,2020-07-02_11h03.01.798,Experiment_English,3.2.4,Win32,60,,,1,0,340,112,1,339,ratio14_3_15_4.png,,,,,,,,,,,,
,,,,,,,,,,,,Less than half,Many,Some,None,Most,All,Few,Half,More than half,-0.406481467,-0.001851867,1,0,0,QQQ8,,,,,,,,English,2020-07-02_11h03.01.798,Experiment_English,3.2.4,Win32,60,,,1,0,340,38,1,339,ratio11_10_20_5.png,,,,,,,,,,,,
,,,,,,,,,,,,Some,Many,Few,Less than half,All,More than half,Most,None,Half,-0.461111098,-0.257407486,1,0,0,QQQ9,,,,,,,,English,2020-07-02_11h03.01.798,Experiment_English,3.2.4,Win32,60,,,1,0,340,246,1,339,ratio34_3_7_11.png,,,,,,,,,,,,
,,,,,,,,,,,,Few,None,Half,Less than half,Many,All,Some,More than half,Most,0.037963047,-0.033333349,1,0,0,QQQ5,,,,,,,,English,2020-07-02_11h03.01.798,Experiment_English,3.2.4,Win32,60,,,1,0,340,326,1,339,ratio91_9_10_10.png,,,,,,,,,,,,
,,,,,,,,,,,,All,None,Half,Most,More than half,Many,Some,Less than half,Few,0.077777807,0.280555549,1,0,0,QQQ4,,,,,,,,English,2020-07-02_11h03.01.798,Experiment_English,3.2.4,Win32,60,,,1,0,340,318,1,339,ratio51_15_18_18.png,,,,,,,,,,,,
,,,,,,,,,,,,More than half,Most,Less than half,Few,Some,None,Many,All,Half,0.52777782,-0.017592608,1,0,0,QQQ2,,,,,,,,English,2020-07-02_11h03.01.798,Experiment_English,3.2.4,Win32,60,,,1,0,340,122,1,339,ratio15_1_6_7.png,,,,,,,,,,,,
,,,,,,,,,,,,Some,More than half,Less than half,None,All,Many,Half,Few,Most,-0.496296256,-0.279629709,1,0,0,QQQ9,,,,,,,,English,2020-07-02_11h03.01.798,Experiment_English,3.2.4,Win32,60,,,1,0,340,333,1,339,ratio91_18_20_6.png,,,,,,,,,,,,
,,,,,,,,,,,,All,Less than half,Half,More than half,Many,Most,Some,None,Few,-0.012962937,-0.293518599,1,0,0,QQQ6,,,,,,,,English,2020-07-02_11h03.01.798,Experiment_English,3.2.4,Win32,60,,,1,0,340,217,1,339,ratio31_15_20_5.png,,,,,,,,,,,,
,,,,,,,,,,,,More than half,Few,All,None,Many,Half,Less than half,Some,Most,0.475000041,-0.026851868,1,0,0,QQQ2,,,,,,,,English,2020-07-02_11h03.01.798,Experiment_English,3.2.4,Win32,60,,,1,0,340,128,1,339,ratio15_2_12_8.png,,,,,,,,,,,,
,,,,,,,,,,,,Half,Many,Most,Few,None,All,Some,Less than half,More than half,0.442592632,0.005555541,1,0,0,QQQ2,,,,,,,,English,2020-07-02_11h03.01.798,Experiment_English,3.2.4,Win32,60,,,1,0,340,225,1,339,ratio32_6_10_4.png,,,,,,,,,,,,
,,,,,,,,,,,,All,Most,Few,Half,Some,Less than half,Many,More than half,None,-0.404629615,0.02407406,1,0,0,QQQ8,,,,,,,,English,2020-07-02_11h03.01.798,Experiment_English,3.2.4,Win32,60,,,1,0,340,25,1,339,ratio11_4_8_10.png,,,,,,,,,,,,
,,,,,,,,,,,,Few,None,More than half,All,Half,Most,Some,Many,Less than half,-0.505555544,-0.292592616,1,0,0,QQQ9,,,,,,,,English,2020-07-02_11h03.01.798,Experiment_English,3.2.4,Win32,60,,,1,0,340,197,1,339,ratio23_8_20_6.png,,,,,,,,,,,,
,,,,,,,,,,,,Less than half,None,Many,More than half,Most,All,Some,Half,Few,0.022222249,0.307407402,1,0,0,QQQ4,,,,,,,,English,2020-07-02_11h03.01.798,Experiment_English,3.2.4,Win32,60,,,1,0,340,175,1,339,ratio21_10_15_2.png,,,,,,,,,,,,
,,,,,,,,,,,,Half,Less than half,Many,More than half,Most,All,None,Few,Some,-0.001851825,0.009259245,1,0,0,QQQ5,,,,,,,,English,2020-07-02_11h03.01.798,Experiment_English,3.2.4,Win32,60,,,1,0,340,336,1,339,ratio91_18_20_12.png,,,,,,,,,,,,
,,,,,,,,,,,,Most,Half,More than half,Many,None,Some,Few,Less than half,All,-0.538888878,-0.30462971,1,0,0,QQQ9,,,,,,,,English,2020-07-02_11h03.01.798,Experiment_English,3.2.4,Win32,60,,,1,0,340,46,1,339,ratioX0_9_9_3.png,,,,,,,,,,,,
,,,,,,,,,,,,Half,None,Many,Most,Less than half,Some,More than half,Few,All,-0.502777766,0.293518512,1,0,0,QQQ7,,,,,,,,English,2020-07-02_11h03.01.798,Experiment_English,3.2.4,Win32,60,,,1,0,340,289,1,339,ratio43_4_7_20.png,,,,,,,,,,,,
,,,,,,,,,,,,Less than half,Half,Many,Few,More than half,All,Some,Most,None,-0.452777765,-0.328703728,1,0,0,QQQ9,,,,,,,,English,2020-07-02_11h03.01.798,Experiment_English,3.2.4,Win32,60,,,1,0,340,67,1,339,ratio0Y_0_10_10.png,,,,,,,,,,,,
,,,,,,,,,,,,Few,More than half,Many,All,Less than half,Some,Half,Most,None,-0.50462959,0.328703699,1,0,0,QQQ7,,,,,,,,English,2020-07-02_11h03.01.798,Experiment_English,3.2.4,Win32,60,,,1,0,340,241,1,339,ratio34_3_7_5.png,,,,,,,,,,,,
,,,,,,,,,,,,Some,All,Half,Less than half,Many,Few,None,More than half,Most,-0.50462959,-0.30555558,1,0,0,QQQ9,,,,,,,,English,2020-07-02_11h03.01.798,Experiment_English,3.2.4,Win32,60,,,1,0,340,266,1,339,ratio41_8_10_2.png,,,,,,,,,,,,
,,,,,,,,,,,,Half,All,Few,None,Many,Most,Some,More than half,Less than half,-0.450925913,-0.296296377,1,0,0,QQQ9,,,,,,,,English,2020-07-02_11h03.01.798,Experiment_English,3.2.4,Win32,60,,,1,0,340,181,1,339,ratio23_2_5_6.png,,,,,,,,,,,,
,,,,,,,,,,,,Many,Few,Some,Most,All,Less than half,Half,More than half,None,-0.070370289,-0.271296376,1,0,0,QQQ6,,,,,,,,English,2020-07-02_11h03.01.798,Experiment_English,3.2.4,Win32,60,,,1,0,340,81,1,339,ratio13_1_4_5.png,,,,,,,,,,,,
,,,,,,,,,,,,Half,Some,None,More than half,Many,Most,Less than half,Few,All,0.064814843,0.314814795,1,0,0,QQQ4,,,,,,,,English,2020-07-02_11h03.01.798,Experiment_English,3.2.4,Win32,60,,,1,0,340,161,1,339,ratio21_2_3_8.png,,,,,,,,,,,,
,,,,,,,,,,,,Many,Half,All,More than half,Few,Some,Less than half,Most,None,-0.418518476,0.283333327,1,0,0,QQQ7,,,,,,,,English,2020-07-02_11h03.01.798,Experiment_English,3.2.4,Win32,60,,,1,0,340,196,1,339,ratio23_8_20_5.png,,,,,,,,,,,,
,,,,,,,,,,,,Some,All,None,More than half,Few,Many,Less than half,Most,Half,-0.438888875,-0.30092595,1,0,0,QQQ9,,,,,,,,English,2020-07-02_11h03.01.798,Experiment_English,3.2.4,Win32,60,,,1,0,340,21,1,339,ratio11_2_4_10.png,,,,,,,,,,,,
,,,,,,,,,,,,Half,Most,None,Many,Less than half,More than half,Few,All,Some,0.421296335,-0.076851869,1,0,0,QQQ2,,,,,,,,English,2020-07-02_11h03.01.798,Experiment_English,3.2.4,Win32,60,,,1,0,340,314,1,339,ratio51_15_18_4.png,,,,,,,,,,,,
,,,,,,,,,,,,Most,More than half,None,Few,All,Less than half,Many,Half,Some,-0.029629604,-0.313888913,1,0,0,QQQ6,,,,,,,,English,2020-07-02_11h03.01.798,Experiment_English,3.2.4,Win32,60,,,1,0,340,18,1,339,ratio12_6_18_7.png,,,,,,,,,,,,
,,,,,,,,,,,,Few,All,Less than half,Some,None,More than half,Most,Many,Half,-0.063888864,0.003703689,1,0,0,QQQ5,,,,,,,,English,2020-07-02_11h03.01.798,Experiment_English,3.2.4,Win32,60,,,1,0,340,79,1,339,ratio0Y_0_20_4.png,,,,,,,,,,,,
,,,,,,,,,,,,None,Some,Few,Half,Less than half,All,More than half,Most,Many,0.502777819,0.332407402,1,0,0,QQQ1,,,,,,,,English,2020-07-02_11h03.01.798,Experiment_English,3.2.4,Win32,60,,,1,0,340,61,1,339,ratio0Y_0_4_7.png,,,,,,,,,,,,
,,,,,,,,,,,,Few,Less than half,Half,None,Most,More than half,All,Many,Some,0.465740781,0.289814794,1,0,0,QQQ1,,,,,,,,English,2020-07-02_11h03.01.798,Experiment_English,3.2.4,Win32,60,,,1,0,340,147,1,339,ratio19_1_10_18.png,0.36759263,-0.393518602,1,0,0,continue_button_pause,1,0,1,0,1,0
,,,,,,,,,,,,,,,,,,,,,,,,,,,,,,,,,,English,2020-07-02_11h03.01.798,Experiment_English,3.2.4,Win32,60,,,1,0,340,147,1,339,ratio19_1_10_18.png,,,,,,,,,,,,
,,,,,,,,,,,,Some,All,Few,More than half,Half,Many,Less than half,None,Most,0.36759263,-0.393518602,1,0,0,QQQ3,,,,,,,,English,2020-07-02_11h03.01.798,Experiment_English,3.2.4,Win32,60,,,1,0,340,310,1,339,ratio51_10_12_12.png,,,,,,,,,,,,
,,,,,,,,,,,,Less than half,None,More than half,Most,Some,Half,All,Few,Many,-0.470370358,0.054629588,1,0,0,QQQ8,,,,,,,,English,2020-07-02_11h03.01.798,Experiment_English,3.2.4,Win32,60,,,1,0,340,100,1,339,ratio14_1_5_3.png,,,,,,,,,,,,
,,,,,,,,,,,,Half,Less than half,None,Some,Most,More than half,All,Many,Few,-0.487962923,-0.268518598,1,0,0,QQQ9,,,,,,,,English,2020-07-02_11h03.01.798,Experiment_English,3.2.4,Win32,60,,,1,0,340,15,1,339,ratio12_5_15_5.png,,,,,,,,,,,,
,,,,,,,,,,,,None,Less than half,All,Half,Few,Most,Many,More than half,Some,-0.489814803,-0.012962978,1,0,0,QQQ8,,,,,,,,English,2020-07-02_11h03.01.798,Experiment_English,3.2.4,Win32,60,,,1,0,340,171,1,339,ratio21_8_12_4.png,,,,,,,,,,,,
,,,,,,,,,,,,Half,More than half,Many,All,Few,Less than half,Some,None,Most,0.434259299,-0.011111126,1,0,0,QQQ2,,,,,,,,English,2020-07-02_11h03.01.798,Experiment_English,3.2.4,Win32,60,,,1,0,340,176,1,339,ratio21_10_15_3.png,,,,,,,,,,,,
,,,,,,,,,,,,Most,Half,Less than half,None,Some,Many,All,Few,More than half,-0.469444432,-0.251851931,1,0,0,QQQ9,,,,,,,,English,2020-07-02_11h03.01.798,Experiment_English,3.2.4,Win32,60,,,1,0,340,178,1,339,ratio21_12_18_2.png,,,,,,,,,,,,
,,,,,,,,,,,,Half,Less than half,Some,Most,Many,Few,More than half,None,All,-0.457407366,0.301851846,1,0,0,QQQ7,,,,,,,,English,2020-07-02_11h03.01.798,Experiment_English,3.2.4,Win32,60,,,1,0,340,208,1,339,ratio31_9_12_3.png,,,,,,,,,,,,
,,,,,,,,,,,,Some,Most,None,Less than half,All,More than half,Many,Few,Half,-0.461111098,0.237037029,1,0,0,QQQ7,,,,,,,,English,2020-07-02_11h03.01.798,Experiment_English,3.2.4,Win32,60,,,1,0,340,286,1,339,ratio43_4_7_15.png,,,,,,,,,,,,
,,,,,,,,,,,,Less than half,Some,More than half,Most,None,Many,Half,Few,All,-0.501851812,0.026851809,1,0,0,QQQ8,,,,,,,,English,2020-07-02_11h03.01.798,Experiment_English,3.2.4,Win32,60,,,1,0,340,138,1,339,ratio15_3_18_17.png,,,,,,,,,,,,
,,,,,,,,,,,,Half,Many,Few,All,Some,More than half,Less than half,Most,None,0.472222263,-0.312037061,1,0,0,QQQ3,,,,,,,,English,2020-07-02_11h03.01.798,Experiment_English,3.2.4,Win32,60,,,1,0,340,89,1,339,ratio13_3_12_6.png,,,,,,,,,,,,
,,,,,,,,,,,,Half,Some,Most,Less than half,More than half,Few,None,Many,All,-0.525925915,-0.275925949,1,0,0,QQQ9,,,,,,,,English,2020-07-02_11h03.01.798,Experiment_English,3.2.4,Win32,60,,,1,0,340,45,1,339,ratioX0_8_8_3.png,,,,,,,,,,,,
,,,,,,,,,,,,Less than half,More than half,Half,Some,Many,Few,Most,All,None,0.425000039,0.000925911,1,0,0,QQQ2,,,,,,,,English,2020-07-02_11h03.01.798,Experiment_English,3.2.4,Win32,60,,,1,0,340,287,1,339,ratio43_4_7_17.png,,,,,,,,,,,,
,,,,,,,,,,,,More than half,Less than half,Half,Many,Few,Some,Most,None,All,0.477777819,0.241666659,1,0,0,QQQ1,,,,,,,,English,2020-07-02_11h03.01.798,Experiment_English,3.2.4,Win32,60,,,1,0,340,293,1,339,ratio43_8_14_7.png,,,,,,,,,,,,
,,,,,,,,,,,,Many,More than half,None,Some,All,Most,Less than half,Few,Half,0.032407491,-0.283333357,1,0,0,QQQ6,,,,,,,,English,2020-07-02_11h03.01.798,Experiment_English,3.2.4,Win32,60,,,1,0,340,305,1,339,ratio51_5_6_14.png,,,,,,,,,,,,
,,,,,,,,,,,,Less than half,Few,Many,Most,Half,More than half,None,Some,All,0.044444472,0.261111104,1,0,0,QQQ4,,,,,,,,English,2020-07-02_11h03.01.798,Experiment_English,3.2.4,Win32,60,,,1,0,340,264,1,339,ratio41_4_5_6.png,,,,,,,,,,,,
,,,,,,,,,,,,Less than half,All,Half,Few,Some,More than half,Most,Many,None,0.044444472,0.261111104,1,0,0,QQQ4,,,,,,,,English,2020-07-02_11h03.01.798,Experiment_English,3.2.4,Win32,60,,,1,0,340,142,1,339,ratio19_1_10_6.png,,,,,,,,,,,,
,,,,,,,,,,,,More than half,Many,Most,Half,None,Less than half,All,Some,Few,0.47962967,0.29629629,1,0,0,QQQ1,,,,,,,,English,2020-07-02_11h03.01.798,Experiment_English,3.2.4,Win32,60,,,1,0,340,278,1,339,ratio41_16_20_9.png,,,,,,,,,,,,
,,,,,,,,,,,,Less than half,None,Some,Half,Few,Many,More than half,All,Most,-0.490740701,0.303703684,1,0,0,QQQ7,,,,,,,,English,2020-07-02_11h03.01.798,Experiment_English,3.2.4,Win32,60,,,1,0,340,285,1,339,ratio43_4_7_14.png,,,,,,,,,,,,
,,,,,,,,,,,,Many,All,More than half,Less than half,Some,Half,Few,None,Most,-0.420370356,0.246296289,1,0,0,QQQ7,,,,,,,,English,2020-07-02_11h03.01.798,Experiment_English,3.2.4,Win32,60,,,1,0,340,133,1,339,ratio15_3_18_3.png,,,,,,,,,,,,
,,,,,,,,,,,,Some,Many,All,Few,Most,Less than half,Half,None,More than half,-0.051851827,-0.037962979,1,0,0,QQQ5,,,,,,,,English,2020-07-02_11h03.01.798,Experiment_English,3.2.4,Win32,60,,,1,0,340,202,1,339,ratio31_3_4_8.png,,,,,,,,,,,,
,,,,,,,,,,,,Half,Less than half,Some,Few,All,Many,Most,More than half,None,-0.468518478,0.001851837,1,0,0,QQQ8,,,,,,,,English,2020-07-02_11h03.01.798,Experiment_English,3.2.4,Win32,60,,,1,0,340,243,1,339,ratio34_3_7_8.png,,,,,,,,,,,,
,,,,,,,,,,,,None,Many,Most,More than half,Some,Few,Less than half,All,Half,-0.412962949,-0.276851932,1,0,0,QQQ9,,,,,,,,English,2020-07-02_11h03.01.798,Experiment_English,3.2.4,Win32,60,,,1,0,340,39,1,339,ratio11_10_20_6.png,,,,,,,,,,,,
,,,,,,,,,,,,Most,Half,Less than half,All,Some,None,Many,More than half,Few,-0.476851811,-0.055555572,1,0,0,QQQ8,,,,,,,,English,2020-07-02_11h03.01.798,Experiment_English,3.2.4,Win32,60,,,1,0,340,234,1,339,ratio32_9_15_10.png,,,,,,,,,,,,
,,,,,,,,,,,,Most,All,Many,Few,More than half,Less than half,Some,None,Half,0.402777816,0.284259239,1,0,0,QQQ1,,,,,,,,English,2020-07-02_11h03.01.798,Experiment_English,3.2.4,Win32,60,,,1,0,340,262,1,339,ratio41_4_5_4.png,,,,,,,,,,,,
,,,,,,,,,,,,More than half,Some,Many,Few,None,All,Less than half,Half,Most,-0.485185145,-0.314814839,1,0,0,QQQ9,,,,,,,,English,2020-07-02_11h03.01.798,Experiment_English,3.2.4,Win32,60,,,1,0,340,317,1,339,ratio51_15_18_13.png,,,,,,,,,,,,
,,,,,,,,,,,,More than half,Many,Some,Most,Less than half,Few,None,All,Half,-0.074999976,-0.082407425,1,0,0,QQQ5,,,,,,,,English,2020-07-02_11h03.01.798,Experiment_English,3.2.4,Win32,60,,,1,0,340,115,1,339,ratio14_4_20_1.png,,,,,,,,,,,,
,,,,,,,,,,,,None,More than half,Few,Some,Half,Less than half,Many,Most,All,-0.435185143,0.020370356,1,0,0,QQQ8,,,,,,,,English,2020-07-02_11h03.01.798,Experiment_English,3.2.4,Win32,60,,,1,0,340,210,1,339,ratio31_9_12_9.png,,,,,,,,,,,,
,,,,,,,,,,,,Less than half,Half,All,Some,Few,Most,Many,None,More than half,-0.431481468,0.276851845,1,0,0,QQQ7,,,,,,,,English,2020-07-02_11h03.01.798,Experiment_English,3.2.4,Win32,60,,,1,0,340,119,1,339,ratio14_4_20_10.png,,,,,,,,,,,,
,,,,,,,,,,,,Less than half,Many,None,Most,Some,All,Half,More than half,Few,-0.461111098,-0.28703706,1,0,0,QQQ9,,,,,,,,English,2020-07-02_11h03.01.798,Experiment_English,3.2.4,Win32,60,,,1,0,340,148,1,339,ratio19_1_10_19.png,,,,,,,,,,,,
,,,,,,,,,,,,Few,Most,Less than half,None,Half,More than half,Many,Some,All,0.028703731,-0.016666682,1,0,0,QQQ5,,,,,,,,English,2020-07-02_11h03.01.798,Experiment_English,3.2.4,Win32,60,,,1,0,340,28,1,339,ratio11_5_10_9.png,,,,,,,,,,,,
,,,,,,,,,,,,Less than half,Few,All,More than half,Many,Half,Most,None,Some,0.001851935,0.262962956,1,0,0,QQQ4,,,,,,,,English,2020-07-02_11h03.01.798,Experiment_English,3.2.4,Win32,60,,,1,0,340,268,1,339,ratio41_8_10_5.png,,,,,,,,,,,,
,,,,,,,,,,,,Less than half,More than half,Few,None,Many,All,Some,Half,Most,0.379629667,0.006481467,1,0,0,QQQ2,,,,,,,,English,2020-07-02_11h03.01.798,Experiment_English,3.2.4,Win32,60,,,1,0,340,200,1,339,ratio31_3_4_4.png,,,,,,,,,,,,
,,,,,,,,,,,,Some,Less than half,Few,None,All,Half,Many,More than half,Most,-0.42870369,0.317592573,1,0,0,QQQ7,,,,,,,,English,2020-07-02_11h03.01.798,Experiment_English,3.2.4,Win32,60,,,1,0,340,271,1,339,ratio41_12_15_6.png,,,,,,,,,,,,
,,,,,,,,,,,,More than half,Most,Less than half,All,Many,None,Few,Half,Some,0.460185225,-0.01481483,1,0,0,QQQ2,,,,,,,,English,2020-07-02_11h03.01.798,Experiment_English,3.2.4,Win32,60,,,1,0,340,321,1,339,ratio91_9_10_2.png,0.317592629,-0.37870373,1,0,0,continue_button_pause,1,0,1,0,1,0
,,,,,,,,,,,,,,,,,,,,,,,,,,,,,,,,,,English,2020-07-02_11h03.01.798,Experiment_English,3.2.4,Win32,60,,,1,0,340,321,1,339,ratio91_9_10_2.png,,,,,,,,,,,,
,,,,,,,,,,,,Some,Less than half,Few,All,Many,None,Most,Half,More than half,-0.500925914,0.374999996,1,0,0,QQQ7,,,,,,,,English,2020-07-02_11h03.01.798,Experiment_English,3.2.4,Win32,60,,,1,0,340,322,1,339,ratio91_9_10_3.png,,,,,,,,,,,,
,,,,,,,,,,,,Few,Less than half,More than half,Some,All,Half,Most,None,Many,0.433333373,0.268518512,1,0,0,QQQ1,,,,,,,,English,2020-07-02_11h03.01.798,Experiment_English,3.2.4,Win32,60,,,1,0,340,157,1,339,ratio19_2_20_16.png,,,,,,,,,,,,
,,,,,,,,,,,,More than half,Most,All,Some,Less than half,Half,None,Few,Many,-0.480555543,0.277777771,1,0,0,QQQ7,,,,,,,,English,2020-07-02_11h03.01.798,Experiment_English,3.2.4,Win32,60,,,1,0,340,75,1,339,ratio0Y_0_16_10.png,,,,,,,,,,,,
,,,,,,,,,,,,Many,More than half,None,Few,All,Less than half,Most,Half,Some,-0.061111086,-0.36944447,1,0,0,QQQ6,,,,,,,,English,2020-07-02_11h03.01.798,Experiment_English,3.2.4,Win32,60,,,1,0,340,80,1,339,ratio13_1_4_3.png,,,,,,,,,,,,
,,,,,,,,,,,,Most,All,Few,Half,None,Less than half,Many,Some,More than half,-0.061111086,-0.36944447,1,0,0,QQQ6,,,,,,,,English,2020-07-02_11h03.01.798,Experiment_English,3.2.4,Win32,60,,,1,0,340,244,1,339,ratio34_3_7_9.png,,,,,,,,,,,,
,,,,,,,,,,,,More than half,Many,Some,Less than half,Few,Most,None,All,Half,-0.495370359,0.282407401,1,0,0,QQQ7,,,,,,,,English,2020-07-02_11h03.01.798,Experiment_English,3.2.4,Win32,60,,,1,0,340,69,1,339,ratio0Y_0_11_6.png,,,,,,,,,,,,
,,,,,,,,,,,,Few,Many,Less than half,Some,Most,None,All,Half,More than half,-0.082407383,-0.295370394,1,0,0,QQQ6,,,,,,,,English,2020-07-02_11h03.01.798,Experiment_English,3.2.4,Win32,60,,,1,0,340,72,1,339,ratio0Y_0_13_4.png,,,,,,,,,,,,
,,,,,,,,,,,,All,Less than half,More than half,Most,Half,None,Some,Few,Many,0.005555582,0.287962957,1,0,0,QQQ4,,,,,,,,English,2020-07-02_11h03.01.798,Experiment_English,3.2.4,Win32,60,,,1,0,340,303,1,339,ratio51_5_6_6.png,,,,,,,,,,,,
,,,,,,,,,,,,More than half,Some,Less than half,Half,Many,Most,None,Few,All,0.441666706,-0.257407486,1,0,0,QQQ3,,,,,,,,English,2020-07-02_11h03.01.798,Experiment_English,3.2.4,Win32,60,,,1,0,340,242,1,339,ratio34_3_7_6.png,,,,,,,,,,,,
,,,,,,,,,,,,All,Less than half,Many,None,Some,Half,More than half,Few,Most,0.461111151,-0.025000016,1,0,0,QQQ2,,,,,,,,English,2020-07-02_11h03.01.798,Experiment_English,3.2.4,Win32,60,,,1,0,340,192,1,339,ratio23_6_15_8.png,,,,,,,,,,,,
,,,,,,,,,,,,Many,Less than half,Some,More than half,None,All,Most,Half,Few,-0.396296282,-0.01481483,1,0,0,QQQ8,,,,,,,,English,2020-07-02_11h03.01.798,Experiment_English,3.2.4,Win32,60,,,1,0,340,30,1,339,ratio11_6_12_6.png,,,,,,,,,,,,
,,,,,,,,,,,,Many,Few,All,Most,Some,Half,None,Less than half,More than half,0.456481522,-0.04907409,1,0,0,QQQ2,,,,,,,,English,2020-07-02_11h03.01.798,Experiment_English,3.2.4,Win32,60,,,1,0,340,146,1,339,ratio19_1_10_17.png,,,,,,,,,,,,
,,,,,,,,,,,,Half,Many,None,Few,Less than half,More than half,All,Most,Some,-0.025925844,-0.031481497,1,0,0,QQQ5,,,,,,,,English,2020-07-02_11h03.01.798,Experiment_English,3.2.4,Win32,60,,,1,0,340,87,1,339,ratio13_2_8_8.png,,,,,,,,,,,,
,,,,,,,,,,,,Few,Most,Many,Some,None,All,Less than half,Half,More than half,0.107407437,0.299074068,1,0,0,QQQ4,,,,,,,,English,2020-07-02_11h03.01.798,Experiment_English,3.2.4,Win32,60,,,1,0,340,86,1,339,ratio13_2_8_6.png,,,,,,,,,,,,
,,,,,,,,,,,,More than half,None,Most,All,Less than half,Half,Few,Some,Many,0.01759262,0.042592579,1,0,0,QQQ5,,,,,,,,English,2020-07-02_11h03.01.798,Experiment_English,3.2.4,Win32,60,,,1,0,340,194,1,339,ratio23_6_15_10.png,,,,,,,,,,,,
,,,,,,,,,,,,All,Some,Half,Most,More than half,Few,Many,None,Less than half,-0.424074032,0.309259239,1,0,0,QQQ7,,,,,,,,English,2020-07-02_11h03.01.798,Experiment_English,3.2.4,Win32,60,,,1,0,340,316,1,339,ratio51_15_18_11.png,,,,,,,,,,,,
,,,,,,,,,,,,Few,More than half,None,All,Less than half,Some,Half,Many,Most,0.092592622,-0.015740756,1,0,0,QQQ5,,,,,,,,English,2020-07-02_11h03.01.798,Experiment_English,3.2.4,Win32,60,,,1,0,340,4,1,339,ratio12_2_6_5.png,,,,,,,,,,,,
,,,,,,,,,,,,Few,Many,More than half,Less than half,Half,All,Some,None,Most,0.025000027,0.255555548,1,0,0,QQQ4,,,,,,,,English,2020-07-02_11h03.01.798,Experiment_English,3.2.4,Win32,60,,,1,0,340,149,1,339,ratio19_1_10_20.png,,,,,,,,,,,,
,,,,,,,,,,,,More than half,Few,Less than half,Some,All,None,Most,Half,Many,-0.414814801,-0.01944446,1,0,0,QQQ8,,,,,,,,English,2020-07-02_11h03.01.798,Experiment_English,3.2.4,Win32,60,,,1,0,340,291,1,339,ratio43_8_14_5.png,,,,,,,,,,,,
,,,,,,,,,,,,Many,All,Less than half,Few,Half,Most,None,More than half,Some,0.40648152,-0.029629645,1,0,0,QQQ2,,,,,,,,English,2020-07-02_11h03.01.798,Experiment_English,3.2.4,Win32,60,,,1,0,340,41,1,339,ratioX0_4_4_9.png,,,,,,,,,,,,
,,,,,,,,,,,,Most,None,Few,Less than half,All,Many,Some,More than half,Half,0.080555584,0.354629625,1,0,0,QQQ4,,,,,,,,English,2020-07-02_11h03.01.798,Experiment_English,3.2.4,Win32,60,,,1,0,340,248,1,339,ratio34_3_7_19.png,,,,,,,,,,,,
,,,,,,,,,,,,None,Many,Few,Less than half,More than half,Half,All,Some,Most,0.009259286,0.270370349,1,0,0,QQQ4,,,,,,,,English,2020-07-02_11h03.01.798,Experiment_English,3.2.4,Win32,60,,,1,0,340,96,1,339,ratio13_5_20_1.png,,,,,,,,,,,,
,,,,,,,,,,,,More than half,All,Few,Half,Many,Less than half,None,Most,Some,0.013888916,-0.299074154,1,0,0,QQQ6,,,,,,,,English,2020-07-02_11h03.01.798,Experiment_English,3.2.4,Win32,60,,,1,0,340,105,1,339,ratio14_2_10_1.png,,,,,,,,,,,,
,,,,,,,,,,,,More than half,Many,Most,All,Few,Some,Less than half,Half,None,-0.436111098,0.276851845,1,0,0,QQQ7,,,,,,,,English,2020-07-02_11h03.01.798,Experiment_English,3.2.4,Win32,60,,,1,0,340,151,1,339,ratio19_2_20_4.png,,,,,,,,,,,,
,,,,,,,,,,,,Less than half,Many,Some,Half,Few,More than half,Most,None,All,0.015740824,-0.227777799,1,0,0,QQQ6,,,,,,,,English,2020-07-02_11h03.01.798,Experiment_English,3.2.4,Win32,60,,,1,0,340,325,1,339,ratio91_9_10_8.png,,,,,,,,,,,,
,,,,,,,,,,,,Few,Less than half,Most,Half,Some,None,More than half,Many,All,-0.5111111,0.274074067,1,0,0,QQQ7,,,,,,,,English,2020-07-02_11h03.01.798,Experiment_English,3.2.4,Win32,60,,,1,0,340,177,1,339,ratio21_12_18_1.png,,,,,,,,,,,,
,,,,,,,,,,,,None,Half,Most,More than half,Few,Less than half,Many,Some,All,0.01759262,0.355555551,1,0,0,QQQ4,,,,,,,,English,2020-07-02_11h03.01.798,Experiment_English,3.2.4,Win32,60,,,1,0,340,223,1,339,ratio32_3_5_5.png,,,,,,,,,,,,
,,,,,,,,,,,,Most,Many,Half,Less than half,None,More than half,Some,All,Few,0.496296338,0.290740735,1,0,0,QQQ1,,,,,,,,English,2020-07-02_11h03.01.798,Experiment_English,3.2.4,Win32,60,,,1,0,340,331,1,339,ratio91_18_20_3.png,,,,,,,,,,,,
,,,,,,,,,,,,Most,None,Less than half,All,Half,Some,More than half,Many,Few,-0.451851811,-0.258333356,1,0,0,QQQ9,,,,,,,,English,2020-07-02_11h03.01.798,Experiment_English,3.2.4,Win32,60,,,1,0,340,130,1,339,ratio15_2_12_12.png,,,,,,,,,,,,
,,,,,,,,,,,,Most,Few,None,All,Some,Less than half,Half,More than half,Many,0.115740771,0.289814794,1,0,0,QQQ4,,,,,,,,English,2020-07-02_11h03.01.798,Experiment_English,3.2.4,Win32,60,,,1,0,340,47,1,339,ratioX0_9_9_4.png,,,,,,,,,,,,
,,,,,,,,,,,,Few,Most,Half,None,More than half,All,Less than half,Some,Many,0.487037078,0.029629587,1,0,0,QQQ2,,,,,,,,English,2020-07-02_11h03.01.798,Experiment_English,3.2.4,Win32,60,,,1,0,340,205,1,339,ratio31_6_8_2.png,,,,,,,,,,,,
,,,,,,,,,,,,Half,Less than half,Many,Some,Most,Few,None,More than half,All,0.08148151,0.011111097,1,0,0,QQQ5,,,,,,,,English,2020-07-02_11h03.01.798,Experiment_English,3.2.4,Win32,60,,,1,0,340,330,1,339,ratio91_18_20_2.png,,,,,,,,,,,,
,,,,,,,,,,,,None,More than half,All,Less than half,Some,Most,Half,Many,Few,-0.41944443,0.34444444,1,0,0,QQQ7,,,,,,,,English,2020-07-02_11h03.01.798,Experiment_English,3.2.4,Win32,60,,,1,0,340,187,1,339,ratio23_4_10_5.png,,,,,,,,,,,,
,,,,,,,,,,,,Most,All,Less than half,Some,Half,Few,More than half,Many,None,0.540740783,-0.324074155,1,0,0,QQQ3,,,,,,,,English,2020-07-02_11h03.01.798,Experiment_English,3.2.4,Win32,60,,,1,0,340,136,1,339,ratio15_3_18_8.png,0.347222259,-0.390740824,1,0,0,continue_button_pause,1,0,1,0,1,0
,,,,,,,,,,,,,,,,,,,,,,,,,,,,,,,,,,English,2020-07-02_11h03.01.798,Experiment_English,3.2.4,Win32,60,,,1,0,340,136,1,339,ratio15_3_18_8.png,,,,,,,,,,,,
,,,,,,,,,,,,All,Half,Few,Some,Many,More than half,Most,None,Less than half,-0.024074048,-0.273148171,1,0,0,QQQ6,,,,,,,,English,2020-07-02_11h03.01.798,Experiment_English,3.2.4,Win32,60,,,1,0,340,236,1,339,ratio32_12_20_2.png,,,,,,,,,,,,
,,,,,,,,,,,,Most,Some,Many,Half,Few,None,More than half,Less than half,All,0.039814842,-0.016666682,1,0,0,QQQ5,,,,,,,,English,2020-07-02_11h03.01.798,Experiment_English,3.2.4,Win32,60,,,1,0,340,143,1,339,ratio19_1_10_9.png,,,,,,,,,,,,
,,,,,,,,,,,,Few,All,Less than half,More than half,Many,Most,Half,Some,None,-0.492592581,-0.318518599,1,0,0,QQQ9,,,,,,,,English,2020-07-02_11h03.01.798,Experiment_English,3.2.4,Win32,60,,,1,0,340,78,1,339,ratio0Y_0_19_1.png,,,,,,,,,,,,
,,,,,,,,,,,,Most,Many,All,Half,More than half,Some,Less than half,Few,None,-0.454629588,0.239814807,1,0,0,QQQ7,,,,,,,,English,2020-07-02_11h03.01.798,Experiment_English,3.2.4,Win32,60,,,1,0,340,5,1,339,ratio12_2_6_9.png,,,,,,,,,,,,
,,,,,,,,,,,,Few,Half,Less than half,Many,More than half,Most,All,Some,None,-0.027777752,-0.322222247,1,0,0,QQQ6,,,,,,,,English,2020-07-02_11h03.01.798,Experiment_English,3.2.4,Win32,60,,,1,0,340,327,1,339,ratio91_9_10_11.png,,,,,,,,,,,,
,,,,,,,,,,,,Many,More than half,Less than half,None,Most,Few,Half,All,Some,-0.019444419,0.004629615,1,0,0,QQQ5,,,,,,,,English,2020-07-02_11h03.01.798,Experiment_English,3.2.4,Win32,60,,,1,0,340,261,1,339,ratio41_4_5_3.png,,,,,,,,,,,,
,,,,,,,,,,,,More than half,Many,Less than half,All,Half,Few,None,Most,Some,-0.407407393,-0.012037052,1,0,0,QQQ8,,,,,,,,English,2020-07-02_11h03.01.798,Experiment_English,3.2.4,Win32,60,,,1,0,340,219,1,339,ratio31_15_20_10.png,,,,,,,,,,,,
,,,,,,,,,,,,More than half,Many,None,All,Few,Some,Half,Less than half,Most,-0.010185159,0.0148148,1,0,0,QQQ5,,,,,,,,English,2020-07-02_11h03.01.798,Experiment_English,3.2.4,Win32,60,,,1,0,340,108,1,339,ratio14_2_10_6.png,,,,,,,,,,,,
,,,,,,,,,,,,Few,Some,All,More than half,Most,Many,Half,Less than half,None,-0.452777765,-0.051851868,1,0,0,QQQ8,,,,,,,,English,2020-07-02_11h03.01.798,Experiment_English,3.2.4,Win32,60,,,1,0,340,7,1,339,ratio12_3_9_2.png,,,,,,,,,,,,
,,,,,,,,,,,,Some,More than half,None,Many,Less than half,Few,Most,All,Half,-0.087962939,-0.338888914,1,0,0,QQQ6,,,,,,,,English,2020-07-02_11h03.01.798,Experiment_English,3.2.4,Win32,60,,,1,0,340,150,1,339,ratio19_2_20_1.png,,,,,,,,,,,,
,,,,,,,,,,,,Less than half,Few,Half,Most,More than half,None,Many,Some,All,0.45462967,-0.298148172,1,0,0,QQQ3,,,,,,,,English,2020-07-02_11h03.01.798,Experiment_English,3.2.4,Win32,60,,,1,0,340,22,1,339,ratio11_3_6_6.png,,,,,,,,,,,,
,,,,,,,,,,,,Some,Many,More than half,Less than half,All,Half,None,Few,Most,-0.39444443,0.298148128,1,0,0,QQQ7,,,,,,,,English,2020-07-02_11h03.01.798,Experiment_English,3.2.4,Win32,60,,,1,0,340,65,1,339,ratio0Y_0_8_4.png,,,,,,,,,,,,
,,,,,,,,,,,,Most,Half,Less than half,Few,More than half,Many,All,None,Some,-0.576851843,0.290740735,1,0,0,QQQ7,,,,,,,,English,2020-07-02_11h03.01.798,Experiment_English,3.2.4,Win32,60,,,1,0,340,57,1,339,ratioX0_18_18_1.png,,,,,,,,,,,,
,,,,,,,,,,,,None,Most,Less than half,Half,More than half,All,Some,Few,Many,0.577777821,-0.29166669,1,0,0,QQQ3,,,,,,,,English,2020-07-02_11h03.01.798,Experiment_English,3.2.4,Win32,60,,,1,0,340,110,1,339,ratio14_3_15_2.png,,,,,,,,,,,,
,,,,,,,,,,,,Some,More than half,Few,Many,Half,Less than half,All,None,Most,0.474074115,0.034259245,1,0,0,QQQ2,,,,,,,,English,2020-07-02_11h03.01.798,Experiment_English,3.2.4,Win32,60,,,1,0,340,220,1,339,ratio32_3_5_1.png,,,,,,,,,,,,
,,,,,,,,,,,,More than half,Half,Many,Few,Less than half,All,Most,Some,None,0.487037078,-0.30462971,1,0,0,QQQ3,,,,,,,,English,2020-07-02_11h03.01.798,Experiment_English,3.2.4,Win32,60,,,1,0,340,235,1,339,ratio32_12_20_1.png,,,,,,,,,,,,
,,,,,,,,,,,,Many,All,Half,Most,None,Less than half,More than half,Few,Some,-0.01759251,-0.020370386,1,0,0,QQQ5,,,,,,,,English,2020-07-02_11h03.01.798,Experiment_English,3.2.4,Win32,60,,,1,0,340,73,1,339,ratio0Y_0_14_7.png,,,,,,,,,,,,
,,,,,,,,,,,,None,All,Few,More than half,Less than half,Most,Half,Many,Some,-0.01759251,0.278703683,1,0,0,QQQ4,,,,,,,,English,2020-07-02_11h03.01.798,Experiment_English,3.2.4,Win32,60,,,1,0,340,213,1,339,ratio31_12_16_2.png,,,,,,,,,,,,
,,,,,,,,,,,,Most,None,Less than half,All,Some,Few,Half,Many,More than half,-0.340740724,-0.042592609,1,0,0,QQQ8,,,,,,,,English,2020-07-02_11h03.01.798,Experiment_English,3.2.4,Win32,60,,,1,0,340,256,1,339,ratio34_6_14_11.png,,,,,,,,,,,,
,,,,,,,,,,,,Most,Few,Less than half,All,Half,Some,More than half,Many,None,0.463888929,0.250925919,1,0,0,QQQ1,,,,,,,,English,2020-07-02_11h03.01.798,Experiment_English,3.2.4,Win32,60,,,1,0,340,337,1,339,ratio91_18_20_16.png,,,,,,,,,,,,
,,,,,,,,,,,,None,Most,Few,Less than half,Many,Some,All,More than half,Half,0.514814857,0.33981481,1,0,0,QQQ1,,,,,,,,English,2020-07-02_11h03.01.798,Experiment_English,3.2.4,Win32,60,,,1,0,340,71,1,339,ratio0Y_0_12_10.png,,,,,,,,,,,,
,,,,,,,,,,,,More than half,Less than half,Some,All,Many,Most,None,Few,Half,0.490740782,0.299999994,1,0,0,QQQ1,,,,,,,,English,2020-07-02_11h03.01.798,Experiment_English,3.2.4,Win32,60,,,1,0,340,238,1,339,ratio32_12_20_9.png,,,,,,,,,,,,
,,,,,,,,,,,,Less than half,All,Some,None,Many,More than half,Most,Few,Half,0.036111139,-0.275000023,1,0,0,QQQ6,,,,,,,,English,2020-07-02_11h03.01.798,Experiment_English,3.2.4,Win32,60,,,1,0,340,311,1,339,ratio51_10_12_14.png,,,,,,,,,,,,
,,,,,,,,,,,,Some,Half,More than half,Many,Most,Less than half,All,Few,None,0.055555584,-0.267592615,1,0,0,QQQ6,,,,,,,,English,2020-07-02_11h03.01.798,Experiment_English,3.2.4,Win32,60,,,1,0,340,132,1,339,ratio15_2_12_16.png,,,,,,,,,,,,
,,,,,,,,,,,,Few,Most,Some,All,Less than half,Many,Half,More than half,None,0.04259262,0.316666661,1,0,0,QQQ4,,,,,,,,English,2020-07-02_11h03.01.798,Experiment_English,3.2.4,Win32,60,,,1,0,340,40,1,339,ratioX0_3_3_5.png,,,,,,,,,,,,
,,,,,,,,,,,,Less than half,More than half,Most,Some,None,Half,Many,Few,All,-0.456481469,-0.260185264,1,0,0,QQQ9,,,,,,,,English,2020-07-02_11h03.01.798,Experiment_English,3.2.4,Win32,60,,,1,0,340,42,1,339,ratioX0_5_5_5.png,,,,,,,,,,,,
,,,,,,,,,,,,Few,Less than half,None,Most,More than half,Some,All,Many,Half,0.485185226,-0.008333348,1,0,0,QQQ2,,,,,,,,English,2020-07-02_11h03.01.798,Experiment_English,3.2.4,Win32,60,,,1,0,340,90,1,339,ratio13_3_12_7.png,,,,,,,,,,,,
,,,,,,,,,,,,None,Half,All,Few,Some,Most,More than half,Many,Less than half,0.054629714,0.248148141,1,0,0,QQQ4,,,,,,,,English,2020-07-02_11h03.01.798,Experiment_English,3.2.4,Win32,60,,,1,0,340,154,1,339,ratio19_2_20_11.png,,,,,,,,,,,,
,,,,,,,,,,,,Few,All,Most,Less than half,More than half,None,Some,Half,Many,0.423148187,0.270370349,1,0,0,QQQ1,,,,,,,,English,2020-07-02_11h03.01.798,Experiment_English,3.2.4,Win32,60,,,1,0,340,131,1,339,ratio15_2_12_14.png,,,,,,,,,,,,
,,,,,,,,,,,,All,Some,None,Few,More than half,Most,Less than half,Many,Half,-0.026851826,0.002777763,1,0,0,QQQ5,,,,,,,,English,2020-07-02_11h03.01.798,Experiment_English,3.2.4,Win32,60,,,1,0,340,288,1,339,ratio43_4_7_18.png,,,,,,,,,,,,
,,,,,,,,,,,,Many,More than half,Few,None,Half,Less than half,All,Most,Some,0.49351856,0.049074032,1,0,0,QQQ2,,,,,,,,English,2020-07-02_11h03.01.798,Experiment_English,3.2.4,Win32,60,,,1,0,340,211,1,339,ratio31_9_12_10.png,,,,,,,,,,,,
,,,,,,,,,,,,Many,More than half,Most,Few,Half,All,Some,None,Less than half,-0.444444431,-0.270370393,1,0,0,QQQ9,,,,,,,,English,2020-07-02_11h03.01.798,Experiment_English,3.2.4,Win32,60,,,1,0,340,120,1,339,ratio15_1_6_1.png,,,,,,,,,,,,
,,,,,,,,,,,,All,None,More than half,Most,Less than half,Half,Few,Many,Some,0.020370397,-0.329629711,1,0,0,QQQ6,,,,,,,,English,2020-07-02_11h03.01.798,Experiment_English,3.2.4,Win32,60,,,1,0,340,290,1,339,ratio43_8_14_3.png,,,,,,,,,,,,
,,,,,,,,,,,,Less than half,None,Some,Few,Many,All,Most,More than half,Half,0.388888927,0.264814794,1,0,0,QQQ1,,,,,,,,English,2020-07-02_11h03.01.798,Experiment_English,3.2.4,Win32,60,,,1,0,340,191,1,339,ratio23_6_15_7.png,0.397222261,-0.400925953,1,0,0,continue_button_pause,1,0,1,0,1,0
,,,,,,,,,,,,,,,,,,,,,,,,,,,,,,,,,,English,2020-07-02_11h03.01.798,Experiment_English,3.2.4,Win32,60,,,1,0,340,191,1,339,ratio23_6_15_7.png,,,,,,,,,,,,
,,,,,,,,,,,,Half,Most,None,Some,Less than half,Few,All,Many,More than half,-0.499999988,-0.310185266,1,0,0,QQQ9,,,,,,,,English,2020-07-02_11h03.01.798,Experiment_English,3.2.4,Win32,60,,,1,0,340,232,1,339,ratio32_9_15_8.png,,,,,,,,,,,,
,,,,,,,,,,,,None,Half,More than half,All,Most,Few,Some,Many,Less than half,-0.450925913,-0.270370393,1,0,0,QQQ9,,,,,,,,English,2020-07-02_11h03.01.798,Experiment_English,3.2.4,Win32,60,,,1,0,340,29,1,339,ratio11_6_12_1.png,,,,,,,,,,,,
,,,,,,,,,,,,Half,All,Less than half,Many,Some,Few,Most,More than half,None,0.427777817,-0.279629709,1,0,0,QQQ3,,,,,,,,English,2020-07-02_11h03.01.798,Experiment_English,3.2.4,Win32,60,,,1,0,340,94,1,339,ratio13_4_16_8.png,,,,,,,,,,,,
,,,,,,,,,,,,Less than half,Most,Many,Some,None,Half,Few,All,More than half,-0.420370356,-0.255555578,1,0,0,QQQ9,,,,,,,,English,2020-07-02_11h03.01.798,Experiment_English,3.2.4,Win32,60,,,1,0,340,319,1,339,ratio51_15_18_20.png,,,,,,,,,,,,
,,,,,,,,,,,,Some,Many,None,Few,More than half,All,Most,Less than half,Half,0.04259262,-0.294444468,1,0,0,QQQ6,,,,,,,,English,2020-07-02_11h03.01.798,Experiment_English,3.2.4,Win32,60,,,1,0,340,48,1,339,ratioX0_10_10_1.png,,,,,,,,,,,,
,,,,,,,,,,,,All,Most,More than half,Many,Some,Half,None,Few,Less than half,0.498148189,-0.262963042,1,0,0,QQQ3,,,,,,,,English,2020-07-02_11h03.01.798,Experiment_English,3.2.4,Win32,60,,,1,0,340,215,1,339,ratio31_12_16_8.png,,,,,,,,,,,,
,,,,,,,,,,,,Many,More than half,Half,Few,Some,Most,All,None,Less than half,0.500925967,-0.012962978,1,0,0,QQQ2,,,,,,,,English,2020-07-02_11h03.01.798,Experiment_English,3.2.4,Win32,60,,,1,0,340,214,1,339,ratio31_12_16_5.png,,,,,,,,,,,,
,,,,,,,,,,,,All,Few,Less than half,Many,Most,Some,More than half,None,Half,0.56666671,-0.275000023,1,0,0,QQQ3,,,,,,,,English,2020-07-02_11h03.01.798,Experiment_English,3.2.4,Win32,60,,,1,0,340,153,1,339,ratio19_2_20_8.png,,,,,,,,,,,,
,,,,,,,,,,,,Some,Many,Less than half,All,Most,Few,More than half,None,Half,0.522222264,-0.294444468,1,0,0,QQQ3,,,,,,,,English,2020-07-02_11h03.01.798,Experiment_English,3.2.4,Win32,60,,,1,0,340,31,1,339,ratio11_6_12_9.png,,,,,,,,,,,,
,,,,,,,,,,,,None,All,Many,Most,More than half,Few,Half,Some,Less than half,-0.464814802,-0.258333356,1,0,0,QQQ9,,,,,,,,English,2020-07-02_11h03.01.798,Experiment_English,3.2.4,Win32,60,,,1,0,340,186,1,339,ratio23_4_10_2.png,,,,,,,,,,,,
,,,,,,,,,,,,Less than half,All,More than half,Few,Many,Some,Most,Half,None,0.514814857,-0.257407486,1,0,0,QQQ3,,,,,,,,English,2020-07-02_11h03.01.798,Experiment_English,3.2.4,Win32,60,,,1,0,340,27,1,339,ratio11_5_10_7.png,,,,,,,,,,,,
,,,,,,,,,,,,Some,Less than half,Half,Most,More than half,None,Few,All,Many,0.114814845,-0.036111127,1,0,0,QQQ5,,,,,,,,English,2020-07-02_11h03.01.798,Experiment_English,3.2.4,Win32,60,,,1,0,340,201,1,339,ratio31_3_4_7.png,,,,,,,,,,,,
,,,,,,,,,,,,Less than half,Half,None,All,Few,Most,Some,Many,More than half,-0.484259247,-0.33981484,1,0,0,QQQ9,,,,,,,,English,2020-07-02_11h03.01.798,Experiment_English,3.2.4,Win32,60,,,1,0,340,308,1,339,ratio51_10_12_9.png,,,,,,,,,,,,
,,,,,,,,,,,,Many,Half,Few,Less than half,All,Some,None,More than half,Most,-0.496296256,-0.038888905,1,0,0,QQQ8,,,,,,,,English,2020-07-02_11h03.01.798,Experiment_English,3.2.4,Win32,60,,,1,0,340,299,1,339,ratio43_8_14_17.png,,,,,,,,,,,,
,,,,,,,,,,,,Few,Half,Some,Less than half,None,All,More than half,Many,Most,-0.049074049,0.330555551,1,0,0,QQQ4,,,,,,,,English,2020-07-02_11h03.01.798,Experiment_English,3.2.4,Win32,60,,,1,0,340,127,1,339,ratio15_2_12_2.png,,,,,,,,,,,,
,,,,,,,,,,,,Half,More than half,Few,Many,All,Some,Most,None,Less than half,-0.487962923,-0.275925949,1,0,0,QQQ9,,,,,,,,English,2020-07-02_11h03.01.798,Experiment_English,3.2.4,Win32,60,,,1,0,340,144,1,339,ratio19_1_10_11.png,,,,,,,,,,,,
,,,,,,,,,,,,Most,Few,All,Less than half,Half,Many,Some,None,More than half,-0.42870369,-0.011111126,1,0,0,QQQ8,,,,,,,,English,2020-07-02_11h03.01.798,Experiment_English,3.2.4,Win32,60,,,1,0,340,70,1,339,ratio0Y_0_12_5.png,,,,,,,,,,,,
,,,,,,,,,,,,None,Few,More than half,Most,Half,Some,Less than half,All,Many,-0.412962949,0.280555549,1,0,0,QQQ7,,,,,,,,English,2020-07-02_11h03.01.798,Experiment_English,3.2.4,Win32,60,,,1,0,340,188,1,339,ratio23_4_10_6.png,,,,,,,,,,,,
,,,,,,,,,,,,Less than half,Most,None,Many,Few,All,Half,Some,More than half,-0.509259248,-0.314814839,1,0,0,QQQ9,,,,,,,,English,2020-07-02_11h03.01.798,Experiment_English,3.2.4,Win32,60,,,1,0,340,226,1,339,ratio32_6_10_5.png,,,,,,,,,,,,
,,,,,,,,,,,,Less than half,Few,All,Half,Most,More than half,Many,Some,None,-0.049999975,-0.020370386,1,0,0,QQQ5,,,,,,,,English,2020-07-02_11h03.01.798,Experiment_English,3.2.4,Win32,60,,,1,0,340,320,1,339,ratio91_9_10_1.png,,,,,,,,,,,,
,,,,,,,,,,,,All,Some,Few,Most,None,Half,Many,More than half,Less than half,-0.3898148,0.033333319,1,0,0,QQQ8,,,,,,,,English,2020-07-02_11h03.01.798,Experiment_English,3.2.4,Win32,60,,,1,0,340,163,1,339,ratio21_4_6_1.png,,,,,,,,,,,,
,,,,,,,,,,,,Most,Few,Some,None,All,Less than half,Many,More than half,Half,0.023148175,-0.30462971,1,0,0,QQQ6,,,,,,,,English,2020-07-02_11h03.01.798,Experiment_English,3.2.4,Win32,60,,,1,0,340,145,1,339,ratio19_1_10_15.png,,,,,,,,,,,,
,,,,,,,,,,,,Most,Some,Less than half,Few,Half,All,None,Many,More than half,-0.442592579,-0.277777801,1,0,0,QQQ9,,,,,,,,English,2020-07-02_11h03.01.798,Experiment_English,3.2.4,Win32,60,,,1,0,340,212,1,339,ratio31_12_16_1.png,,,,,,,,,,,,
,,,,,,,,,,,,Some,Few,Half,Many,More than half,Less than half,Most,All,None,-0.041666641,-0.284259283,1,0,0,QQQ6,,,,,,,,English,2020-07-02_11h03.01.798,Experiment_English,3.2.4,Win32,60,,,1,0,340,2,1,339,ratio12_1_3_10.png,,,,,,,,,,,,
,,,,,,,,,,,,More than half,Many,Most,Less than half,Half,Some,Few,None,All,0.433333373,0.331481476,1,0,0,QQQ1,,,,,,,,English,2020-07-02_11h03.01.798,Experiment_English,3.2.4,Win32,60,,,1,0,340,269,1,339,ratio41_8_10_6.png,,,,,,,,,,,,
,,,,,,,,,,,,All,Many,Some,Few,Most,Half,None,Less than half,More than half,-0.42685181,-0.212963041,1,0,0,QQQ9,,,,,,,,English,2020-07-02_11h03.01.798,Experiment_English,3.2.4,Win32,60,,,1,0,340,206,1,339,ratio31_6_8_6.png,,,,,,,,,,,,
,,,,,,,,,,,,Few,All,Half,Many,More than half,Less than half,None,Some,Most,-0.083333309,-0.332407489,1,0,0,QQQ6,,,,,,,,English,2020-07-02_11h03.01.798,Experiment_English,3.2.4,Win32,60,,,1,0,340,85,1,339,ratio13_2_8_5.png,,,,,,,,,,,,
,,,,,,,,,,,,Many,None,Less than half,More than half,Few,Half,All,Most,Some,0.053703732,0.329629625,1,0,0,QQQ4,,,,,,,,English,2020-07-02_11h03.01.798,Experiment_English,3.2.4,Win32,60,,,1,0,340,26,1,339,ratio11_5_10_4.png,,,,,,,,,,,,
,,,,,,,,,,,,Many,Most,None,Less than half,More than half,Half,Few,All,Some,0.02129638,0.270370349,1,0,0,QQQ4,,,,,,,,English,2020-07-02_11h03.01.798,Experiment_English,3.2.4,Win32,60,,,1,0,340,116,1,339,ratio14_4_20_3.png,,,,,,,,,,,,
,,,,,,,,,,,,Some,Many,None,Few,Half,Most,All,More than half,Less than half,0.037963047,0.033333319,1,0,0,QQQ5,,,,,,,,English,2020-07-02_11h03.01.798,Experiment_English,3.2.4,Win32,60,,,1,0,340,283,1,339,ratio43_4_7_8.png,,,,,,,,,,,,
,,,,,,,,,,,,Some,Less than half,None,Many,Most,Few,Half,More than half,All,0.507407449,0.012962948,1,0,0,QQQ2,,,,,,,,English,2020-07-02_11h03.01.798,Experiment_English,3.2.4,Win32,60,,,1,0,340,117,1,339,ratio14_4_20_6.png,,,,,,,,,,,,
,,,,,,,,,,,,Half,Less than half,Few,Most,Many,None,All,Some,More than half,-0.461111098,-0.273148171,1,0,0,QQQ9,,,,,,,,English,2020-07-02_11h03.01.798,Experiment_English,3.2.4,Win32,60,,,1,0,340,334,1,339,ratio91_18_20_9.png,,,,,,,,,,,,
,,,,,,,,,,,,Most,All,Many,Few,Less than half,More than half,Half,None,Some,0.025000027,-0.300000024,1,0,0,QQQ6,,,,,,,,English,2020-07-02_11h03.01.798,Experiment_English,3.2.4,Win32,60,,,1,0,340,312,1,339,ratio51_10_12_16.png,,,,,,,,,,,,
,,,,,,,,,,,,Most,All,Half,Many,Less than half,More than half,Few,Some,None,0.562963006,0.052777764,1,0,0,QQQ2,,,,,,,,English,2020-07-02_11h03.01.798,Experiment_English,3.2.4,Win32,60,,,1,0,340,13,1,339,ratio12_5_15_3.png,0.375000038,-0.390740824,1,0,0,continue_button_pause,1,0,1,0,1,0
,,,,,,,,,,,,,,,,,,,,,,,,,,,,,,,,,,English,2020-07-02_11h03.01.798,Experiment_English,3.2.4,Win32,60,,,1,0,340,13,1,339,ratio12_5_15_3.png,,,,,,,,,,,,
,,,,,,,,,,,,None,Half,Some,Less than half,All,Many,Most,Few,More than half,0.02129638,0.281481461,1,0,0,QQQ4,,,,,,,,English,2020-07-02_11h03.01.798,Experiment_English,3.2.4,Win32,60,,,1,0,340,158,1,339,ratio19_2_20_17.png,,,,,,,,,,,,
,,,,,,,,,,,,None,Less than half,All,Half,Few,Some,Most,More than half,Many,0.438888928,-0.0101852,1,0,0,QQQ2,,,,,,,,English,2020-07-02_11h03.01.798,Experiment_English,3.2.4,Win32,60,,,1,0,340,104,1,339,ratio14_1_5_10.png,,,,,,,,,,,,
,,,,,,,,,,,,Half,Less than half,Most,More than half,Some,Few,Many,All,None,0.009259286,0.306481462,1,0,0,QQQ4,,,,,,,,English,2020-07-02_11h03.01.798,Experiment_English,3.2.4,Win32,60,,,1,0,340,338,1,339,ratio91_18_20_18.png,,,,,,,,,,,,
,,,,,,,,,,,,More than half,Many,All,Most,Less than half,Half,None,Some,Few,0.480555596,0.30555555,1,0,0,QQQ1,,,,,,,,English,2020-07-02_11h03.01.798,Experiment_English,3.2.4,Win32,60,,,1,0,340,231,1,339,ratio32_9_15_2.png,,,,,,,,,,,,
,,,,,,,,,,,,Some,Half,All,Most,Few,Many,Less than half,More than half,None,-0.409259245,0.024999986,1,0,0,QQQ8,,,,,,,,English,2020-07-02_11h03.01.798,Experiment_English,3.2.4,Win32,60,,,1,0,340,323,1,339,ratio91_9_10_5.png,,,,,,,,,,,,
,,,,,,,,,,,,Less than half,Many,Half,None,Some,All,More than half,Most,Few,0.397222261,-0.018518534,1,0,0,QQQ2,,,,,,,,English,2020-07-02_11h03.01.798,Experiment_English,3.2.4,Win32,60,,,1,0,340,193,1,339,ratio23_6_15_9.png,,,,,,,,,,,,
,,,,,,,,,,,,More than half,Many,Some,Most,Less than half,Few,None,All,Half,0.029629714,-0.020370386,1,0,0,QQQ5,,,,,,,,English,2020-07-02_11h03.01.798,Experiment_English,3.2.4,Win32,60,,,1,0,340,184,1,339,ratio23_2_5_10.png,,,,,,,,,,,,
,,,,,,,,,,,,Half,Most,Few,Less than half,Many,More than half,None,All,Some,0.429629669,0.303703684,1,0,0,QQQ1,,,,,,,,English,2020-07-02_11h03.01.798,Experiment_English,3.2.4,Win32,60,,,1,0,340,249,1,339,ratio34_3_7_20.png,,,,,,,,,,,,
,,,,,,,,,,,,Half,None,All,Most,Less than half,More than half,Some,Few,Many,-0.02129627,-0.296296377,1,0,0,QQQ6,,,,,,,,English,2020-07-02_11h03.01.798,Experiment_English,3.2.4,Win32,60,,,1,0,340,239,1,339,ratio32_12_20_10.png,,,,,,,,,,,,
,,,,,,,,,,,,None,More than half,Many,Few,Some,All,Less than half,Most,Half,0.437963003,-0.006481497,1,0,0,QQQ2,,,,,,,,English,2020-07-02_11h03.01.798,Experiment_English,3.2.4,Win32,60,,,1,0,340,172,1,339,ratio21_8_12_6.png,,,,,,,,,,,,
,,,,,,,,,,,,More than half,Half,None,All,Most,Few,Some,Less than half,Many,-0.456481469,0.037962921,1,0,0,QQQ8,,,,,,,,English,2020-07-02_11h03.01.798,Experiment_English,3.2.4,Win32,60,,,1,0,340,91,1,339,ratio13_3_12_10.png,,,,,,,,,,,,
,,,,,,,,,,,,Half,Less than half,Many,All,None,Some,Most,More than half,Few,0.407407446,0.022222208,1,0,0,QQQ2,,,,,,,,English,2020-07-02_11h03.01.798,Experiment_English,3.2.4,Win32,60,,,1,0,340,16,1,339,ratio12_5_15_6.png,,,,,,,,,,,,
,,,,,,,,,,,,Most,None,More than half,Many,Half,Less than half,All,Few,Some,0.070370399,-0.315740822,1,0,0,QQQ6,,,,,,,,English,2020-07-02_11h03.01.798,Experiment_English,3.2.4,Win32,60,,,1,0,340,83,1,339,ratio13_1_4_10.png,,,,,,,,,,,,
,,,,,,,,,,,,Many,Few,Some,Less than half,More than half,None,Half,All,Most,0.04259262,0.224074066,1,0,0,QQQ4,,,,,,,,English,2020-07-02_11h03.01.798,Experiment_English,3.2.4,Win32,60,,,1,0,340,125,1,339,ratio15_1_6_19.png,,,,,,,,,,,,
,,,,,,,,,,,,Many,Half,Few,Some,None,Less than half,Most,All,More than half,-0.432407366,-0.275000023,1,0,0,QQQ9,,,,,,,,English,2020-07-02_11h03.01.798,Experiment_English,3.2.4,Win32,60,,,1,0,340,274,1,339,ratio41_12_15_9.png,,,,,,,,,,,,
,,,,,,,,,,,,Half,Most,Many,Less than half,Some,Few,More than half,None,All,-0.476851811,0.221296288,1,0,0,QQQ7,,,,,,,,English,2020-07-02_11h03.01.798,Experiment_English,3.2.4,Win32,60,,,1,0,340,335,1,339,ratio91_18_20_11.png,,,,,,,,,,,,
,,,,,,,,,,,,Most,Many,Less than half,Some,More than half,Half,All,Few,None,0.55370386,-0.316666691,1,0,0,QQQ3,,,,,,,,English,2020-07-02_11h03.01.798,Experiment_English,3.2.4,Win32,60,,,1,0,340,140,1,339,ratio19_1_10_1.png,,,,,,,,,,,,
,,,,,,,,,,,,Few,More than half,All,Half,Less than half,Some,None,Most,Many,0.504629671,-0.008333348,1,0,0,QQQ2,,,,,,,,English,2020-07-02_11h03.01.798,Experiment_English,3.2.4,Win32,60,,,1,0,340,298,1,339,ratio43_8_14_14.png,,,,,,,,,,,,
,,,,,,,,,,,,Most,Few,None,More than half,Many,Half,Some,All,Less than half,0.052777806,-0.312037061,1,0,0,QQQ6,,,,,,,,English,2020-07-02_11h03.01.798,Experiment_English,3.2.4,Win32,60,,,1,0,340,247,1,339,ratio34_3_7_12.png,,,,,,,,,,,,
,,,,,,,,,,,,Most,Many,Less than half,More than half,Few,None,Half,All,Some,0.416666706,0.239814807,1,0,0,QQQ1,,,,,,,,English,2020-07-02_11h03.01.798,Experiment_English,3.2.4,Win32,60,,,1,0,340,300,1,339,ratio51_5_6_1.png,,,,,,,,,,,,
,,,,,,,,,,,,Some,Many,All,Half,More than half,None,Few,Less than half,Most,0.005555582,0.000925911,1,0,0,QQQ5,,,,,,,,English,2020-07-02_11h03.01.798,Experiment_English,3.2.4,Win32,60,,,1,0,340,162,1,339,ratio21_2_3_9.png,,,,,,,,,,,,
,,,,,,,,,,,,All,None,More than half,Many,Half,Less than half,Most,Few,Some,0.025000027,-0.342592618,1,0,0,QQQ6,,,,,,,,English,2020-07-02_11h03.01.798,Experiment_English,3.2.4,Win32,60,,,1,0,340,113,1,339,ratio14_3_15_8.png,,,,,,,,,,,,
,,,,,,,,,,,,More than half,Few,All,Most,Many,Half,Less than half,None,Some,-0.474074033,-0.259259282,1,0,0,QQQ9,,,,,,,,English,2020-07-02_11h03.01.798,Experiment_English,3.2.4,Win32,60,,,1,0,340,253,1,339,ratio34_6_14_5.png,,,,,,,,,,,,
,,,,,,,,,,,,Some,Half,All,Many,None,Most,Less than half,More than half,Few,-0.489814803,-0.025000016,1,0,0,QQQ8,,,,,,,,English,2020-07-02_11h03.01.798,Experiment_English,3.2.4,Win32,60,,,1,0,340,273,1,339,ratio41_12_15_8.png,,,,,,,,,,,,
,,,,,,,,,,,,Some,None,All,More than half,Less than half,Few,Half,Many,Most,0.448148188,-0.01481483,0,0,1,QQQ2,,,,,,,,English,2020-07-02_11h03.01.798,Experiment_English,3.2.4,Win32,60,,,1,0,340,64,1,339,ratio0Y_0_7_1.png,,,,,,,,,,,,
,,,,,,,,,,,,Few,Many,Less than half,Some,Most,More than half,Half,None,All,0.380555593,-0.313888913,1,0,0,QQQ3,,,,,,,,English,2020-07-02_11h03.01.798,Experiment_English,3.2.4,Win32,60,,,1,0,340,97,1,339,ratio13_5_20_2.png,,,,,,,,,,,,
,,,,,,,,,,,,Few,Many,None,More than half,All,Some,Most,Less than half,Half,-0.079629606,0.267592572,1,0,0,QQQ4,,,,,,,,English,2020-07-02_11h03.01.798,Experiment_English,3.2.4,Win32,60,,,1,0,340,229,1,339,ratio32_6_10_9.png,,,,,,,,,,,,
,,,,,,,,,,,,Half,Many,All,None,More than half,Some,Most,Few,Less than half,-0.012962937,-0.036111127,1,0,0,QQQ5,,,,,,,,English,2020-07-02_11h03.01.798,Experiment_English,3.2.4,Win32,60,,,1,0,340,216,1,339,ratio31_15_20_3.png,,,,,,,,,,,,
,,,,,,,,,,,,All,Few,More than half,Many,Half,Less than half,None,Most,Some,-0.031481399,-0.29166669,1,0,0,QQQ6,,,,,,,,English,2020-07-02_11h03.01.798,Experiment_English,3.2.4,Win32,60,,,1,0,340,251,1,339,ratio34_6_14_2.png,,,,,,,,,,,,
,,,,,,,,,,,,More than half,Most,None,Many,Half,All,Less than half,Some,Few,-0.417592579,0.25277777,1,0,0,QQQ7,,,,,,,,English,2020-07-02_11h03.01.798,Experiment_English,3.2.4,Win32,60,,,1,0,340,0,1,339,ratio12_1_3_3.png,,,,,,,,,,,,
,,,,,,,,,,,,Half,Few,None,Some,More than half,Less than half,All,Most,Many,-0.03518516,0.033333319,1,0,0,QQQ5,,,,,,,,English,2020-07-02_11h03.01.798,Experiment_English,3.2.4,Win32,60,,,1,0,340,233,1,339,ratio32_9_15_9.png,,,,,,,,,,,,
,,,,,,,,,,,,Most,Less than half,Few,Many,More than half,Half,All,None,Some,0.048148176,-0.013888904,1,0,0,QQQ5,,,,,,,,English,2020-07-02_11h03.01.798,Experiment_English,3.2.4,Win32,60,,,1,0,340,179,1,339,ratio21_12_18_8.png,,,,,,,,,,,,
,,,,,,,,,,,,None,Few,Many,Less than half,Half,More than half,Some,All,Most,0.501851893,0.317592573,1,0,0,QQQ1,,,,,,,,English,2020-07-02_11h03.01.798,Experiment_English,3.2.4,Win32,60,,,1,0,340,76,1,339,ratio0Y_0_17_10.png,,,,,,,,,,,,
,,,,,,,,,,,,Most,Less than half,Some,More than half,All,Few,None,Many,Half,0.514814857,-0.025000016,1,0,0,QQQ2,,,,,,,,English,2020-07-02_11h03.01.798,Experiment_English,3.2.4,Win32,60,,,1,0,340,12,1,339,ratio12_4_12_10.png,0.366666704,-0.400000027,1,0,0,continue_button_pause,1,0,1,0,1,0
,,,,,,,,,,,,,,,,,,,,,,,,,,,,,,,,,,English,2020-07-02_11h03.01.798,Experiment_English,3.2.4,Win32,60,,,1,0,340,12,1,339,ratio12_4_12_10.png,,,,,,,,,,,,
,,,,,,,,,,,,All,Less than half,More than half,Few,Half,Some,Many,Most,None,0.489814856,0.214814806,1,0,0,QQQ1,,,,,,,,English,2020-07-02_11h03.01.798,Experiment_English,3.2.4,Win32,60,,,1,0,340,51,1,339,ratioX0_12_12_9.png,,,,,,,,,,,,
,,,,,,,,,,,,Less than half,Some,More than half,None,Many,All,Few,Half,Most,0.489814856,0.214814806,1,0,0,QQQ1,,,,,,,,English,2020-07-02_11h03.01.798,Experiment_English,3.2.4,Win32,60,,,1,0,340,59,1,339,ratioX0_20_20_9.png,,,,,,,,,,,,
,,,,,,,,,,,,Many,Some,All,None,Few,Half,Most,Less than half,More than half,-0.574999991,0.286111105,1,0,0,QQQ7,,,,,,,,English,2020-07-02_11h03.01.798,Experiment_English,3.2.4,Win32,60,,,1,0,340,329,1,339,ratio91_9_10_20.png,,,,,,,,,,,,
,,,,,,,,,,,,Many,Some,More than half,Half,Less than half,All,None,Few,Most,-0.124999977,0.018518504,1,0,0,QQQ5,,,,,,,,English,2020-07-02_11h03.01.798,Experiment_English,3.2.4,Win32,60,,,1,0,340,3,1,339,ratio12_2_6_3.png,,,,,,,,,,,,
,,,,,,,,,,,,All,None,Most,Half,More than half,Some,Less than half,Few,Many,-0.410185171,0.293518512,1,0,0,QQQ7,,,,,,,,English,2020-07-02_11h03.01.798,Experiment_English,3.2.4,Win32,60,,,1,0,340,134,1,339,ratio15_3_18_5.png,,,,,,,,,,,,
,,,,,,,,,,,,Some,More than half,Many,All,None,Half,Most,Less than half,Few,-0.022222196,-0.308333357,1,0,0,QQQ6,,,,,,,,English,2020-07-02_11h03.01.798,Experiment_English,3.2.4,Win32,60,,,1,0,340,23,1,339,ratio11_3_6_9.png,,,,,,,,,,,,
,,,,,,,,,,,,Less than half,Half,Some,More than half,Few,Many,All,Most,None,0.109259289,0.254629622,1,0,0,QQQ4,,,,,,,,English,2020-07-02_11h03.01.798,Experiment_English,3.2.4,Win32,60,,,1,0,340,204,1,339,ratio31_6_8_1.png,,,,,,,,,,,,
,,,,,,,,,,,,All,Some,Half,None,Few,Less than half,More than half,Most,Many,-0.025925844,-0.276851932,1,0,0,QQQ6,,,,,,,,English,2020-07-02_11h03.01.798,Experiment_English,3.2.4,Win32,60,,,1,0,340,240,1,339,ratio34_3_7_4.png,,,,,,,,,,,,
,,,,,,,,,,,,Some,Half,None,Less than half,Most,Many,All,More than half,Few,0.451851892,-0.056481498,1,0,0,QQQ2,,,,,,,,English,2020-07-02_11h03.01.798,Experiment_English,3.2.4,Win32,60,,,1,0,340,284,1,339,ratio43_4_7_11.png,,,,,,,,,,,,
,,,,,,,,,,,,Some,More than half,Few,Most,All,Less than half,Many,None,Half,0.421296335,-0.047222239,1,0,0,QQQ2,,,,,,,,English,2020-07-02_11h03.01.798,Experiment_English,3.2.4,Win32,60,,,1,0,340,207,1,339,ratio31_6_8_9.png,,,,,,,,,,,,
,,,,,,,,,,,,Half,None,Some,All,Most,Less than half,Many,More than half,Few,0.073148177,0.003703689,1,0,0,QQQ5,,,,,,,,English,2020-07-02_11h03.01.798,Experiment_English,3.2.4,Win32,60,,,1,0,340,301,1,339,ratio51_5_6_4.png,,,,,,,,,,,,
,,,,,,,,,,,,Many,Few,Some,Most,More than half,Half,None,All,Less than half,0.073148177,0.003703689,1,0,0,QQQ5,,,,,,,,English,2020-07-02_11h03.01.798,Experiment_English,3.2.4,Win32,60,,,1,0,340,294,1,339,ratio43_8_14_9.png,,,,,,,,,,,,
,,,,,,,,,,,,Less than half,Few,Some,None,Half,Many,Most,All,More than half,0.414814854,0.292592572,1,0,0,QQQ1,,,,,,,,English,2020-07-02_11h03.01.798,Experiment_English,3.2.4,Win32,60,,,1,0,340,101,1,339,ratio14_1_5_7.png,,,,,,,,,,,,
,,,,,,,,,,,,Few,Some,Many,More than half,All,Most,Half,Less than half,None,-0.470370358,0.005555541,1,0,0,QQQ8,,,,,,,,English,2020-07-02_11h03.01.798,Experiment_English,3.2.4,Win32,60,,,1,0,340,185,1,339,ratio23_4_10_1.png,,,,,,,,,,,,
,,,,,,,,,,,,Half,All,Few,Some,More than half,Most,Less than half,None,Many,-0.120370291,0.016666652,1,0,0,QQQ5,,,,,,,,English,2020-07-02_11h03.01.798,Experiment_English,3.2.4,Win32,60,,,1,0,340,170,1,339,ratio21_6_9_8.png,,,,,,,,,,,,
,,,,,,,,,,,,Few,Less than half,All,None,Most,Some,Many,More than half,Half,-0.424999986,-0.012037052,1,0,0,QQQ8,,,,,,,,English,2020-07-02_11h03.01.798,Experiment_English,3.2.4,Win32,60,,,1,0,340,168,1,339,ratio21_6_9_3.png,,,,,,,,,,,,
,,,,,,,,,,,,None,Less than half,Some,Most,More than half,Half,Many,All,Few,-0.012962937,-0.032407423,1,0,0,QQQ5,,,,,,,,English,2020-07-02_11h03.01.798,Experiment_English,3.2.4,Win32,60,,,1,0,340,224,1,339,ratio32_3_5_10.png,,,,,,,,,,,,
,,,,,,,,,,,,Some,More than half,Most,Many,Half,Few,Less than half,All,None,-0.01759251,-0.332407489,1,0,0,QQQ6,,,,,,,,English,2020-07-02_11h03.01.798,Experiment_English,3.2.4,Win32,60,,,1,0,340,156,1,339,ratio19_2_20_14.png,,,,,,,,,,,,
,,,,,,,,,,,,None,Few,All,Some,Less than half,Half,Many,More than half,Most,-0.475925914,0.290740735,1,0,0,QQQ7,,,,,,,,English,2020-07-02_11h03.01.798,Experiment_English,3.2.4,Win32,60,,,1,0,340,245,1,339,ratio34_3_7_10.png,,,,,,,,,,,,
,,,,,,,,,,,,None,All,Few,Less than half,Half,Some,Most,Many,More than half,-0.080555531,0.285185179,1,0,0,QQQ4,,,,,,,,English,2020-07-02_11h03.01.798,Experiment_English,3.2.4,Win32,60,,,1,0,340,159,1,339,ratio19_2_20_20.png,,,,,,,,,,,,
,,,,,,,,,,,,Most,Few,Less than half,None,Some,More than half,Half,Many,All,0.033333361,-0.319444469,1,0,0,QQQ6,,,,,,,,English,2020-07-02_11h03.01.798,Experiment_English,3.2.4,Win32,60,,,1,0,340,270,1,339,ratio41_12_15_3.png,,,,,,,,,,,,
,,,,,,,,,,,,All,Most,None,Less than half,More than half,Few,Many,Some,Half,0.075000029,0.312037017,1,0,0,QQQ4,,,,,,,,English,2020-07-02_11h03.01.798,Experiment_English,3.2.4,Win32,60,,,1,0,340,92,1,339,ratio13_4_16_3.png,,,,,,,,,,,,
,,,,,,,,,,,,None,All,Many,Less than half,Most,Half,Some,More than half,Few,0.400925964,-0.312037061,1,0,0,QQQ3,,,,,,,,English,2020-07-02_11h03.01.798,Experiment_English,3.2.4,Win32,60,,,1,0,340,35,1,339,ratio11_8_16_10.png,,,,,,,,,,,,
,,,,,,,,,,,,Many,Few,Half,Most,Some,More than half,Less than half,All,None,0.45000004,-0.346296378,1,0,0,QQQ3,,,,,,,,English,2020-07-02_11h03.01.798,Experiment_English,3.2.4,Win32,60,,,1,0,340,297,1,339,ratio43_8_14_13.png,,,,,,,,,,,,
,,,,,,,,,,,,More than half,None,Most,Some,Half,Less than half,Many,All,Few,0.114814845,0.001851837,1,0,0,QQQ5,,,,,,,,English,2020-07-02_11h03.01.798,Experiment_English,3.2.4,Win32,60,,,1,0,340,37,1,339,ratio11_9_18_8.png,,,,,,,,,,,,
,,,,,,,,,,,,Some,None,All,Most,Half,Less than half,More than half,Many,Few,-0.003703621,-0.311111135,1,0,0,QQQ6,,,,,,,,English,2020-07-02_11h03.01.798,Experiment_English,3.2.4,Win32,60,,,1,0,340,99,1,339,ratio13_5_20_4.png,,,,,,,,,,,,
,,,,,,,,,,,,Less than half,More than half,Many,Most,All,None,Few,Some,Half,0.458333373,0.049074032,1,0,0,QQQ2,,,,,,,,English,2020-07-02_11h03.01.798,Experiment_English,3.2.4,Win32,60,,,1,0,340,302,1,339,ratio51_5_6_5.png,,,,,,,,,,,,
,,,,,,,,,,,,Many,None,All,Most,Less than half,Some,More than half,Half,Few,0.133333364,0.010185171,1,0,0,QQQ5,,,,,,,,English,2020-07-02_11h03.01.798,Experiment_English,3.2.4,Win32,60,,,1,0,340,88,1,339,ratio13_3_12_5.png,,,,,,,,,,,,
,,,,,,,,,,,,Few,Less than half,Most,All,Many,Some,More than half,None,Half,0.382407445,-0.005555571,1,0,0,QQQ2,,,,,,,,English,2020-07-02_11h03.01.798,Experiment_English,3.2.4,Win32,60,,,1,0,340,111,1,339,ratio14_3_15_3.png,,,,,,,,,,,,
,,,,,,,,,,,,More than half,None,Few,Some,All,Most,Many,Less than half,Half,0.483333374,0.280555549,1,0,0,QQQ1,,,,,,,,English,2020-07-02_11h03.01.798,Experiment_English,3.2.4,Win32,60,,,1,0,340,160,1,339,ratio21_2_3_2.png,,,,,,,,,,,,
,,,,,,,,,,,,Most,More than half,Less than half,Few,Some,Many,None,Half,All,0.495370412,-0.026851868,1,0,0,QQQ2,,,,,,,,English,2020-07-02_11h03.01.798,Experiment_English,3.2.4,Win32,60,,,1,0,340,275,1,339,ratio41_16_20_2.png,,,,,,,,,,,,
,,,,,,,,,,,,Few,Half,More than half,Many,All,Most,Less than half,None,Some,0.48888893,-0.292592616,1,0,0,QQQ3,,,,,,,,English,2020-07-02_11h03.01.798,Experiment_English,3.2.4,Win32,60,,,1,0,340,169,1,339,ratio21_6_9_7.png,,,,,,,,,,,,
,,,,,,,,,,,,All,More than half,None,Few,Less than half,Some,Most,Many,Half,0.092592622,-0.073148165,1,0,0,QQQ5,,,,,,,,English,2020-07-02_11h03.01.798,Experiment_English,3.2.4,Win32,60,,,1,0,340,254,1,339,ratio34_6_14_9.png,,,,,,,,,,,,
,,,,,,,,,,,,Most,None,Half,Less than half,All,Some,Few,Many,More than half,0.507407449,-0.004629645,1,0,0,QQQ2,,,,,,,,English,2020-07-02_11h03.01.798,Experiment_English,3.2.4,Win32,60,,,1,0,340,62,1,339,ratio0Y_0_5_4.png,0.395370409,-0.401851935,1,0,0,continue_button_pause,1,0,1,0,1,0
,,,,,,,,,,,,,,,,,,,,,,,,,,,,,,,,,,English,2020-07-02_11h03.01.798,Experiment_English,3.2.4,Win32,60,,,1,0,340,62,1,339,ratio0Y_0_5_4.png,,,,,,,,,,,,
,,,,,,,,,,,,More than half,Few,Some,Most,Less than half,All,Half,None,Many,0.041666694,0.012037022,1,0,0,QQQ5,,,,,,,,English,2020-07-02_11h03.01.798,Experiment_English,3.2.4,Win32,60,,,1,0,340,139,1,339,ratio15_3_18_20.png,,,,,,,,,,,,
,,,,,,,,,,,,Some,Half,None,Most,Few,Many,More than half,Less than half,All,-0.407407393,-0.020370386,1,0,0,QQQ8,,,,,,,,English,2020-07-02_11h03.01.798,Experiment_English,3.2.4,Win32,60,,,1,0,340,135,1,339,ratio15_3_18_7.png,,,,,,,,,,,,
,,,,,,,,,,,,Most,Some,All,Less than half,Half,Many,None,Few,More than half,0.036111139,0.311111105,1,0,0,QQQ4,,,,,,,,English,2020-07-02_11h03.01.798,Experiment_English,3.2.4,Win32,60,,,1,0,340,11,1,339,ratio12_4_12_7.png,,,,,,,,,,,,
,,,,,,,,,,,,Some,Few,None,All,Most,More than half,Many,Half,Less than half,-0.410185171,-0.282407487,1,0,0,QQQ9,,,,,,,,English,2020-07-02_11h03.01.798,Experiment_English,3.2.4,Win32,60,,,1,0,340,103,1,339,ratio14_1_5_9.png,,,,,,,,,,,,
,,,,,,,,,,,,More than half,Less than half,Few,None,Half,Most,All,Many,Some,0.443518558,-0.05370372,1,0,0,QQQ2,,,,,,,,English,2020-07-02_11h03.01.798,Experiment_English,3.2.4,Win32,60,,,1,0,340,102,1,339,ratio14_1_5_8.png,,,,,,,,,,,,
,,,,,,,,,,,,Half,Many,Less than half,Some,None,More than half,Most,All,Few,0.116666697,-0.289814838,1,0,0,QQQ6,,,,,,,,English,2020-07-02_11h03.01.798,Experiment_English,3.2.4,Win32,60,,,1,0,340,332,1,339,ratio91_18_20_4.png,,,,,,,,,,,,
,,,,,,,,,,,,All,More than half,Few,Less than half,Many,Most,Half,Some,None,0.404629668,-0.032407423,1,0,0,QQQ2,,,,,,,,English,2020-07-02_11h03.01.798,Experiment_English,3.2.4,Win32,60,,,1,0,340,230,1,339,ratio32_9_15_1.png,,,,,,,,,,,,
,,,,,,,,,,,,Less than half,Some,Many,All,None,More than half,Half,Most,Few,0.400000038,-0.275925949,1,0,0,QQQ3,,,,,,,,English,2020-07-02_11h03.01.798,Experiment_English,3.2.4,Win32,60,,,1,0,340,258,1,339,ratio34_6_14_14.png,,,,,,,,,,,,
,,,,,,,,,,,,More than half,Few,Most,All,None,Some,Half,Less than half,Many,-0.06944442,-0.008333348,1,0,0,QQQ5,,,,,,,,English,2020-07-02_11h03.01.798,Experiment_English,3.2.4,Win32,60,,,1,0,340,68,1,339,ratio0Y_0_11_3.png,,,,,,,,,,,,
,,,,,,,,,,,,Few,All,Many,Less than half,More than half,Most,None,Some,Half,-0.063888864,0.220370362,1,0,0,QQQ4,,,,,,,,English,2020-07-02_11h03.01.798,Experiment_English,3.2.4,Win32,60,,,1,0,340,123,1,339,ratio15_1_6_12.png,,,,,,,,,,,,
,,,,,,,,,,,,Less than half,Few,Most,All,Some,None,Many,Half,More than half,-0.476851811,-0.320370395,1,0,0,QQQ9,,,,,,,,English,2020-07-02_11h03.01.798,Experiment_English,3.2.4,Win32,60,,,1,0,340,279,1,339,ratio41_16_20_10.png,,,,,,,,,,,,
,,,,,,,,,,,,Some,More than half,Most,All,Many,Half,None,Few,Less than half,0.040740825,-0.317592617,1,0,0,QQQ6,,,,,,,,English,2020-07-02_11h03.01.798,Experiment_English,3.2.4,Win32,60,,,1,0,340,24,1,339,ratio11_4_8_3.png,,,,,,,,,,,,
,,,,,,,,,,,,All,Less than half,Half,Many,None,More than half,Some,Few,Most,0.400000038,-0.008333348,1,0,0,QQQ2,,,,,,,,English,2020-07-02_11h03.01.798,Experiment_English,3.2.4,Win32,60,,,1,0,340,1,1,339,ratio12_1_3_7.png,,,,,,,,,,,,
,,,,,,,,,,,,None,Most,Many,Few,Less than half,More than half,All,Some,Half,0.054629714,-0.253703726,1,0,0,QQQ6,,,,,,,,English,2020-07-02_11h03.01.798,Experiment_English,3.2.4,Win32,60,,,1,0,340,203,1,339,ratio31_3_4_9.png,,,,,,,,,,,,
,,,,,,,,,,,,More than half,Some,Most,All,Half,Many,Less than half,None,Few,-0.403703689,0.338888884,1,0,0,QQQ7,,,,,,,,English,2020-07-02_11h03.01.798,Experiment_English,3.2.4,Win32,60,,,1,0,340,124,1,339,ratio15_1_6_16.png,,,,,,,,,,,,
,,,,,,,,,,,,Less than half,More than half,Half,Some,None,Many,All,Most,Few,-0.524074035,0.307407402,1,0,0,QQQ7,,,,,,,,English,2020-07-02_11h03.01.798,Experiment_English,3.2.4,Win32,60,,,1,0,340,50,1,339,ratioX0_12_12_3.png,,,,,,,,,,,,
,,,,,,,,,,,,Few,None,Less than half,Many,Some,More than half,Most,All,Half,-0.480555543,0.032407365,1,0,0,QQQ8,,,,,,,,English,2020-07-02_11h03.01.798,Experiment_English,3.2.4,Win32,60,,,1,0,340,55,1,339,ratioX0_16_16_3.png,,,,,,,,,,,,
,,,,,,,,,,,,Few,Less than half,All,None,More than half,Half,Most,Some,Many,0.383333371,-0.035185201,1,0,0,QQQ2,,,,,,,,English,2020-07-02_11h03.01.798,Experiment_English,3.2.4,Win32,60,,,1,0,340,259,1,339,ratio34_6_14_19.png,,,,,,,,,,,,
,,,,,,,,,,,,Half,Most,More than half,None,All,Less than half,Many,Some,Few,0.418518557,-0.26203706,1,0,0,QQQ3,,,,,,,,English,2020-07-02_11h03.01.798,Experiment_English,3.2.4,Win32,60,,,1,0,340,173,1,339,ratio21_8_12_9.png,,,,,,,,,,,,
,,,,,,,,,,,,Less than half,More than half,All,Few,Many,Most,Some,Half,None,0.437037077,-0.012962978,1,0,0,QQQ2,,,,,,,,English,2020-07-02_11h03.01.798,Experiment_English,3.2.4,Win32,60,,,1,0,340,304,1,339,ratio51_5_6_13.png,,,,,,,,,,,,
,,,,,,,,,,,,None,Less than half,Most,Half,Some,Few,All,More than half,Many,0.437037077,-0.012962978,1,0,0,QQQ2,,,,,,,,English,2020-07-02_11h03.01.798,Experiment_English,3.2.4,Win32,60,,,1,0,340,95,1,339,ratio13_4_16_10.png,,,,,,,,,,,,
,,,,,,,,,,,,Many,Few,Half,Some,None,Most,More than half,All,Less than half,0.040740825,0.01944443,1,0,0,QQQ5,,,,,,,,English,2020-07-02_11h03.01.798,Experiment_English,3.2.4,Win32,60,,,1,0,340,63,1,339,ratio0Y_0_6_8.png,,,,,,,,,,,,
,,,,,,,,,,,,None,All,More than half,Some,Less than half,Many,Most,Few,Half,0.423148187,-0.360185267,1,0,0,QQQ3,,,,,,,,English,2020-07-02_11h03.01.798,Experiment_English,3.2.4,Win32,60,,,1,0,340,276,1,339,ratio41_16_20_4.png,,,,,,,,,,,,
,,,,,,,,,,,,Less than half,More than half,All,Some,Many,Few,Most,None,Half,0.463888929,0.258333326,1,0,0,QQQ1,,,,,,,,English,2020-07-02_11h03.01.798,Experiment_English,3.2.4,Win32,60,,,1,0,340,152,1,339,ratio19_2_20_6.png,,,,,,,,,,,,
,,,,,,,,,,,,Half,Less than half,None,Many,Most,Few,Some,All,More than half,-0.384259244,-0.246296375,1,0,0,QQQ9,,,,,,,,English,2020-07-02_11h03.01.798,Experiment_English,3.2.4,Win32,60,,,1,0,340,265,1,339,ratio41_8_10_1.png,,,,,,,,,,,,
,,,,,,,,,,,,Most,Less than half,Half,Some,More than half,All,Many,None,Few,0.053703732,-0.029629645,1,0,0,QQQ5,,,,,,,,English,2020-07-02_11h03.01.798,Experiment_English,3.2.4,Win32,60,,,1,0,340,328,1,339,ratio91_9_10_15.png,,,,,,,,,,,,
,,,,,,,,,,,,Most,More than half,Half,Less than half,All,Many,Few,None,Some,0.022222249,0.265740734,1,0,0,QQQ4,,,,,,,,English,2020-07-02_11h03.01.798,Experiment_English,3.2.4,Win32,60,,,1,0,340,36,1,339,ratio11_9_18_1.png,,,,,,,,,,,,
,,,,,,,,,,,,Half,More than half,Most,Less than half,None,All,Few,Some,Many,0.024074158,-0.26574082,1,0,0,QQQ6,,,,,,,,English,2020-07-02_11h03.01.798,Experiment_English,3.2.4,Win32,60,,,1,0,340,53,1,339,ratioX0_14_14_8.png,,,,,,,,,,,,
,,,,,,,,,,,,None,Half,Many,More than half,All,Some,Few,Less than half,Most,-0.441666653,-0.066666684,1,0,0,QQQ8,,,,,,,,English,2020-07-02_11h03.01.798,Experiment_English,3.2.4,Win32,60,,,1,0,340,183,1,339,ratio23_2_5_9.png,,,,,,,,,,,,
,,,,,,,,,,,,Half,Some,None,Less than half,Many,All,Few,Most,More than half,-0.477777766,-0.251851931,1,0,0,QQQ9,,,,,,,,English,2020-07-02_11h03.01.798,Experiment_English,3.2.4,Win32,60,,,1,0,340,313,1,339,ratio51_15_18_2.png,,,,,,,,,,,,
,,,,,,,,,,,,None,Less than half,Many,All,Half,Some,Few,Most,More than half,-0.477777766,-0.251851931,1,0,0,QQQ9,,,,,,,,English,2020-07-02_11h03.01.798,Experiment_English,3.2.4,Win32,60,,,1,0,340,307,1,339,ratio51_10_12_1.png,,,,,,,,,,,,
,,,,,,,,,,,,Some,None,All,Few,More than half,Less than half,Half,Many,Most,-0.10925918,-0.309259283,1,0,0,QQQ6,,,,,,,,English,2020-07-02_11h03.01.798,Experiment_English,3.2.4,Win32,60,,,1,0,340,93,1,339,ratio13_4_16_7.png,,,,,,,,,,,,
,,,,,,,,,,,,Most,Half,More than half,Many,Some,All,None,Few,Less than half,-0.412037023,-0.29166669,1,0,0,QQQ9,,,,,,,,English,2020-07-02_11h03.01.798,Experiment_English,3.2.4,Win32,60,,,1,0,340,250,1,339,ratio34_6_14_1.png,,,,,,,,,,,,
,,,,,,,,,,,,Some,Half,Few,Many,More than half,Most,All,Less than half,None,0.002777804,-0.037962979,1,0,0,QQQ5,,,,,,,,English,2020-07-02_11h03.01.798,Experiment_English,3.2.4,Win32,60,,,1,0,340,267,1,339,ratio41_8_10_4.png,0.334259296,-0.407407491,1,0,0,continue_button_pause,1,0,1,0,1,0
,,,,,,,,,,,,,,,,,,,,,,,,,,,,,,,,,,English,2020-07-02_11h03.01.798,Experiment_English,3.2.4,Win32,60,,,1,0,340,267,1,339,ratio41_8_10_4.png,,,,,,,,,,,,
,,,,,,,,,,,,Less than half,Half,More than half,Most,Many,Few,Some,None,All,0.459259299,0.232407399,1,0,0,QQQ1,,,,,,,,English,2020-07-02_11h03.01.798,Experiment_English,3.2.4,Win32,60,,,1,0,340,255,1,339,ratio34_6_14_10.png,,,,,,,,,,,,
,,,,,,,,,,,,Half,Most,None,All,Less than half,Some,More than half,Many,Few,0.020370397,0.005555541,1,0,0,QQQ5,,,,,,,,English,2020-07-02_11h03.01.798,Experiment_English,3.2.4,Win32,60,,,1,0,340,189,1,339,ratio23_4_10_8.png,,,,,,,,,,,,
,,,,,,,,,,,,None,Most,Half,Many,Few,Less than half,Some,All,More than half,0.512037079,0.255555548,1,0,0,QQQ1,,,,,,,,English,2020-07-02_11h03.01.798,Experiment_English,3.2.4,Win32,60,,,1,0,340,77,1,339,ratio0Y_0_18_3.png,,,,,,,,,,,,
,,,,,,,,,,,,Half,Few,None,More than half,All,Most,Some,Many,Less than half,-0.037962938,0.321296291,1,0,0,QQQ4,,,,,,,,English,2020-07-02_11h03.01.798,Experiment_English,3.2.4,Win32,60,,,1,0,340,166,1,339,ratio21_6_9_1.png,,,,,,,,,,,,
,,,,,,,,,,,,Half,None,All,Many,Few,Some,More than half,Most,Less than half,-0.474999988,-0.284259283,1,0,0,QQQ9,,,,,,,,English,2020-07-02_11h03.01.798,Experiment_English,3.2.4,Win32,60,,,1,0,340,114,1,339,ratio14_3_15_10.png,,,,,,,,,,,,
,,,,,,,,,,,,Some,All,Less than half,Half,More than half,Most,Few,None,Many,0.436111151,-0.031481497,1,0,0,QQQ2,,,,,,,,English,2020-07-02_11h03.01.798,Experiment_English,3.2.4,Win32,60,,,1,0,340,52,1,339,ratioX0_13_13_10.png,,,,,,,,,,,,
,,,,,,,,,,,,Many,Less than half,Half,Few,More than half,Some,Most,None,All,0.369444482,0.29537035,1,0,0,QQQ1,,,,,,,,English,2020-07-02_11h03.01.798,Experiment_English,3.2.4,Win32,60,,,1,0,340,296,1,339,ratio43_8_14_12.png,,,,,,,,,,,,
,,,,,,,,,,,,Half,Some,Many,More than half,Few,None,All,Most,Less than half,-0.002777751,0.253703696,1,0,0,QQQ4,,,,,,,,English,2020-07-02_11h03.01.798,Experiment_English,3.2.4,Win32,60,,,1,0,340,280,1,339,ratio43_4_7_2.png,,,,,,,,,,,,
,,,,,,,,,,,,Few,Most,Half,Many,None,All,More than half,Some,Less than half,-0.006481399,-0.278703727,1,0,0,QQQ6,,,,,,,,English,2020-07-02_11h03.01.798,Experiment_English,3.2.4,Win32,60,,,1,0,340,56,1,339,ratioX0_17_17_10.png,,,,,,,,,,,,
,,,,,,,,,,,,All,Many,Most,Half,Less than half,Some,Few,None,More than half,0.030555583,0.039814801,1,0,0,QQQ5,,,,,,,,English,2020-07-02_11h03.01.798,Experiment_English,3.2.4,Win32,60,,,1,0,340,10,1,339,ratio12_4_12_4.png,,,,,,,,,,,,
,,,,,,,,,,,,Many,All,None,More than half,Half,Some,Few,Most,Less than half,-0.500925914,-0.312037061,1,0,0,QQQ9,,,,,,,,English,2020-07-02_11h03.01.798,Experiment_English,3.2.4,Win32,60,,,1,0,340,8,1,339,ratio12_3_9_4.png,,,,,,,,,,,,
,,,,,,,,,,,,Few,Many,Some,All,More than half,None,Most,Half,Less than half,-0.500925914,-0.312037061,1,0,0,QQQ9,,,,,,,,English,2020-07-02_11h03.01.798,Experiment_English,3.2.4,Win32,60,,,1,0,340,109,1,339,ratio14_2_10_9.png,,,,,,,,,,,,
,,,,,,,,,,,,Some,More than half,All,None,Many,Most,Few,Less than half,Half,-0.462962922,-0.004629645,1,0,0,QQQ8,,,,,,,,English,2020-07-02_11h03.01.798,Experiment_English,3.2.4,Win32,60,,,1,0,340,129,1,339,ratio15_2_12_9.png,,,,,,,,,,,,
,,,,,,,,,,,,Many,None,Some,Less than half,Few,Half,All,Most,More than half,-0.018518493,0.287962957,1,0,0,QQQ4,,,,,,,,English,2020-07-02_11h03.01.798,Experiment_English,3.2.4,Win32,60,,,1,0,340,82,1,339,ratio13_1_4_7.png,,,,,,,,,,,,
,,,,,,,,,,,,Few,None,More than half,All,Half,Some,Less than half,Many,Most,-0.391666652,0.336111106,1,0,0,QQQ7,,,,,,,,English,2020-07-02_11h03.01.798,Experiment_English,3.2.4,Win32,60,,,1,0,340,19,1,339,ratio12_6_18_9.png,,,,,,,,,,,,
,,,,,,,,,,,,Few,Most,Many,None,Half,All,Some,More than half,Less than half,-0.411111097,-0.299074154,1,0,0,QQQ9,,,,,,,,English,2020-07-02_11h03.01.798,Experiment_English,3.2.4,Win32,60,,,1,0,340,198,1,339,ratio23_8_20_7.png,,,,,,,,,,,,
,,,,,,,,,,,,Half,Less than half,None,All,Some,Few,Many,More than half,Most,0.506481523,-0.283333357,1,0,0,QQQ3,,,,,,,,English,2020-07-02_11h03.01.798,Experiment_English,3.2.4,Win32,60,,,1,0,340,60,1,339,ratio0Y_0_3_5.png,,,,,,,,,,,,
,,,,,,,,,,,,Few,All,None,Less than half,Many,Half,Some,More than half,Most,-0.398148134,-1.4912E-08,1,0,0,QQQ8,,,,,,,,English,2020-07-02_11h03.01.798,Experiment_English,3.2.4,Win32,60,,,1,0,340,306,1,339,ratio51_5_6_18.png,,,,,,,,,,,,
,,,,,,,,,,,,Many,Most,None,Half,Less than half,All,Few,More than half,Some,-0.398148134,-1.4912E-08,1,0,0,QQQ8,,,,,,,,English,2020-07-02_11h03.01.798,Experiment_English,3.2.4,Win32,60,,,1,0,340,164,1,339,ratio21_4_6_6.png,,,,,,,,,,,,
,,,,,,,,,,,,Half,Most,All,More than half,None,Many,Less than half,Some,Few,0.031481509,0.208333325,1,0,0,QQQ4,,,,,,,,English,2020-07-02_11h03.01.798,Experiment_English,3.2.4,Win32,60,,,1,0,340,126,1,339,ratio15_2_12_1.png,,,,,,,,,,,,
,,,,,,,,,,,,More than half,None,Few,Most,Less than half,Some,Many,All,Half,0.489814856,0.277777771,1,0,0,QQQ1,,,,,,,,English,2020-07-02_11h03.01.798,Experiment_English,3.2.4,Win32,60,,,1,0,340,260,1,339,ratio41_4_5_2.png,,,,,,,,,,,,
,,,,,,,,,,,,Most,Some,Half,Less than half,Many,None,More than half,All,Few,-0.038888864,0.290740735,1,0,0,QQQ4,,,,,,,,English,2020-07-02_11h03.01.798,Experiment_English,3.2.4,Win32,60,,,1,0,340,137,1,339,ratio15_3_18_16.png,,,,,,,,,,,,
,,,,,,,,,,,,All,Some,Less than half,Few,Half,Most,None,Many,More than half,-0.489814803,-0.274074154,1,0,0,QQQ9,,,,,,,,English,2020-07-02_11h03.01.798,Experiment_English,3.2.4,Win32,60,,,1,0,340,218,1,339,ratio31_15_20_7.png,,,,,,,,,,,,
,,,,,,,,,,,,Less than half,More than half,Most,Many,Few,All,None,Some,Half,0.500925967,0.271296289,1,0,0,QQQ1,,,,,,,,English,2020-07-02_11h03.01.798,Experiment_English,3.2.4,Win32,60,,,1,0,340,182,1,339,ratio23_2_5_7.png,,,,,,,,,,,,
,,,,,,,,,,,,Many,More than half,Half,None,Some,Less than half,Most,Few,All,0.069444473,-0.256481504,1,0,0,QQQ6,,,,,,,,English,2020-07-02_11h03.01.798,Experiment_English,3.2.4,Win32,60,,,1,0,340,190,1,339,ratio23_6_15_3.png,,,,,,,,,,,,
,,,,,,,,,,,,Less than half,More than half,None,Many,Few,All,Most,Some,Half,0.486111152,0.004629615,1,0,0,QQQ2,,,,,,,,English,2020-07-02_11h03.01.798,Experiment_English,3.2.4,Win32,60,,,1,0,340,339,1,339,ratio91_18_20_19.png,,,,,,,,,,,,
,,,,,,,,,,,,Half,Many,Less than half,All,More than half,Most,Some,Few,None,0.464814855,0.287037017,1,0,0,QQQ1,,,,,,,,English,2020-07-02_11h03.01.798,Experiment_English,3.2.4,Win32,60,,,1,0,340,32,1,339,ratio11_7_14_5.png,,,,,,,,,,,,
,,,,,,,,,,,,More than half,Less than half,Many,None,Some,Most,Half,Few,All,0.467592633,0.319444439,1,0,0,QQQ1,,,,,,,,English,2020-07-02_11h03.01.798,Experiment_English,3.2.4,Win32,60,,,1,0,340,167,1,339,ratio21_6_9_2.png,,,,,,,,,,,,
,,,,,,,,,,,,Many,Few,Most,Less than half,Half,Some,All,None,More than half,-0.445370357,-0.256481504,1,0,0,QQQ9,,,,,,,,English,2020-07-02_11h03.01.798,Experiment_English,3.2.4,Win32,60,,,1,0,340,277,1,339,ratio41_16_20_8.png,,,,,,,,,,,,
,,,,,,,,,,,,All,Most,More than half,Many,Few,Less than half,Some,None,Half,0.442592632,-0.018518534,1,0,0,QQQ2,,,,,,,,English,2020-07-02_11h03.01.798,Experiment_English,3.2.4,Win32,60,,,1,0,340,34,1,339,ratio11_8_16_8.png,,,,,,,,,,,,
,,,,,,,,,,,,Half,Less than half,More than half,None,Some,All,Many,Few,Most,0.503703745,-0.016666682,1,0,0,QQQ2,,,,,,,,English,2020-07-02_11h03.01.798,Experiment_English,3.2.4,Win32,60,,,1,0,340,9,1,339,ratio12_3_9_5.png,,,,,,,,,,,,
,,,,,,,,,,,,Most,Few,Less than half,More than half,Some,None,Many,Half,All,0.032407491,0.251851844,1,0,0,QQQ4,,,,,,,,English,2020-07-02_11h03.01.798,Experiment_English,3.2.4,Win32,60,,,1,0,340,237,1,339,ratio32_12_20_5.png,,,,,,,,,,,,
,,,,,,,,,,,,Half,Few,More than half,None,Many,Less than half,Some,Most,All,0.053703732,0.254629622,1,0,0,QQQ4,,,,,,,,English,2020-07-02_11h03.01.798,Experiment_English,3.2.4,Win32,60,,,1,0,340,74,1,339,ratio0Y_0_15_10.png,,,,,,,,,,,,
,,,,,,,,,,,,All,Most,Some,Half,Less than half,None,Few,More than half,Many,-0.461111098,-0.02407409,1,0,0,QQQ8,,,,,,,,English,2020-07-02_11h03.01.798,Experiment_English,3.2.4,Win32,60,,,1,0,340,228,1,339,ratio32_6_10_7.png,0.270370405,-0.390740824,0,0,1,continue_button_pause,1,0,1,0,1,0
,,,,,,,,,,,,,,,,,,,,,,,,,,,,,,,,,,English,2020-07-02_11h03.01.798,Experiment_English,3.2.4,Win32,60,,,1,0,340,228,1,339,ratio32_6_10_7.png,,,,,,,,,,,,
,,,,,,,,,,,,All,Many,None,Most,Some,Few,More than half,Half,Less than half,-0.469444432,0.261111104,1,0,0,QQQ7,,,,,,,,English,2020-07-02_11h03.01.798,Experiment_English,3.2.4,Win32,60,,,1,0,340,222,1,339,ratio32_3_5_4.png,,,,,,,,,,,,
,,,,,,,,,,,,More than half,Less than half,Most,None,All,Some,Few,Many,Half,0.495370412,0.241666659,1,0,0,QQQ1,,,,,,,,English,2020-07-02_11h03.01.798,Experiment_English,3.2.4,Win32,60,,,1,0,340,209,1,339,ratio31_9_12_6.png,,,,,,,,,,,,
,,,,,,,,,,,,Many,Half,Most,More than half,All,Few,Some,Less than half,None,-0.474999988,-0.002777793,1,0,0,QQQ8,,,,,,,,English,2020-07-02_11h03.01.798,Experiment_English,3.2.4,Win32,60,,,1,0,340,84,1,339,ratio13_2_8_1.png,,,,,,,,,,,,
,,,,,,,,,,,,Most,Half,Many,Less than half,Few,More than half,All,None,Some,-0.037036955,0.334259254,1,0,0,QQQ4,,,,,,,,English,2020-07-02_11h03.01.798,Experiment_English,3.2.4,Win32,60,,,1,0,340,6,1,339,ratio12_3_9_1.png,,,,,,,,,,,,
,,,,,,,,,,,,None,Half,Some,Many,Most,More than half,Less than half,Few,All,-0.018518493,-0.30555558,1,0,0,QQQ6,,,,,,,,English,2020-07-02_11h03.01.798,Experiment_English,3.2.4,Win32,60,,,1,0,340,315,1,339,ratio51_15_18_10.png,,,,,,,,,,,,
,,,,,,,,,,,,More than half,Most,None,Some,Few,Half,Many,All,Less than half,0.482407448,0.337037032,1,0,0,QQQ1,,,,,,,,English,2020-07-02_11h03.01.798,Experiment_English,3.2.4,Win32,60,,,1,0,340,174,1,339,ratio21_10_15_1.png,,,,,,,,,,,,
,,,,,,,,,,,,Some,Most,Half,None,Many,Few,Less than half,All,More than half,0.0953704,0.29629629,1,0,0,QQQ4,,,,,,,,English,2020-07-02_11h03.01.798,Experiment_English,3.2.4,Win32,60,,,1,0,340,58,1,339,ratioX0_19_19_4.png,,,,,,,,,,,,
,,,,,,,,,,,,Many,More than half,None,Most,Half,Some,Less than half,Few,All,0.419444483,-0.02407409,1,0,0,QQQ2,,,,,,,,English,2020-07-02_11h03.01.798,Experiment_English,3.2.4,Win32,60,,,1,0,340,272,1,339,ratio41_12_15_7.png,,,,,,,,,,,,
,,,,,,,,,,,,Many,None,Some,More than half,Few,Most,Less than half,All,Half,-0.541666656,0.285185179,1,0,0,QQQ7,,,,,,,,English,2020-07-02_11h03.01.798,Experiment_English,3.2.4,Win32,60,,,1,0,340,257,1,339,ratio34_6_14_12.png,,,,,,,,,,,,
,,,,,,,,,,,,Most,Many,None,More than half,Less than half,Some,All,Few,Half,-0.447222209,0.274074067,1,0,0,QQQ7,,,,,,,,English,2020-07-02_11h03.01.798,Experiment_English,3.2.4,Win32,60,,,1,0,340,44,1,339,ratioX0_7_7_5.png,,,,,,,,,,,,
,,,,,,,,,,,,Many,All,More than half,Most,Few,None,Half,Some,Less than half,-0.520370359,-0.295370394,1,0,0,QQQ9,,,,,,,,English,2020-07-02_11h03.01.798,Experiment_English,3.2.4,Win32,60,,,1,0,340,141,1,339,ratio19_1_10_2.png,,,,,,,,,,,,
,,,,,,,,,,,,None,Most,All,Many,Few,Less than half,Half,More than half,Some,0.023148175,0.268518512,1,0,0,QQQ4,,,,,,,,English,2020-07-02_11h03.01.798,Experiment_English,3.2.4,Win32,60,,,1,0,340,17,1,339,ratio12_6_18_5.png,,,,,,,,,,,,
,,,,,,,,,,,,All,Many,Some,Few,Most,Less than half,More than half,None,Half,0.618518563,0.368518515,1,0,0,QQQ1,,,,,,,,English,2020-07-02_11h03.01.798,Experiment_English,3.2.4,Win32,60,,,1,0,340,43,1,339,ratioX0_6_6_9.png,,,,,,,,,,,,
,,,,,,,,,,,,Some,Less than half,Few,Most,Many,Half,All,None,More than half,0.104629659,0.324074069,1,0,0,QQQ4,,,,,,,,English,2020-07-02_11h03.01.798,Experiment_English,3.2.4,Win32,60,,,1,0,340,263,1,339,ratio41_4_5_5.png,,,,,,,,,,,,
,,,,,,,,,,,,Half,More than half,Less than half,Few,Most,Many,Some,All,None,0.425925965,-0.309259283,1,0,0,QQQ3,,,,,,,,English,2020-07-02_11h03.01.798,Experiment_English,3.2.4,Win32,60,,,1,0,340,98,1,339,ratio13_5_20_3.png,,,,,,,,,,,,
,,,,,,,,,,,,Half,All,Most,Many,None,Some,More than half,Few,Less than half,-0.581481472,-0.345370396,1,0,0,QQQ9,,,,,,,,English,2020-07-02_11h03.01.798,Experiment_English,3.2.4,Win32,60,,,1,0,340,118,1,339,ratio14_4_20_8.png,,,,,,,,,,,,
,,,,,,,,,,,,More than half,Most,Many,Few,None,All,Less than half,Half,Some,-0.438888875,0.312962957,1,0,0,QQQ7,,,,,,,,English,2020-07-02_11h03.01.798,Experiment_English,3.2.4,Win32,60,,,1,0,340,180,1,339,ratio23_2_5_4.png,,,,,,,,,,,,
,,,,,,,,,,,,Less than half,Many,Most,All,More than half,None,Some,Few,Half,-0.022222196,-0.292592616,1,0,0,QQQ6,,,,,,,,English,2020-07-02_11h03.01.798,Experiment_English,3.2.4,Win32,60,,,1,0,340,66,1,339,ratio0Y_0_9_8.png,,,,,,,,,,,,
,,,,,,,,,,,,Half,More than half,Few,None,Some,All,Most,Many,Less than half,-0.501851812,-0.276851932,1,0,0,QQQ9,,,,,,,,English,2020-07-02_11h03.01.798,Experiment_English,3.2.4,Win32,60,,,1,0,340,106,1,339,ratio14_2_10_2.png,,,,,,,,,,,,
,,,,,,,,,,,,None,Few,Half,Most,Many,More than half,All,Some,Less than half,0.44074078,-0.272222245,1,0,0,QQQ3,,,,,,,,English,2020-07-02_11h03.01.798,Experiment_English,3.2.4,Win32,60,,,1,0,340,20,1,339,ratio11_2_4_3.png,,,,,,,,,,,,
,,,,,,,,,,,,Half,Most,Less than half,More than half,Some,None,Many,All,Few,0.514814857,-0.328703728,1,0,0,QQQ3,,,,,,,,English,2020-07-02_11h03.01.798,Experiment_English,3.2.4,Win32,60,,,1,0,340,14,1,339,ratio12_5_15_4.png,,,,,,,,,,,,
,,,,,,,,,,,,Many,Less than half,Most,None,All,Few,Some,More than half,Half,-0.427777764,-0.309259283,1,0,0,QQQ9,,,,,,,,English,2020-07-02_11h03.01.798,Experiment_English,3.2.4,Win32,60,,,1,0,340,33,1,339,ratio11_7_14_8.png,,,,,,,,,,,,
,,,,,,,,,,,,Few,None,More than half,Half,Less than half,All,Most,Some,Many,-0.043518493,0.302777772,1,0,0,QQQ4,,,,,,,,English,2020-07-02_11h03.01.798,Experiment_English,3.2.4,Win32,60,,,1,0,340,252,1,339,ratio34_6_14_3.png,,,,,,,,,,,,
,,,,,,,,,,,,All,Most,Some,Many,Few,Half,Less than half,None,More than half,-0.458333321,-0.278703727,1,0,0,QQQ9,,,,,,,,English,2020-07-02_11h03.01.798,Experiment_English,3.2.4,Win32,60,,,1,0,340,221,1,339,ratio32_3_5_3.png,,,,,,,,,,,,
,,,,,,,,,,,,All,More than half,Few,Most,Some,None,Less than half,Many,Half,-0.485185145,0.290740735,1,0,0,QQQ7,,,,,,,,English,2020-07-02_11h03.01.798,Experiment_English,3.2.4,Win32,60,,,1,0,340,155,1,339,ratio19_2_20_13.png,,,,,,,,,,,,
,,,,,,,,,,,,None,Half,Some,Most,Many,All,Less than half,Few,More than half,-0.468518478,0.304629624,1,0,0,QQQ7,,,,,,,,English,2020-07-02_11h03.01.798,Experiment_English,3.2.4,Win32,60,,,1,0,340,199,1,339,ratio23_8_20_8.png,,,,,,,,,,,,
,,,,,,,,,,,,Few,Less than half,Many,Most,Some,Half,All,None,More than half,-0.474074033,-0.325925951,1,0,0,QQQ9,,,,,,,,English,2020-07-02_11h03.01.798,Experiment_English,3.2.4,Win32,60,,,1,0,340,165,1,339,ratio21_4_6_10.png,,,,,,,,,,,,
,,,,,,,,,,,,Less than half,Some,Few,More than half,Half,All,None,Many,Most,0.460185225,0.256481474,1,0,0,QQQ1,,,,,,,,English,2020-07-02_11h03.01.798,Experiment_English,3.2.4,Win32,60,,,1,0,340,195,1,339,ratio23_8_20_1.png,,,,,,,,,,,,
,,,,,,,,,,,,Some,All,None,Many,More than half,Less than half,Most,Few,Half,0.049074159,-0.008333348,1,0,0,QQQ5,,,,,,,,English,2020-07-02_11h03.01.798,Experiment_English,3.2.4,Win32,60,,,1,0,340,281,1,339,ratio43_4_7_4.png,,,,,,,,,,,,
,,,,,,,,,,,,Less than half,All,More than half,Some,Most,None,Many,Half,Few,0.477777819,0.22777777,1,0,0,QQQ1,,,,,,,,English,2020-07-02_11h03.01.798,Experiment_English,3.2.4,Win32,60,,,1,0,340,121,1,339,ratio15_1_6_4.png,,,,,,,,,,,,
,,,,,,,,,,,,Half,Few,Many,None,Some,More than half,Most,Less than half,All,0.037037065,-0.310185266,1,0,0,QQQ6,,,,,,,,English,2020-07-02_11h03.01.798,Experiment_English,3.2.4,Win32,60,,,1,0,340,295,1,339,ratio43_8_14_11.png,,,,,,,,,,,,
,,,,,,,,,,,,More than half,Half,Some,All,Many,Few,Most,None,Less than half,0.475925967,0.273148127,1,0,0,QQQ1,,,,,,,,English,2020-07-02_11h03.01.798,Experiment_English,3.2.4,Win32,60,,,1,0,340,282,1,339,ratio43_4_7_7.png,,,,,,,,,,,,
,,,,,,,,,,,,All,Some,None,Less than half,More than half,Few,Most,Half,Many,0.08611114,0.242592585,1,0,0,QQQ4,,,,,,,,English,2020-07-02_11h03.01.798,Experiment_English,3.2.4,Win32,60,,,1,0,340,107,1,339,ratio14_2_10_5.png,,,,,,,,,,,,
,,,,,,,,,,,,Half,Less than half,Some,None,Most,All,Many,Few,More than half,-0.027777752,0.041666653,1,0,0,QQQ5,,,,,,,,English,2020-07-02_11h03.01.798,Experiment_English,3.2.4,Win32,60,,,1,0,340,309,1,339,ratio51_10_12_10.png,,,,,,,,,,,,
