continue_mouse.x,continue_mouse.y,continue_mouse.leftButton,continue_mouse.midButton,continue_mouse.rightButton,continue_mouse.clicked_name,continue_mouse_2.x,continue_mouse_2.y,continue_mouse_2.leftButton,continue_mouse_2.midButton,continue_mouse_2.rightButton,continue_mouse_2.clicked_name,Q1,Q2,Q3,Q4,Q5,Q6,Q7,Q8,Q9,select_answer.x,select_answer.y,select_answer.leftButton,select_answer.midButton,select_answer.rightButton,select_answer.clicked_name,trial.thisRepN,trial.thisTrialN,trial.thisN,trial.thisIndex,trial.ran,trial.order,trials,Native tongue*,date,expName,psychopyVersion,OS,frameRate,key_resp.keys,key_resp.rt,trial_2.thisRepN,trial_2.thisTrialN,trial_2.thisN,trial_2.thisIndex,trial_2.ran,trial_2.order,continue_mouse_3.x,continue_mouse_3.y,continue_mouse_3.leftButton,continue_mouse_3.midButton,continue_mouse_3.rightButton,continue_mouse_3.clicked_name,insts.thisRepN,insts.thisTrialN,insts.thisN,insts.thisIndex,insts.ran,insts.order,Actual_Experiment.thisRepN,Actual_Experiment.thisTrialN,Actual_Experiment.thisN,Actual_Experiment.thisIndex,Actual_Experiment.ran,Actual_Experiment.order,Pic,mouse_pause.x,mouse_pause.y,mouse_pause.leftButton,mouse_pause.midButton,mouse_pause.rightButton,mouse_pause.clicked_name,pause.thisRepN,pause.thisTrialN,pause.thisN,pause.thisIndex,pause.ran,pause.order
0.307473958,-0.389435764,1,0,0,continue_button,0.260095486,-0.414422743,1,0,0,continue_button_2,Many,Half,None,Less than half,All,Some,More than half,Few,Most,0.023229167,0.283094618,1,0,0,QQQ4,1,0,16,12,1,15,ratio13_3_12_3.png,English,2020-07-02_11h01.11.280,Experiment_English,3.2.4,MacIntel,60,,,,,,,,,,,,,,,,,,,,,,,,,,,,,,,,,,,,,,,
,,,,,,,,,,,,None,Less than half,Some,All,More than half,Few,Most,Many,Half,0.439939236,-0.297096354,1,0,0,QQQ3,1,0,16,13,1,15,ratio12_5_15_1.png,English,2020-07-02_11h01.11.280,Experiment_English,3.2.4,MacIntel,60,,,,,,,,,,,,,,,,,,,,,,,,,,,,,,,,,,,,,,,
,,,,,,,,,,,,Many,More than half,Less than half,Half,Few,None,Some,All,Most,0.492426215,-0.298697917,1,0,0,QQQ3,1,0,16,2,1,15,ratio43_8_14_19.png,English,2020-07-02_11h01.11.280,Experiment_English,3.2.4,MacIntel,60,,,,,,,,,,,,,,,,,,,,,,,,,,,,,,,,,,,,,,,
,,,,,,,,,,,,All,More than half,Many,None,Half,Most,Some,Less than half,Few,0.483828125,-0.023111979,1,0,0,QQQ2,1,0,16,3,1,15,ratio41_8_10_8.png,English,2020-07-02_11h01.11.280,Experiment_English,3.2.4,MacIntel,60,,,,,,,,,,,,,,,,,,,,,,,,,,,,,,,,,,,,,,,
,,,,,,,,,,,,None,Half,Few,More than half,All,Most,Some,Many,Less than half,-0.460967882,-0.295273438,1,0,0,QQQ9,1,0,16,7,1,15,ratio23_2_5_8.png,English,2020-07-02_11h01.11.280,Experiment_English,3.2.4,MacIntel,60,,,,,,,,,,,,,,,,,,,,,,,,,,,,,,,,,,,,,,,
,,,,,,,,,,,,More than half,All,Some,Less than half,None,Many,Few,Most,Half,0.444583333,0.29249566,1,0,0,QQQ1,,,,,,,ratio91_9_10_19.png,English,2020-07-02_11h01.11.280,Experiment_English,3.2.4,MacIntel,60,a,2.947000027,1,0,16,0,1,15,,,,,,,,,,,,,,,,,,,,,,,,,,,,,,,
,,,,,,,,,,,,Less than half,Half,More than half,Many,None,Some,Most,Few,All,-0.470273438,-0.229461806,1,0,0,QQQ9,,,,,,,ratio0Y_0_14_10.png,English,2020-07-02_11h01.11.280,Experiment_English,3.2.4,MacIntel,60,,,1,0,16,15,1,15,,,,,,,,,,,,,,,,,,,,,,,,,,,,,,,
,,,,,,,,,,,,Few,Some,None,Most,Less than half,Many,More than half,All,Half,0.517196181,-0.014557292,1,0,0,QQQ2,,,,,,,ratio19_1_10_8.png,English,2020-07-02_11h01.11.280,Experiment_English,3.2.4,MacIntel,60,,,1,0,16,9,1,15,,,,,,,,,,,,,,,,,,,,,,,,,,,,,,,
,,,,,,,,,,,,Many,Half,Few,Most,None,All,Some,Less than half,More than half,0.506779514,0.256293403,1,0,0,QQQ1,,,,,,,ratio34_3_7_3.png,English,2020-07-02_11h01.11.280,Experiment_English,3.2.4,MacIntel,60,,,1,0,16,4,1,15,,,,,,,,,,,,,,,,,,,,,,,,,,,,,,,
,,,,,,,,,,,,Many,Some,None,All,Most,Less than half,Few,Half,More than half,0.481684028,-0.008971354,1,0,0,QQQ2,,,,,,,ratio15_2_12_4.png,English,2020-07-02_11h01.11.280,Experiment_English,3.2.4,MacIntel,60,,,1,0,16,10,1,15,,,,,,,,,,,,,,,,,,,,,,,,,,,,,,,
,,,,,,,,,,,,,,,,,,,,,,,,,,,,,,,,,,English,2020-07-02_11h01.11.280,Experiment_English,3.2.4,MacIntel,60,,,,,,,,,0.341922743,-0.408550347,1,0,0,continue_button_3,1,0,1,0,1,0,,,,,,,,,,,,,,,,,,,
,,,,,,,,,,,,More than half,Half,Many,Some,All,Few,Most,None,Less than half,-0.436688368,0.005043403,1,0,0,QQQ8,,,,,,,,English,2020-07-02_11h01.11.280,Experiment_English,3.2.4,MacIntel,60,,,,,,,,,,,,,,,,,,,,,1,0,340,75,1,339,ratio0Y_0_16_10.png,,,,,,,,,,,,
,,,,,,,,,,,,Many,Some,All,Most,Few,None,Less than half,More than half,Half,-0.081744792,-0.043476563,1,0,0,QQQ5,,,,,,,,English,2020-07-02_11h01.11.280,Experiment_English,3.2.4,MacIntel,60,,,,,,,,,,,,,,,,,,,,,1,0,340,2,1,339,ratio12_1_3_10.png,,,,,,,,,,,,
,,,,,,,,,,,,All,Half,Few,More than half,None,Many,Some,Most,Less than half,-0.459518229,-0.003971354,1,0,0,QQQ8,,,,,,,,English,2020-07-02_11h01.11.280,Experiment_English,3.2.4,MacIntel,60,,,,,,,,,,,,,,,,,,,,,1,0,340,335,1,339,ratio91_18_20_11.png,,,,,,,,,,,,
,,,,,,,,,,,,Less than half,Most,None,Many,Half,Few,More than half,Some,All,-0.444327257,-0.060746528,1,0,0,QQQ8,,,,,,,,English,2020-07-02_11h01.11.280,Experiment_English,3.2.4,MacIntel,60,,,,,,,,,,,,,,,,,,,,,1,0,340,224,1,339,ratio32_3_5_10.png,,,,,,,,,,,,
,,,,,,,,,,,,Less than half,None,More than half,Some,All,Most,Half,Many,Few,-0.368320313,-0.269956597,1,0,0,QQQ9,,,,,,,,English,2020-07-02_11h01.11.280,Experiment_English,3.2.4,MacIntel,60,,,,,,,,,,,,,,,,,,,,,1,0,340,103,1,339,ratio14_1_5_9.png,,,,,,,,,,,,
,,,,,,,,,,,,All,Most,Many,Less than half,More than half,None,Few,Some,Half,-0.403181424,0.246957465,1,0,0,QQQ7,,,,,,,,English,2020-07-02_11h01.11.280,Experiment_English,3.2.4,MacIntel,60,,,,,,,,,,,,,,,,,,,,,1,0,340,158,1,339,ratio19_2_20_17.png,,,,,,,,,,,,
,,,,,,,,,,,,Some,Half,None,Less than half,All,Few,Many,Most,More than half,0.378411458,0.211319444,1,0,0,QQQ1,,,,,,,,English,2020-07-02_11h01.11.280,Experiment_English,3.2.4,MacIntel,60,,,,,,,,,,,,,,,,,,,,,1,0,340,39,1,339,ratio11_10_20_6.png,,,,,,,,,,,,
,,,,,,,,,,,,Few,Half,Some,Less than half,Many,More than half,All,Most,None,-0.439600694,0.248684896,1,0,0,QQQ7,,,,,,,,English,2020-07-02_11h01.11.280,Experiment_English,3.2.4,MacIntel,60,,,,,,,,,,,,,,,,,,,,,1,0,340,55,1,339,ratioX0_16_16_3.png,,,,,,,,,,,,
,,,,,,,,,,,,Some,Half,Less than half,None,All,Many,Few,More than half,Most,0.411935764,0.370451389,1,0,0,QQQ1,,,,,,,,English,2020-07-02_11h01.11.280,Experiment_English,3.2.4,MacIntel,60,,,,,,,,,,,,,,,,,,,,,1,0,340,189,1,339,ratio23_4_10_8.png,,,,,,,,,,,,
,,,,,,,,,,,,All,Most,Less than half,Few,None,More than half,Half,Some,Many,0.428138021,0.022821181,1,0,0,QQQ2,,,,,,,,English,2020-07-02_11h01.11.280,Experiment_English,3.2.4,MacIntel,60,,,,,,,,,,,,,,,,,,,,,1,0,340,253,1,339,ratio34_6_14_5.png,,,,,,,,,,,,
,,,,,,,,,,,,Many,Less than half,None,Some,Few,All,Most,Half,More than half,0.500768229,-0.258246528,1,0,0,QQQ3,,,,,,,,English,2020-07-02_11h01.11.280,Experiment_English,3.2.4,MacIntel,60,,,,,,,,,,,,,,,,,,,,,1,0,340,79,1,339,ratio0Y_0_20_4.png,,,,,,,,,,,,
,,,,,,,,,,,,Few,More than half,None,Most,All,Some,Half,Less than half,Many,-0.039882813,0.286124132,1,0,0,QQQ4,,,,,,,,English,2020-07-02_11h01.11.280,Experiment_English,3.2.4,MacIntel,60,,,,,,,,,,,,,,,,,,,,,1,0,340,318,1,339,ratio51_15_18_18.png,,,,,,,,,,,,
,,,,,,,,,,,,None,Most,Half,Many,All,Less than half,More than half,Some,Few,0.104756944,0.032330729,1,0,0,QQQ5,,,,,,,,English,2020-07-02_11h01.11.280,Experiment_English,3.2.4,MacIntel,60,,,,,,,,,,,,,,,,,,,,,1,0,340,180,1,339,ratio23_2_5_4.png,,,,,,,,,,,,
,,,,,,,,,,,,More than half,All,Half,Many,Few,Less than half,Most,None,Some,0.52312934,0.302443576,1,0,0,QQQ1,,,,,,,,English,2020-07-02_11h01.11.280,Experiment_English,3.2.4,MacIntel,60,,,,,,,,,,,,,,,,,,,,,1,0,340,29,1,339,ratio11_6_12_1.png,,,,,,,,,,,,
,,,,,,,,,,,,Half,None,Less than half,Many,Few,More than half,Most,All,Some,0.50703559,0.021393229,1,0,0,QQQ2,,,,,,,,English,2020-07-02_11h01.11.280,Experiment_English,3.2.4,MacIntel,60,,,,,,,,,,,,,,,,,,,,,1,0,340,71,1,339,ratio0Y_0_12_10.png,,,,,,,,,,,,
,,,,,,,,,,,,Few,Many,Most,Half,More than half,Some,None,Less than half,All,0.511831597,-0.289756944,1,0,0,QQQ3,,,,,,,,English,2020-07-02_11h01.11.280,Experiment_English,3.2.4,MacIntel,60,,,,,,,,,,,,,,,,,,,,,1,0,340,225,1,339,ratio32_6_10_4.png,,,,,,,,,,,,
,,,,,,,,,,,,Less than half,Half,None,All,Few,Some,More than half,Many,Most,0.61421875,-0.327847222,1,0,0,QQQ3,,,,,,,,English,2020-07-02_11h01.11.280,Experiment_English,3.2.4,MacIntel,60,,,,,,,,,,,,,,,,,,,,,1,0,340,60,1,339,ratio0Y_0_3_5.png,,,,,,,,,,,,
,,,,,,,,,,,,Less than half,Most,All,None,Half,Many,More than half,Few,Some,0.540525174,-0.040407986,1,0,0,QQQ2,,,,,,,,English,2020-07-02_11h01.11.280,Experiment_English,3.2.4,MacIntel,60,,,,,,,,,,,,,,,,,,,,,1,0,340,32,1,339,ratio11_7_14_5.png,,,,,,,,,,,,
,,,,,,,,,,,,Some,None,Most,All,Less than half,More than half,Half,Many,Few,-0.463671875,-0.050716146,1,0,0,QQQ8,,,,,,,,English,2020-07-02_11h01.11.280,Experiment_English,3.2.4,MacIntel,60,,,,,,,,,,,,,,,,,,,,,1,0,340,323,1,339,ratio91_9_10_5.png,,,,,,,,,,,,
,,,,,,,,,,,,All,Many,Half,Some,Most,Less than half,None,More than half,Few,0.102105035,0.220907118,1,0,0,QQQ4,,,,,,,,English,2020-07-02_11h01.11.280,Experiment_English,3.2.4,MacIntel,60,,,,,,,,,,,,,,,,,,,,,1,0,340,110,1,339,ratio14_3_15_2.png,,,,,,,,,,,,
,,,,,,,,,,,,More than half,All,Some,Few,Half,Most,Less than half,None,Many,0.037148437,0.232065972,1,0,0,QQQ4,,,,,,,,English,2020-07-02_11h01.11.280,Experiment_English,3.2.4,MacIntel,60,,,,,,,,,,,,,,,,,,,,,1,0,340,27,1,339,ratio11_5_10_7.png,,,,,,,,,,,,
,,,,,,,,,,,,More than half,None,Some,Few,Less than half,All,Half,Most,Many,0.019153646,-0.372478299,1,0,0,QQQ6,,,,,,,,English,2020-07-02_11h01.11.280,Experiment_English,3.2.4,MacIntel,60,,,,,,,,,,,,,,,,,,,,,1,0,340,56,1,339,ratioX0_17_17_10.png,,,,,,,,,,,,
,,,,,,,,,,,,Many,None,Half,Most,All,More than half,Some,Few,Less than half,0.560572917,0.229809028,1,0,0,QQQ1,,,,,,,,English,2020-07-02_11h01.11.280,Experiment_English,3.2.4,MacIntel,60,,,,,,,,,,,,,,,,,,,,,1,0,340,211,1,339,ratio31_9_12_10.png,,,,,,,,,,,,
,,,,,,,,,,,,More than half,Most,Many,Less than half,None,Half,All,Few,Some,0.635950521,-0.061783854,1,0,0,QQQ2,,,,,,,,English,2020-07-02_11h01.11.280,Experiment_English,3.2.4,MacIntel,60,,,,,,,,,,,,,,,,,,,,,1,0,340,326,1,339,ratio91_9_10_10.png,,,,,,,,,,,,
,,,,,,,,,,,,Most,Less than half,Some,Few,Many,None,Half,More than half,All,0.422634549,0.209791667,1,0,0,QQQ1,,,,,,,,English,2020-07-02_11h01.11.280,Experiment_English,3.2.4,MacIntel,60,,,,,,,,,,,,,,,,,,,,,1,0,340,325,1,339,ratio91_9_10_8.png,,,,,,,,,,,,
,,,,,,,,,,,,Many,None,Few,Most,More than half,All,Less than half,Half,Some,0.052057292,-0.038771701,1,0,0,QQQ5,,,,,,,,English,2020-07-02_11h01.11.280,Experiment_English,3.2.4,MacIntel,60,,,,,,,,,,,,,,,,,,,,,1,0,340,311,1,339,ratio51_10_12_14.png,,,,,,,,,,,,
,,,,,,,,,,,,Half,Less than half,Most,More than half,Few,None,Some,All,Many,0.414114583,-0.015759549,1,0,0,QQQ2,,,,,,,,English,2020-07-02_11h01.11.280,Experiment_English,3.2.4,MacIntel,60,,,,,,,,,,,,,,,,,,,,,1,0,340,92,1,339,ratio13_4_16_3.png,,,,,,,,,,,,
,,,,,,,,,,,,Many,Most,Less than half,None,Some,More than half,Half,Few,All,-0.555798611,0.272113715,1,0,0,QQQ7,,,,,,,,English,2020-07-02_11h01.11.280,Experiment_English,3.2.4,MacIntel,60,,,,,,,,,,,,,,,,,,,,,1,0,340,232,1,339,ratio32_9_15_8.png,,,,,,,,,,,,
,,,,,,,,,,,,Few,Half,Less than half,None,Many,All,More than half,Some,Most,0.059023437,-0.033263889,1,0,0,QQQ5,,,,,,,,English,2020-07-02_11h01.11.280,Experiment_English,3.2.4,MacIntel,60,,,,,,,,,,,,,,,,,,,,,1,0,340,293,1,339,ratio43_8_14_7.png,,,,,,,,,,,,
,,,,,,,,,,,,Some,None,Half,More than half,Most,Many,Less than half,Few,All,-0.391384549,0.252638889,1,0,0,QQQ7,,,,,,,,English,2020-07-02_11h01.11.280,Experiment_English,3.2.4,MacIntel,60,,,,,,,,,,,,,,,,,,,,,1,0,340,0,1,339,ratio12_1_3_3.png,,,,,,,,,,,,
,,,,,,,,,,,,All,Some,More than half,None,Half,Less than half,Few,Many,Most,-0.406258681,0.248103299,1,0,0,QQQ7,,,,,,,,English,2020-07-02_11h01.11.280,Experiment_English,3.2.4,MacIntel,60,,,,,,,,,,,,,,,,,,,,,1,0,340,141,1,339,ratio19_1_10_2.png,,,,,,,,,,,,
,,,,,,,,,,,,Less than half,Some,Half,Few,All,None,Most,Many,More than half,-0.407369792,0.24655816,1,0,0,QQQ7,,,,,,,,English,2020-07-02_11h01.11.280,Experiment_English,3.2.4,MacIntel,60,,,,,,,,,,,,,,,,,,,,,1,0,340,145,1,339,ratio19_1_10_15.png,,,,,,,,,,,,
,,,,,,,,,,,,Many,None,Most,All,Less than half,Some,Few,More than half,Half,-0.447000868,0.296037326,1,0,0,QQQ7,,,,,,,,English,2020-07-02_11h01.11.280,Experiment_English,3.2.4,MacIntel,60,,,,,,,,,,,,,,,,,,,,,1,0,340,241,1,339,ratio34_3_7_5.png,,,,,,,,,,,,
,,,,,,,,,,,,All,None,Most,Few,Half,Many,More than half,Less than half,Some,-0.451384549,1.3028E-05,1,0,0,QQQ8,,,,,,,,English,2020-07-02_11h01.11.280,Experiment_English,3.2.4,MacIntel,60,,,,,,,,,,,,,,,,,,,,,1,0,340,100,1,339,ratio14_1_5_3.png,0.260698785,-0.39281684,1,0,0,continue_button_pause,1,0,1,0,1,0
,,,,,,,,,,,,,,,,,,,,,,,,,,,,,,,,,,English,2020-07-02_11h01.11.280,Experiment_English,3.2.4,MacIntel,60,,,,,,,,,,,,,,,,,,,,,1,0,340,100,1,339,ratio14_1_5_3.png,,,,,,,,,,,,
,,,,,,,,,,,,None,Half,More than half,All,Most,Many,Few,Less than half,Some,0.117556424,-0.076440972,1,0,0,QQQ5,,,,,,,,English,2020-07-02_11h01.11.280,Experiment_English,3.2.4,MacIntel,60,,,,,,,,,,,,,,,,,,,,,1,0,340,218,1,339,ratio31_15_20_7.png,,,,,,,,,,,,
,,,,,,,,,,,,All,Some,Less than half,Most,Many,More than half,None,Few,Half,0.093680556,-0.062552083,1,0,0,QQQ5,,,,,,,,English,2020-07-02_11h01.11.280,Experiment_English,3.2.4,MacIntel,60,,,,,,,,,,,,,,,,,,,,,1,0,340,174,1,339,ratio21_10_15_1.png,,,,,,,,,,,,
,,,,,,,,,,,,Many,Half,More than half,None,Some,Most,Less than half,Few,All,0.093680556,-0.062552083,1,0,0,QQQ5,,,,,,,,English,2020-07-02_11h01.11.280,Experiment_English,3.2.4,MacIntel,60,,,,,,,,,,,,,,,,,,,,,1,0,340,222,1,339,ratio32_3_5_4.png,,,,,,,,,,,,
,,,,,,,,,,,,Few,All,Less than half,More than half,Some,Half,None,Most,Many,-0.016467014,0.282378472,1,0,0,QQQ4,,,,,,,,English,2020-07-02_11h01.11.280,Experiment_English,3.2.4,MacIntel,60,,,,,,,,,,,,,,,,,,,,,1,0,340,139,1,339,ratio15_3_18_20.png,,,,,,,,,,,,
,,,,,,,,,,,,All,Less than half,More than half,Some,Few,None,Many,Most,Half,0.580238715,-0.308689236,1,0,0,QQQ3,,,,,,,,English,2020-07-02_11h01.11.280,Experiment_English,3.2.4,MacIntel,60,,,,,,,,,,,,,,,,,,,,,1,0,340,284,1,339,ratio43_4_7_11.png,,,,,,,,,,,,
,,,,,,,,,,,,Many,Most,More than half,Some,Few,All,None,Less than half,Half,0.546762153,-0.328320312,1,0,0,QQQ3,,,,,,,,English,2020-07-02_11h01.11.280,Experiment_English,3.2.4,MacIntel,60,,,,,,,,,,,,,,,,,,,,,1,0,340,172,1,339,ratio21_8_12_6.png,,,,,,,,,,,,
,,,,,,,,,,,,All,None,Many,Some,More than half,Most,Less than half,Half,Few,-0.456597222,0.253224826,1,0,0,QQQ7,,,,,,,,English,2020-07-02_11h01.11.280,Experiment_English,3.2.4,MacIntel,60,,,,,,,,,,,,,,,,,,,,,1,0,340,114,1,339,ratio14_3_15_10.png,,,,,,,,,,,,
,,,,,,,,,,,,Most,Few,Less than half,None,More than half,Half,All,Many,Some,0.361419271,-0.070295139,1,0,0,QQQ2,,,,,,,,English,2020-07-02_11h01.11.280,Experiment_English,3.2.4,MacIntel,60,,,,,,,,,,,,,,,,,,,,,1,0,340,144,1,339,ratio19_1_10_11.png,,,,,,,,,,,,
,,,,,,,,,,,,Most,Half,All,None,Few,Many,Some,More than half,Less than half,-0.081679688,-0.284678819,1,0,0,QQQ6,,,,,,,,English,2020-07-02_11h01.11.280,Experiment_English,3.2.4,MacIntel,60,,,,,,,,,,,,,,,,,,,,,1,0,340,306,1,339,ratio51_5_6_18.png,,,,,,,,,,,,
,,,,,,,,,,,,All,Most,Half,None,Many,Few,Some,More than half,Less than half,-0.029344618,0.269943576,1,0,0,QQQ4,,,,,,,,English,2020-07-02_11h01.11.280,Experiment_English,3.2.4,MacIntel,60,,,,,,,,,,,,,,,,,,,,,1,0,340,76,1,339,ratio0Y_0_17_10.png,,,,,,,,,,,,
,,,,,,,,,,,,Some,All,Less than half,Many,Few,More than half,Half,Most,None,-0.479314236,0.350238715,1,0,0,QQQ7,,,,,,,,English,2020-07-02_11h01.11.280,Experiment_English,3.2.4,MacIntel,60,,,,,,,,,,,,,,,,,,,,,1,0,340,28,1,339,ratio11_5_10_9.png,,,,,,,,,,,,
,,,,,,,,,,,,Few,Half,Less than half,More than half,Many,Some,All,Most,None,0.049565972,0.070221354,1,0,0,QQQ5,,,,,,,,English,2020-07-02_11h01.11.280,Experiment_English,3.2.4,MacIntel,60,,,,,,,,,,,,,,,,,,,,,1,0,340,252,1,339,ratio34_6_14_3.png,,,,,,,,,,,,
,,,,,,,,,,,,Some,Few,Many,More than half,Most,Less than half,Half,None,All,0.057417535,0.22687066,1,0,0,QQQ4,,,,,,,,English,2020-07-02_11h01.11.280,Experiment_English,3.2.4,MacIntel,60,,,,,,,,,,,,,,,,,,,,,1,0,340,49,1,339,ratioX0_11_11_2.png,,,,,,,,,,,,
,,,,,,,,,,,,More than half,All,Few,Less than half,None,Some,Most,Half,Many,-0.536553819,-0.318815104,1,0,0,QQQ9,,,,,,,,English,2020-07-02_11h01.11.280,Experiment_English,3.2.4,MacIntel,60,,,,,,,,,,,,,,,,,,,,,1,0,340,303,1,339,ratio51_5_6_6.png,,,,,,,,,,,,
,,,,,,,,,,,,Few,All,Many,Some,Half,None,Less than half,More than half,Most,0.013216146,-0.049830729,1,0,0,QQQ5,,,,,,,,English,2020-07-02_11h01.11.280,Experiment_English,3.2.4,MacIntel,60,,,,,,,,,,,,,,,,,,,,,1,0,340,199,1,339,ratio23_8_20_8.png,,,,,,,,,,,,
,,,,,,,,,,,,Less than half,Half,Few,None,Many,All,Most,Some,More than half,0.416697049,-0.309696181,1,0,0,QQQ3,,,,,,,,English,2020-07-02_11h01.11.280,Experiment_English,3.2.4,MacIntel,60,,,,,,,,,,,,,,,,,,,,,1,0,340,93,1,339,ratio13_4_16_7.png,,,,,,,,,,,,
,,,,,,,,,,,,Half,Less than half,Some,Many,Most,All,None,More than half,Few,-0.434357639,-0.303949653,1,0,0,QQQ9,,,,,,,,English,2020-07-02_11h01.11.280,Experiment_English,3.2.4,MacIntel,60,,,,,,,,,,,,,,,,,,,,,1,0,340,220,1,339,ratio32_3_5_1.png,,,,,,,,,,,,
,,,,,,,,,,,,Many,All,Few,More than half,Some,Half,Less than half,Most,None,0.005546875,-0.283919271,1,0,0,QQQ6,,,,,,,,English,2020-07-02_11h01.11.280,Experiment_English,3.2.4,MacIntel,60,,,,,,,,,,,,,,,,,,,,,1,0,340,91,1,339,ratio13_3_12_10.png,,,,,,,,,,,,
,,,,,,,,,,,,None,All,Some,Less than half,Few,More than half,Most,Half,Many,0.475099826,0.260099826,1,0,0,QQQ1,,,,,,,,English,2020-07-02_11h01.11.280,Experiment_English,3.2.4,MacIntel,60,,,,,,,,,,,,,,,,,,,,,1,0,340,336,1,339,ratio91_18_20_12.png,,,,,,,,,,,,
,,,,,,,,,,,,All,Less than half,Some,Half,Few,Many,None,Most,More than half,0.047786458,-0.020551215,1,0,0,QQQ5,,,,,,,,English,2020-07-02_11h01.11.280,Experiment_English,3.2.4,MacIntel,60,,,,,,,,,,,,,,,,,,,,,1,0,340,142,1,339,ratio19_1_10_6.png,,,,,,,,,,,,
,,,,,,,,,,,,Half,Few,Many,More than half,Most,None,Some,All,Less than half,-0.523142361,-0.356471354,1,0,0,QQQ9,,,,,,,,English,2020-07-02_11h01.11.280,Experiment_English,3.2.4,MacIntel,60,,,,,,,,,,,,,,,,,,,,,1,0,340,182,1,339,ratio23_2_5_7.png,,,,,,,,,,,,
,,,,,,,,,,,,Less than half,Half,Some,More than half,Many,Most,Few,None,All,-0.433355035,0.243307292,1,0,0,QQQ7,,,,,,,,English,2020-07-02_11h01.11.280,Experiment_English,3.2.4,MacIntel,60,,,,,,,,,,,,,,,,,,,,,1,0,340,123,1,339,ratio15_1_6_12.png,,,,,,,,,,,,
,,,,,,,,,,,,Half,Most,More than half,None,Many,Some,Few,Less than half,All,-0.553732639,-0.343537326,1,0,0,QQQ9,,,,,,,,English,2020-07-02_11h01.11.280,Experiment_English,3.2.4,MacIntel,60,,,,,,,,,,,,,,,,,,,,,1,0,340,59,1,339,ratioX0_20_20_9.png,,,,,,,,,,,,
,,,,,,,,,,,,Most,Some,Few,Many,None,Less than half,All,Half,More than half,-0.425546875,-0.317100694,1,0,0,QQQ9,,,,,,,,English,2020-07-02_11h01.11.280,Experiment_English,3.2.4,MacIntel,60,,,,,,,,,,,,,,,,,,,,,1,0,340,208,1,339,ratio31_9_12_3.png,,,,,,,,,,,,
,,,,,,,,,,,,Most,Many,Some,None,Less than half,More than half,Half,Few,All,0.038958333,-0.364509549,1,0,0,QQQ6,,,,,,,,English,2020-07-02_11h01.11.280,Experiment_English,3.2.4,MacIntel,60,,,,,,,,,,,,,,,,,,,,,1,0,340,249,1,339,ratio34_3_7_20.png,,,,,,,,,,,,
,,,,,,,,,,,,Less than half,Half,Few,None,Many,Most,Some,More than half,All,0.033485243,0.259539931,1,0,0,QQQ4,,,,,,,,English,2020-07-02_11h01.11.280,Experiment_English,3.2.4,MacIntel,60,,,,,,,,,,,,,,,,,,,,,1,0,340,67,1,339,ratio0Y_0_10_10.png,,,,,,,,,,,,
,,,,,,,,,,,,None,Few,Less than half,More than half,Some,All,Most,Half,Many,0.446731771,-0.337569444,1,0,0,QQQ3,,,,,,,,English,2020-07-02_11h01.11.280,Experiment_English,3.2.4,MacIntel,60,,,,,,,,,,,,,,,,,,,,,1,0,340,138,1,339,ratio15_3_18_17.png,,,,,,,,,,,,
,,,,,,,,,,,,More than half,Less than half,Half,Most,None,Few,All,Some,Many,0.455034722,-0.035499132,1,0,0,QQQ2,,,,,,,,English,2020-07-02_11h01.11.280,Experiment_English,3.2.4,MacIntel,60,,,,,,,,,,,,,,,,,,,,,1,0,340,254,1,339,ratio34_6_14_9.png,,,,,,,,,,,,
,,,,,,,,,,,,Less than half,Half,Many,Most,All,Some,Few,More than half,None,0.53890191,-0.042256944,1,0,0,QQQ2,,,,,,,,English,2020-07-02_11h01.11.280,Experiment_English,3.2.4,MacIntel,60,,,,,,,,,,,,,,,,,,,,,1,0,340,19,1,339,ratio12_6_18_9.png,,,,,,,,,,,,
,,,,,,,,,,,,Most,Many,Few,All,Half,Some,None,More than half,Less than half,-0.420807292,-0.060390625,1,0,0,QQQ8,,,,,,,,English,2020-07-02_11h01.11.280,Experiment_English,3.2.4,MacIntel,60,,,,,,,,,,,,,,,,,,,,,1,0,340,290,1,339,ratio43_8_14_3.png,,,,,,,,,,,,
,,,,,,,,,,,,None,Half,More than half,Less than half,Most,All,Few,Many,Some,0.410373264,-0.335685764,1,0,0,QQQ3,,,,,,,,English,2020-07-02_11h01.11.280,Experiment_English,3.2.4,MacIntel,60,,,,,,,,,,,,,,,,,,,,,1,0,340,286,1,339,ratio43_4_7_15.png,,,,,,,,,,,,
,,,,,,,,,,,,More than half,Half,Few,Some,Most,Less than half,None,All,Many,0.474236111,0.267608507,1,0,0,QQQ1,,,,,,,,English,2020-07-02_11h01.11.280,Experiment_English,3.2.4,MacIntel,60,,,,,,,,,,,,,,,,,,,,,1,0,340,34,1,339,ratio11_8_16_8.png,,,,,,,,,,,,
,,,,,,,,,,,,Half,Some,None,Most,More than half,All,Less than half,Few,Many,0.450746528,0.308893229,1,0,0,QQQ1,,,,,,,,English,2020-07-02_11h01.11.280,Experiment_English,3.2.4,MacIntel,60,,,,,,,,,,,,,,,,,,,,,1,0,340,198,1,339,ratio23_8_20_7.png,,,,,,,,,,,,
,,,,,,,,,,,,More than half,None,Few,All,Less than half,Some,Most,Half,Many,-0.022725694,-0.012317708,1,0,0,QQQ5,,,,,,,,English,2020-07-02_11h01.11.280,Experiment_English,3.2.4,MacIntel,60,,,,,,,,,,,,,,,,,,,,,1,0,340,7,1,339,ratio12_3_9_2.png,0.299796007,-0.411892361,1,0,0,continue_button_pause,1,0,1,0,1,0
,,,,,,,,,,,,,,,,,,,,,,,,,,,,,,,,,,English,2020-07-02_11h01.11.280,Experiment_English,3.2.4,MacIntel,60,,,,,,,,,,,,,,,,,,,,,1,0,340,7,1,339,ratio12_3_9_2.png,,,,,,,,,,,,
,,,,,,,,,,,,More than half,Most,Many,All,Some,Less than half,None,Few,Half,-0.45796875,-0.087877604,1,0,0,QQQ8,,,,,,,,English,2020-07-02_11h01.11.280,Experiment_English,3.2.4,MacIntel,60,,,,,,,,,,,,,,,,,,,,,1,0,340,80,1,339,ratio13_1_4_3.png,,,,,,,,,,,,
,,,,,,,,,,,,All,Few,More than half,Half,Some,Many,Less than half,Most,None,-0.421666667,0.235798611,1,0,0,QQQ7,,,,,,,,English,2020-07-02_11h01.11.280,Experiment_English,3.2.4,MacIntel,60,,,,,,,,,,,,,,,,,,,,,1,0,340,188,1,339,ratio23_4_10_6.png,,,,,,,,,,,,
,,,,,,,,,,,,Half,More than half,None,Most,Less than half,Few,Some,Many,All,0.086944444,-0.083480903,1,0,0,QQQ5,,,,,,,,English,2020-07-02_11h01.11.280,Experiment_English,3.2.4,MacIntel,60,,,,,,,,,,,,,,,,,,,,,1,0,340,136,1,339,ratio15_3_18_8.png,,,,,,,,,,,,
,,,,,,,,,,,,Many,More than half,None,All,Most,Some,Half,Less than half,Few,0.477990451,-0.047981771,1,0,0,QQQ2,,,,,,,,English,2020-07-02_11h01.11.280,Experiment_English,3.2.4,MacIntel,60,,,,,,,,,,,,,,,,,,,,,1,0,340,209,1,339,ratio31_9_12_6.png,,,,,,,,,,,,
,,,,,,,,,,,,Many,More than half,None,Most,Half,Some,Few,All,Less than half,0.033454861,0.210490451,1,0,0,QQQ4,,,,,,,,English,2020-07-02_11h01.11.280,Experiment_English,3.2.4,MacIntel,60,,,,,,,,,,,,,,,,,,,,,1,0,340,194,1,339,ratio23_6_15_10.png,,,,,,,,,,,,
,,,,,,,,,,,,More than half,Half,Few,Most,None,All,Some,Less than half,Many,0.089014757,0.28109809,1,0,0,QQQ4,,,,,,,,English,2020-07-02_11h01.11.280,Experiment_English,3.2.4,MacIntel,60,,,,,,,,,,,,,,,,,,,,,1,0,340,319,1,339,ratio51_15_18_20.png,,,,,,,,,,,,
,,,,,,,,,,,,Less than half,Few,Some,Many,Most,More than half,Half,All,None,0.510677083,-0.015264757,1,0,0,QQQ2,,,,,,,,English,2020-07-02_11h01.11.280,Experiment_English,3.2.4,MacIntel,60,,,,,,,,,,,,,,,,,,,,,1,0,340,153,1,339,ratio19_2_20_8.png,,,,,,,,,,,,
,,,,,,,,,,,,Few,Many,All,Most,Less than half,Some,Half,None,More than half,0.038502604,-0.285221354,1,0,0,QQQ6,,,,,,,,English,2020-07-02_11h01.11.280,Experiment_English,3.2.4,MacIntel,60,,,,,,,,,,,,,,,,,,,,,1,0,340,118,1,339,ratio14_4_20_8.png,,,,,,,,,,,,
,,,,,,,,,,,,Many,Few,Most,Half,All,More than half,Less than half,Some,None,0.441766493,0.274939236,1,0,0,QQQ1,,,,,,,,English,2020-07-02_11h01.11.280,Experiment_English,3.2.4,MacIntel,60,,,,,,,,,,,,,,,,,,,,,1,0,340,203,1,339,ratio31_3_4_9.png,,,,,,,,,,,,
,,,,,,,,,,,,Half,Few,None,More than half,Most,Some,All,Less than half,Many,0.642447917,-0.040390625,1,0,0,QQQ2,,,,,,,,English,2020-07-02_11h01.11.280,Experiment_English,3.2.4,MacIntel,60,,,,,,,,,,,,,,,,,,,,,1,0,340,83,1,339,ratio13_1_4_10.png,,,,,,,,,,,,
,,,,,,,,,,,,Some,More than half,Most,Many,Few,None,Less than half,All,Half,0.050772569,0.273671875,1,0,0,QQQ4,,,,,,,,English,2020-07-02_11h01.11.280,Experiment_English,3.2.4,MacIntel,60,,,,,,,,,,,,,,,,,,,,,1,0,340,204,1,339,ratio31_6_8_1.png,,,,,,,,,,,,
,,,,,,,,,,,,All,More than half,Some,Half,Less than half,Many,None,Few,Most,-0.396601563,-0.027274306,1,0,0,QQQ8,,,,,,,,English,2020-07-02_11h01.11.280,Experiment_English,3.2.4,MacIntel,60,,,,,,,,,,,,,,,,,,,,,1,0,340,140,1,339,ratio19_1_10_1.png,,,,,,,,,,,,
,,,,,,,,,,,,All,Some,Many,Less than half,None,Half,Most,More than half,Few,-0.452699653,0.272851562,1,0,0,QQQ7,,,,,,,,English,2020-07-02_11h01.11.280,Experiment_English,3.2.4,MacIntel,60,,,,,,,,,,,,,,,,,,,,,1,0,340,98,1,339,ratio13_5_20_3.png,,,,,,,,,,,,
,,,,,,,,,,,,None,More than half,Many,Less than half,Most,Few,Some,Half,All,-0.050034722,-0.305407986,1,0,0,QQQ6,,,,,,,,English,2020-07-02_11h01.11.280,Experiment_English,3.2.4,MacIntel,60,,,,,,,,,,,,,,,,,,,,,1,0,340,96,1,339,ratio13_5_20_1.png,,,,,,,,,,,,
,,,,,,,,,,,,All,Less than half,Some,Few,Most,None,More than half,Many,Half,-0.569583333,0.283164062,1,0,0,QQQ7,,,,,,,,English,2020-07-02_11h01.11.280,Experiment_English,3.2.4,MacIntel,60,,,,,,,,,,,,,,,,,,,,,1,0,340,280,1,339,ratio43_4_7_2.png,,,,,,,,,,,,
,,,,,,,,,,,,None,All,Half,More than half,Most,Many,Some,Few,Less than half,-0.085460069,0.219162326,1,0,0,QQQ4,,,,,,,,English,2020-07-02_11h01.11.280,Experiment_English,3.2.4,MacIntel,60,,,,,,,,,,,,,,,,,,,,,1,0,340,169,1,339,ratio21_6_9_7.png,,,,,,,,,,,,
,,,,,,,,,,,,Many,Half,Most,More than half,None,All,Less than half,Some,Few,-0.446597222,-0.309809028,1,0,0,QQQ9,,,,,,,,English,2020-07-02_11h01.11.280,Experiment_English,3.2.4,MacIntel,60,,,,,,,,,,,,,,,,,,,,,1,0,340,101,1,339,ratio14_1_5_7.png,,,,,,,,,,,,
,,,,,,,,,,,,Some,Less than half,Half,Many,Most,More than half,Few,None,All,0.648628472,0.366514757,1,0,0,QQQ1,,,,,,,,English,2020-07-02_11h01.11.280,Experiment_English,3.2.4,MacIntel,60,,,,,,,,,,,,,,,,,,,,,1,0,340,195,1,339,ratio23_8_20_1.png,,,,,,,,,,,,
,,,,,,,,,,,,All,More than half,Few,None,Most,Less than half,Many,Some,Half,0.466132812,-0.035607639,1,0,0,QQQ2,,,,,,,,English,2020-07-02_11h01.11.280,Experiment_English,3.2.4,MacIntel,60,,,,,,,,,,,,,,,,,,,,,1,0,340,215,1,339,ratio31_12_16_8.png,,,,,,,,,,,,
,,,,,,,,,,,,More than half,Half,All,Some,Few,Most,Less than half,Many,None,-0.437951389,-0.022829861,1,0,0,QQQ8,,,,,,,,English,2020-07-02_11h01.11.280,Experiment_English,3.2.4,MacIntel,60,,,,,,,,,,,,,,,,,,,,,1,0,340,236,1,339,ratio32_12_20_2.png,,,,,,,,,,,,
,,,,,,,,,,,,Half,Some,More than half,None,Less than half,All,Few,Many,Most,-0.437951389,-0.022829861,1,0,0,QQQ8,,,,,,,,English,2020-07-02_11h01.11.280,Experiment_English,3.2.4,MacIntel,60,,,,,,,,,,,,,,,,,,,,,1,0,340,277,1,339,ratio41_16_20_8.png,,,,,,,,,,,,
,,,,,,,,,,,,All,None,Some,Few,Most,Many,Less than half,Half,More than half,0.374969618,0.303007812,1,0,0,QQQ1,,,,,,,,English,2020-07-02_11h01.11.280,Experiment_English,3.2.4,MacIntel,60,,,,,,,,,,,,,,,,,,,,,1,0,340,41,1,339,ratioX0_4_4_9.png,,,,,,,,,,,,
,,,,,,,,,,,,All,Half,Less than half,Most,Some,More than half,Many,Few,None,0.415481771,0.245859375,1,0,0,QQQ1,,,,,,,,English,2020-07-02_11h01.11.280,Experiment_English,3.2.4,MacIntel,60,,,,,,,,,,,,,,,,,,,,,1,0,340,50,1,339,ratioX0_12_12_3.png,,,,,,,,,,,,
,,,,,,,,,,,,Few,Less than half,More than half,Many,All,Some,Half,None,Most,0.433767361,-0.082526042,1,0,0,QQQ2,,,,,,,,English,2020-07-02_11h01.11.280,Experiment_English,3.2.4,MacIntel,60,,,,,,,,,,,,,,,,,,,,,1,0,340,196,1,339,ratio23_8_20_5.png,,,,,,,,,,,,
,,,,,,,,,,,,Half,Few,Many,Less than half,Some,All,Most,None,More than half,0.139149306,0.33109809,1,0,0,QQQ4,,,,,,,,English,2020-07-02_11h01.11.280,Experiment_English,3.2.4,MacIntel,60,,,,,,,,,,,,,,,,,,,,,1,0,340,183,1,339,ratio23_2_5_9.png,,,,,,,,,,,,
,,,,,,,,,,,,Half,Some,Many,All,More than half,Few,None,Most,Less than half,0.062756076,0.034010417,1,0,0,QQQ5,,,,,,,,English,2020-07-02_11h01.11.280,Experiment_English,3.2.4,MacIntel,60,,,,,,,,,,,,,,,,,,,,,1,0,340,31,1,339,ratio11_6_12_9.png,,,,,,,,,,,,
,,,,,,,,,,,,Most,Some,Many,Few,Less than half,All,Half,None,More than half,0.556783854,0.035846354,1,0,0,QQQ2,,,,,,,,English,2020-07-02_11h01.11.280,Experiment_English,3.2.4,MacIntel,60,,,,,,,,,,,,,,,,,,,,,1,0,340,11,1,339,ratio12_4_12_7.png,,,,,,,,,,,,
,,,,,,,,,,,,More than half,Many,Less than half,Some,None,Half,All,Most,Few,-0.027309028,0.379804688,1,0,0,QQQ4,,,,,,,,English,2020-07-02_11h01.11.280,Experiment_English,3.2.4,MacIntel,60,,,,,,,,,,,,,,,,,,,,,1,0,340,251,1,339,ratio34_6_14_2.png,,,,,,,,,,,,
,,,,,,,,,,,,Many,Less than half,All,More than half,Few,None,Some,Half,Most,-0.002907986,-0.333111979,1,0,0,QQQ6,,,,,,,,English,2020-07-02_11h01.11.280,Experiment_English,3.2.4,MacIntel,60,,,,,,,,,,,,,,,,,,,,,1,0,340,72,1,339,ratio0Y_0_13_4.png,,,,,,,,,,,,
,,,,,,,,,,,,Half,More than half,Less than half,All,None,Some,Few,Most,Many,-0.015303819,-0.034236111,1,0,0,QQQ5,,,,,,,,English,2020-07-02_11h01.11.280,Experiment_English,3.2.4,MacIntel,60,,,,,,,,,,,,,,,,,,,,,1,0,340,66,1,339,ratio0Y_0_9_8.png,,,,,,,,,,,,
,,,,,,,,,,,,All,Half,Most,Less than half,More than half,Few,Many,Some,None,-0.016072049,0.017078993,1,0,0,QQQ5,,,,,,,,English,2020-07-02_11h01.11.280,Experiment_English,3.2.4,MacIntel,60,,,,,,,,,,,,,,,,,,,,,1,0,340,334,1,339,ratio91_18_20_9.png,,,,,,,,,,,,
,,,,,,,,,,,,All,Many,Less than half,None,More than half,Most,Few,Some,Half,-0.007274306,-0.336779514,1,0,0,QQQ6,,,,,,,,English,2020-07-02_11h01.11.280,Experiment_English,3.2.4,MacIntel,60,,,,,,,,,,,,,,,,,,,,,1,0,340,305,1,339,ratio51_5_6_14.png,,,,,,,,,,,,
,,,,,,,,,,,,More than half,Few,Some,All,Many,Most,Half,None,Less than half,-0.044652778,-0.236510417,1,0,0,QQQ6,,,,,,,,English,2020-07-02_11h01.11.280,Experiment_English,3.2.4,MacIntel,60,,,,,,,,,,,,,,,,,,,,,1,0,340,26,1,339,ratio11_5_10_4.png,,,,,,,,,,,,
,,,,,,,,,,,,Many,Half,Less than half,Most,More than half,Some,Few,All,None,-0.348146701,0.302105035,1,0,0,QQQ7,,,,,,,,English,2020-07-02_11h01.11.280,Experiment_English,3.2.4,MacIntel,60,,,,,,,,,,,,,,,,,,,,,1,0,340,81,1,339,ratio13_1_4_5.png,0.329318576,-0.366302083,1,0,0,continue_button_pause,1,0,1,0,1,0
,,,,,,,,,,,,,,,,,,,,,,,,,,,,,,,,,,English,2020-07-02_11h01.11.280,Experiment_English,3.2.4,MacIntel,60,,,,,,,,,,,,,,,,,,,,,1,0,340,81,1,339,ratio13_1_4_5.png,,,,,,,,,,,,
,,,,,,,,,,,,Many,More than half,None,Half,All,Most,Some,Less than half,Few,0.418151042,-0.033381076,1,0,0,QQQ2,,,,,,,,English,2020-07-02_11h01.11.280,Experiment_English,3.2.4,MacIntel,60,,,,,,,,,,,,,,,,,,,,,1,0,340,226,1,339,ratio32_6_10_5.png,,,,,,,,,,,,
,,,,,,,,,,,,Many,Half,Some,None,Less than half,Most,All,Few,More than half,0.072990451,-0.031497396,1,0,0,QQQ5,,,,,,,,English,2020-07-02_11h01.11.280,Experiment_English,3.2.4,MacIntel,60,,,,,,,,,,,,,,,,,,,,,1,0,340,16,1,339,ratio12_5_15_6.png,,,,,,,,,,,,
,,,,,,,,,,,,Some,Many,All,Less than half,Few,Most,None,Half,More than half,0.061896701,-0.328875868,1,0,0,QQQ6,,,,,,,,English,2020-07-02_11h01.11.280,Experiment_English,3.2.4,MacIntel,60,,,,,,,,,,,,,,,,,,,,,1,0,340,314,1,339,ratio51_15_18_4.png,,,,,,,,,,,,
,,,,,,,,,,,,Most,None,Less than half,Few,More than half,Half,All,Many,Some,0.018802083,0.305976562,1,0,0,QQQ4,,,,,,,,English,2020-07-02_11h01.11.280,Experiment_English,3.2.4,MacIntel,60,,,,,,,,,,,,,,,,,,,,,1,0,340,131,1,339,ratio15_2_12_14.png,,,,,,,,,,,,
,,,,,,,,,,,,Less than half,Few,Half,Most,All,Some,Many,None,More than half,0.532999132,-0.037287326,1,0,0,QQQ2,,,,,,,,English,2020-07-02_11h01.11.280,Experiment_English,3.2.4,MacIntel,60,,,,,,,,,,,,,,,,,,,,,1,0,340,35,1,339,ratio11_8_16_10.png,,,,,,,,,,,,
,,,,,,,,,,,,Less than half,All,None,Half,Many,Most,Few,More than half,Some,-0.564275174,-0.003454861,1,0,0,QQQ8,,,,,,,,English,2020-07-02_11h01.11.280,Experiment_English,3.2.4,MacIntel,60,,,,,,,,,,,,,,,,,,,,,1,0,340,281,1,339,ratio43_4_7_4.png,,,,,,,,,,,,
,,,,,,,,,,,,Some,None,Many,Few,More than half,Half,All,Most,Less than half,-0.029136285,-0.06437066,1,0,0,QQQ5,,,,,,,,English,2020-07-02_11h01.11.280,Experiment_English,3.2.4,MacIntel,60,,,,,,,,,,,,,,,,,,,,,1,0,340,227,1,339,ratio32_6_10_6.png,,,,,,,,,,,,
,,,,,,,,,,,,Some,Many,Less than half,More than half,All,Half,None,Most,Few,-0.454361979,-0.009353299,1,0,0,QQQ8,,,,,,,,English,2020-07-02_11h01.11.280,Experiment_English,3.2.4,MacIntel,60,,,,,,,,,,,,,,,,,,,,,1,0,340,331,1,339,ratio91_18_20_3.png,,,,,,,,,,,,
,,,,,,,,,,,,Many,Less than half,Most,None,Half,All,More than half,Some,Few,0.502365451,0.271501736,1,0,0,QQQ1,,,,,,,,English,2020-07-02_11h01.11.280,Experiment_English,3.2.4,MacIntel,60,,,,,,,,,,,,,,,,,,,,,1,0,340,176,1,339,ratio21_10_15_3.png,,,,,,,,,,,,
,,,,,,,,,,,,Less than half,All,More than half,Few,Many,Most,Half,None,Some,0.012903646,-0.019644097,1,0,0,QQQ5,,,,,,,,English,2020-07-02_11h01.11.280,Experiment_English,3.2.4,MacIntel,60,,,,,,,,,,,,,,,,,,,,,1,0,340,235,1,339,ratio32_12_20_1.png,,,,,,,,,,,,
,,,,,,,,,,,,Less than half,Most,None,Some,More than half,Half,Many,All,Few,0.484631076,0.256992188,1,0,0,QQQ1,,,,,,,,English,2020-07-02_11h01.11.280,Experiment_English,3.2.4,MacIntel,60,,,,,,,,,,,,,,,,,,,,,1,0,340,14,1,339,ratio12_5_15_4.png,,,,,,,,,,,,
,,,,,,,,,,,,Most,More than half,Some,All,Less than half,Few,Many,Half,None,0.467105035,0.364622396,1,0,0,QQQ1,,,,,,,,English,2020-07-02_11h01.11.280,Experiment_English,3.2.4,MacIntel,60,,,,,,,,,,,,,,,,,,,,,1,0,340,332,1,339,ratio91_18_20_4.png,,,,,,,,,,,,
,,,,,,,,,,,,All,Most,Less than half,Few,Some,More than half,Many,None,Half,0.075889757,-0.291961806,1,0,0,QQQ6,,,,,,,,English,2020-07-02_11h01.11.280,Experiment_English,3.2.4,MacIntel,60,,,,,,,,,,,,,,,,,,,,,1,0,340,170,1,339,ratio21_6_9_8.png,,,,,,,,,,,,
,,,,,,,,,,,,All,More than half,Most,Many,Less than half,None,Some,Few,Half,0.401032986,0.014852431,1,0,0,QQQ2,,,,,,,,English,2020-07-02_11h01.11.280,Experiment_English,3.2.4,MacIntel,60,,,,,,,,,,,,,,,,,,,,,1,0,340,187,1,339,ratio23_4_10_5.png,,,,,,,,,,,,
,,,,,,,,,,,,Many,None,Most,Half,More than half,Less than half,Some,Few,All,-0.56875,-0.333832465,1,0,0,QQQ9,,,,,,,,English,2020-07-02_11h01.11.280,Experiment_English,3.2.4,MacIntel,60,,,,,,,,,,,,,,,,,,,,,1,0,340,43,1,339,ratioX0_6_6_9.png,,,,,,,,,,,,
,,,,,,,,,,,,Less than half,Half,Many,All,None,Some,More than half,Few,Most,0.576427951,-0.098350694,1,0,0,QQQ2,,,,,,,,English,2020-07-02_11h01.11.280,Experiment_English,3.2.4,MacIntel,60,,,,,,,,,,,,,,,,,,,,,1,0,340,151,1,339,ratio19_2_20_4.png,,,,,,,,,,,,
,,,,,,,,,,,,Few,Many,Half,Some,Less than half,More than half,Most,None,All,0.433550347,-0.043758681,1,0,0,QQQ2,,,,,,,,English,2020-07-02_11h01.11.280,Experiment_English,3.2.4,MacIntel,60,,,,,,,,,,,,,,,,,,,,,1,0,340,233,1,339,ratio32_9_15_9.png,,,,,,,,,,,,
,,,,,,,,,,,,Less than half,Some,Many,More than half,Half,Most,Few,None,All,0.450664063,-0.010915799,1,0,0,QQQ2,,,,,,,,English,2020-07-02_11h01.11.280,Experiment_English,3.2.4,MacIntel,60,,,,,,,,,,,,,,,,,,,,,1,0,340,155,1,339,ratio19_2_20_13.png,,,,,,,,,,,,
,,,,,,,,,,,,Some,Few,All,Most,Half,Less than half,More than half,None,Many,-0.009396701,0.326636285,1,0,0,QQQ4,,,,,,,,English,2020-07-02_11h01.11.280,Experiment_English,3.2.4,MacIntel,60,,,,,,,,,,,,,,,,,,,,,1,0,340,260,1,339,ratio41_4_5_2.png,,,,,,,,,,,,
,,,,,,,,,,,,Half,Few,Many,More than half,Less than half,All,None,Most,Some,0.554357639,-0.067478299,1,0,0,QQQ2,,,,,,,,English,2020-07-02_11h01.11.280,Experiment_English,3.2.4,MacIntel,60,,,,,,,,,,,,,,,,,,,,,1,0,340,102,1,339,ratio14_1_5_8.png,,,,,,,,,,,,
,,,,,,,,,,,,Most,Some,All,More than half,Less than half,None,Few,Many,Half,0.423949653,0.272682292,1,0,0,QQQ1,,,,,,,,English,2020-07-02_11h01.11.280,Experiment_English,3.2.4,MacIntel,60,,,,,,,,,,,,,,,,,,,,,1,0,340,295,1,339,ratio43_8_14_11.png,,,,,,,,,,,,
,,,,,,,,,,,,More than half,Few,Many,Less than half,Most,All,Half,None,Some,0.062352431,0.245672743,1,0,0,QQQ4,,,,,,,,English,2020-07-02_11h01.11.280,Experiment_English,3.2.4,MacIntel,60,,,,,,,,,,,,,,,,,,,,,1,0,340,86,1,339,ratio13_2_8_6.png,,,,,,,,,,,,
,,,,,,,,,,,,Less than half,Some,Many,More than half,None,Few,Most,Half,All,0.062352431,0.245672743,1,0,0,QQQ4,,,,,,,,English,2020-07-02_11h01.11.280,Experiment_English,3.2.4,MacIntel,60,,,,,,,,,,,,,,,,,,,,,1,0,340,267,1,339,ratio41_8_10_4.png,,,,,,,,,,,,
,,,,,,,,,,,,Some,Half,All,None,Most,Less than half,More than half,Many,Few,0.464092882,-0.238832465,1,0,0,QQQ3,,,,,,,,English,2020-07-02_11h01.11.280,Experiment_English,3.2.4,MacIntel,60,,,,,,,,,,,,,,,,,,,,,1,0,340,48,1,339,ratioX0_10_10_1.png,,,,,,,,,,,,
,,,,,,,,,,,,All,None,Many,Some,More than half,Few,Less than half,Half,Most,0.496115451,0.211475694,1,0,0,QQQ1,,,,,,,,English,2020-07-02_11h01.11.280,Experiment_English,3.2.4,MacIntel,60,,,,,,,,,,,,,,,,,,,,,1,0,340,53,1,339,ratioX0_14_14_8.png,,,,,,,,,,,,
,,,,,,,,,,,,None,Half,Most,Many,More than half,Few,Some,Less than half,All,-0.504882813,-0.321861979,1,0,0,QQQ9,,,,,,,,English,2020-07-02_11h01.11.280,Experiment_English,3.2.4,MacIntel,60,,,,,,,,,,,,,,,,,,,,,1,0,340,47,1,339,ratioX0_9_9_4.png,,,,,,,,,,,,
,,,,,,,,,,,,None,Most,Less than half,Some,All,Few,More than half,Half,Many,-0.418676215,0.015750868,1,0,0,QQQ8,,,,,,,,English,2020-07-02_11h01.11.280,Experiment_English,3.2.4,MacIntel,60,,,,,,,,,,,,,,,,,,,,,1,0,340,256,1,339,ratio34_6_14_11.png,,,,,,,,,,,,
,,,,,,,,,,,,Some,Most,All,Many,None,More than half,Half,Few,Less than half,-0.018528646,0.238142361,1,0,0,QQQ4,,,,,,,,English,2020-07-02_11h01.11.280,Experiment_English,3.2.4,MacIntel,60,,,,,,,,,,,,,,,,,,,,,1,0,340,320,1,339,ratio91_9_10_1.png,,,,,,,,,,,,
,,,,,,,,,,,,Few,All,More than half,None,Most,Half,Less than half,Many,Some,-0.034422743,0.254348958,1,0,0,QQQ4,,,,,,,,English,2020-07-02_11h01.11.280,Experiment_English,3.2.4,MacIntel,60,,,,,,,,,,,,,,,,,,,,,1,0,340,77,1,339,ratio0Y_0_18_3.png,,,,,,,,,,,,
,,,,,,,,,,,,More than half,All,Less than half,None,Many,Some,Most,Half,Few,0.057018229,0.003945313,1,0,0,QQQ5,,,,,,,,English,2020-07-02_11h01.11.280,Experiment_English,3.2.4,MacIntel,60,,,,,,,,,,,,,,,,,,,,,1,0,340,289,1,339,ratio43_4_7_20.png,,,,,,,,,,,,
,,,,,,,,,,,,Half,None,Few,Many,Most,Some,Less than half,All,More than half,0.446132812,0.234283854,1,0,0,QQQ1,,,,,,,,English,2020-07-02_11h01.11.280,Experiment_English,3.2.4,MacIntel,60,,,,,,,,,,,,,,,,,,,,,1,0,340,24,1,339,ratio11_4_8_3.png,,,,,,,,,,,,
,,,,,,,,,,,,More than half,Many,All,None,Most,Few,Less than half,Some,Half,0.451193576,-0.078415799,1,0,0,QQQ2,,,,,,,,English,2020-07-02_11h01.11.280,Experiment_English,3.2.4,MacIntel,60,,,,,,,,,,,,,,,,,,,,,1,0,340,259,1,339,ratio34_6_14_19.png,,,,,,,,,,,,
,,,,,,,,,,,,Many,Most,All,None,Less than half,Few,Some,Half,More than half,-0.053420139,-0.289743924,1,0,0,QQQ6,,,,,,,,English,2020-07-02_11h01.11.280,Experiment_English,3.2.4,MacIntel,60,,,,,,,,,,,,,,,,,,,,,1,0,340,127,1,339,ratio15_2_12_2.png,,,,,,,,,,,,
,,,,,,,,,,,,All,Some,None,Less than half,More than half,Many,Few,Half,Most,-0.417934028,-0.03171441,1,0,0,QQQ8,,,,,,,,English,2020-07-02_11h01.11.280,Experiment_English,3.2.4,MacIntel,60,,,,,,,,,,,,,,,,,,,,,1,0,340,231,1,339,ratio32_9_15_2.png,0.300490451,-0.379835069,1,0,0,continue_button_pause,1,0,1,0,1,0
,,,,,,,,,,,,,,,,,,,,,,,,,,,,,,,,,,English,2020-07-02_11h01.11.280,Experiment_English,3.2.4,MacIntel,60,,,,,,,,,,,,,,,,,,,,,1,0,340,231,1,339,ratio32_9_15_2.png,,,,,,,,,,,,
,,,,,,,,,,,,None,Few,All,Half,Many,More than half,Less than half,Most,Some,0.03328125,0.028628472,1,0,0,QQQ5,,,,,,,,English,2020-07-02_11h01.11.280,Experiment_English,3.2.4,MacIntel,60,,,,,,,,,,,,,,,,,,,,,1,0,340,216,1,339,ratio31_15_20_3.png,,,,,,,,,,,,
,,,,,,,,,,,,None,Few,Some,Most,Half,Less than half,More than half,All,Many,0.447274306,0.016037326,1,0,0,QQQ2,,,,,,,,English,2020-07-02_11h01.11.280,Experiment_English,3.2.4,MacIntel,60,,,,,,,,,,,,,,,,,,,,,1,0,340,105,1,339,ratio14_2_10_1.png,,,,,,,,,,,,
,,,,,,,,,,,,None,Most,Less than half,Some,All,Half,Few,Many,More than half,-0.120646701,0.305529514,1,0,0,QQQ4,,,,,,,,English,2020-07-02_11h01.11.280,Experiment_English,3.2.4,MacIntel,60,,,,,,,,,,,,,,,,,,,,,1,0,340,94,1,339,ratio13_4_16_8.png,,,,,,,,,,,,
,,,,,,,,,,,,Many,None,Few,Less than half,More than half,Half,Most,All,Some,0.061462674,0.006514757,1,0,0,QQQ5,,,,,,,,English,2020-07-02_11h01.11.280,Experiment_English,3.2.4,MacIntel,60,,,,,,,,,,,,,,,,,,,,,1,0,340,228,1,339,ratio32_6_10_7.png,,,,,,,,,,,,
,,,,,,,,,,,,All,Some,Most,Few,Many,Half,Less than half,More than half,None,0.481289062,0.293832465,1,0,0,QQQ1,,,,,,,,English,2020-07-02_11h01.11.280,Experiment_English,3.2.4,MacIntel,60,,,,,,,,,,,,,,,,,,,,,1,0,340,42,1,339,ratioX0_5_5_5.png,,,,,,,,,,,,
,,,,,,,,,,,,Most,All,Many,None,Few,Some,Half,More than half,Less than half,-0.403767361,0.311440972,1,0,0,QQQ7,,,,,,,,English,2020-07-02_11h01.11.280,Experiment_English,3.2.4,MacIntel,60,,,,,,,,,,,,,,,,,,,,,1,0,340,30,1,339,ratio11_6_12_6.png,,,,,,,,,,,,
,,,,,,,,,,,,Most,Less than half,All,More than half,Many,Some,Few,None,Half,-0.007612847,-0.03984809,1,0,0,QQQ5,,,,,,,,English,2020-07-02_11h01.11.280,Experiment_English,3.2.4,MacIntel,60,,,,,,,,,,,,,,,,,,,,,1,0,340,36,1,339,ratio11_9_18_1.png,,,,,,,,,,,,
,,,,,,,,,,,,All,Less than half,Few,Many,None,Most,Some,Half,More than half,0.452582465,-0.246232639,1,0,0,QQQ3,,,,,,,,English,2020-07-02_11h01.11.280,Experiment_English,3.2.4,MacIntel,60,,,,,,,,,,,,,,,,,,,,,1,0,340,90,1,339,ratio13_3_12_7.png,,,,,,,,,,,,
,,,,,,,,,,,,Many,More than half,Less than half,All,None,Half,Some,Few,Most,-0.037417535,0.3671875,1,0,0,QQQ4,,,,,,,,English,2020-07-02_11h01.11.280,Experiment_English,3.2.4,MacIntel,60,,,,,,,,,,,,,,,,,,,,,1,0,340,58,1,339,ratioX0_19_19_4.png,,,,,,,,,,,,
,,,,,,,,,,,,None,Less than half,More than half,Few,Most,Some,Many,All,Half,-0.466024306,-0.014396701,1,0,0,QQQ8,,,,,,,,English,2020-07-02_11h01.11.280,Experiment_English,3.2.4,MacIntel,60,,,,,,,,,,,,,,,,,,,,,1,0,340,52,1,339,ratioX0_13_13_10.png,,,,,,,,,,,,
,,,,,,,,,,,,More than half,Few,Half,Most,Less than half,Some,None,All,Many,0.145898438,-0.048302951,1,0,0,QQQ5,,,,,,,,English,2020-07-02_11h01.11.280,Experiment_English,3.2.4,MacIntel,60,,,,,,,,,,,,,,,,,,,,,1,0,340,1,1,339,ratio12_1_3_7.png,,,,,,,,,,,,
,,,,,,,,,,,,More than half,Most,Some,Many,None,Less than half,Half,All,Few,0.521692708,0.345672743,1,0,0,QQQ1,,,,,,,,English,2020-07-02_11h01.11.280,Experiment_English,3.2.4,MacIntel,60,,,,,,,,,,,,,,,,,,,,,1,0,340,270,1,339,ratio41_12_15_3.png,,,,,,,,,,,,
,,,,,,,,,,,,Less than half,All,Most,None,Half,Few,More than half,Some,Many,0.044427083,-0.010447049,1,0,0,QQQ5,,,,,,,,English,2020-07-02_11h01.11.280,Experiment_English,3.2.4,MacIntel,60,,,,,,,,,,,,,,,,,,,,,1,0,340,21,1,339,ratio11_2_4_10.png,,,,,,,,,,,,
,,,,,,,,,,,,Less than half,Most,More than half,Few,All,Many,Some,Half,None,0.541480035,-0.304140625,1,0,0,QQQ3,,,,,,,,English,2020-07-02_11h01.11.280,Experiment_English,3.2.4,MacIntel,60,,,,,,,,,,,,,,,,,,,,,1,0,340,313,1,339,ratio51_15_18_2.png,,,,,,,,,,,,
,,,,,,,,,,,,Some,None,Many,Half,All,Most,Less than half,Few,More than half,0.409140625,-0.068832465,1,0,0,QQQ2,,,,,,,,English,2020-07-02_11h01.11.280,Experiment_English,3.2.4,MacIntel,60,,,,,,,,,,,,,,,,,,,,,1,0,340,73,1,339,ratio0Y_0_14_7.png,,,,,,,,,,,,
,,,,,,,,,,,,Most,Few,Some,Less than half,Half,More than half,All,None,Many,0.061601562,0.341857639,1,0,0,QQQ4,,,,,,,,English,2020-07-02_11h01.11.280,Experiment_English,3.2.4,MacIntel,60,,,,,,,,,,,,,,,,,,,,,1,0,340,17,1,339,ratio12_6_18_5.png,,,,,,,,,,,,
,,,,,,,,,,,,Half,More than half,All,Few,Most,Less than half,None,Many,Some,0.050507812,-0.215998264,1,0,0,QQQ6,,,,,,,,English,2020-07-02_11h01.11.280,Experiment_English,3.2.4,MacIntel,60,,,,,,,,,,,,,,,,,,,,,1,0,340,130,1,339,ratio15_2_12_12.png,,,,,,,,,,,,
,,,,,,,,,,,,All,Half,Less than half,Most,Some,Few,Many,None,More than half,-0.104596354,0.328402778,1,0,0,QQQ4,,,,,,,,English,2020-07-02_11h01.11.280,Experiment_English,3.2.4,MacIntel,60,,,,,,,,,,,,,,,,,,,,,1,0,340,278,1,339,ratio41_16_20_9.png,,,,,,,,,,,,
,,,,,,,,,,,,All,Many,Half,None,More than half,Few,Some,Less than half,Most,-0.389335938,0.009552951,1,0,0,QQQ8,,,,,,,,English,2020-07-02_11h01.11.280,Experiment_English,3.2.4,MacIntel,60,,,,,,,,,,,,,,,,,,,,,1,0,340,113,1,339,ratio14_3_15_8.png,,,,,,,,,,,,
,,,,,,,,,,,,None,More than half,Less than half,Few,Many,Half,Most,Some,All,0.49499566,-0.001540799,1,0,0,QQQ2,,,,,,,,English,2020-07-02_11h01.11.280,Experiment_English,3.2.4,MacIntel,60,,,,,,,,,,,,,,,,,,,,,1,0,340,229,1,339,ratio32_6_10_9.png,,,,,,,,,,,,
,,,,,,,,,,,,Some,All,More than half,Many,Few,None,Less than half,Half,Most,0.027617188,0.369079861,1,0,0,QQQ4,,,,,,,,English,2020-07-02_11h01.11.280,Experiment_English,3.2.4,MacIntel,60,,,,,,,,,,,,,,,,,,,,,1,0,340,337,1,339,ratio91_18_20_16.png,,,,,,,,,,,,
,,,,,,,,,,,,Less than half,Half,Some,Many,Few,All,Most,More than half,None,0.496644965,-0.371705729,1,0,0,QQQ3,,,,,,,,English,2020-07-02_11h01.11.280,Experiment_English,3.2.4,MacIntel,60,,,,,,,,,,,,,,,,,,,,,1,0,340,6,1,339,ratio12_3_9_1.png,,,,,,,,,,,,
,,,,,,,,,,,,Less than half,Half,All,None,Some,More than half,Many,Most,Few,0.640820313,-0.366349826,1,0,0,QQQ3,,,,,,,,English,2020-07-02_11h01.11.280,Experiment_English,3.2.4,MacIntel,60,,,,,,,,,,,,,,,,,,,,,1,0,340,46,1,339,ratioX0_9_9_3.png,,,,,,,,,,,,
,,,,,,,,,,,,Half,Most,More than half,Some,Less than half,None,All,Few,Many,0.470763889,-0.035173611,1,0,0,QQQ2,,,,,,,,English,2020-07-02_11h01.11.280,Experiment_English,3.2.4,MacIntel,60,,,,,,,,,,,,,,,,,,,,,1,0,340,275,1,339,ratio41_16_20_2.png,,,,,,,,,,,,
,,,,,,,,,,,,Less than half,Few,All,Half,Some,None,Many,More than half,Most,-0.003940972,-0.021992187,1,0,0,QQQ5,,,,,,,,English,2020-07-02_11h01.11.280,Experiment_English,3.2.4,MacIntel,60,,,,,,,,,,,,,,,,,,,,,1,0,340,134,1,339,ratio15_3_18_5.png,,,,,,,,,,,,
,,,,,,,,,,,,All,Many,None,Half,More than half,Some,Most,Less than half,Few,-0.003940972,-0.021992187,1,0,0,QQQ5,,,,,,,,English,2020-07-02_11h01.11.280,Experiment_English,3.2.4,MacIntel,60,,,,,,,,,,,,,,,,,,,,,1,0,340,111,1,339,ratio14_3_15_3.png,,,,,,,,,,,,
,,,,,,,,,,,,None,Some,Few,Less than half,More than half,All,Most,Many,Half,-0.027677951,-0.30327691,1,0,0,QQQ6,,,,,,,,English,2020-07-02_11h01.11.280,Experiment_English,3.2.4,MacIntel,60,,,,,,,,,,,,,,,,,,,,,1,0,340,40,1,339,ratioX0_3_3_5.png,,,,,,,,,,,,
,,,,,,,,,,,,Less than half,More than half,Some,None,Few,Most,Half,Many,All,-0.120707465,-0.068832465,1,0,0,QQQ5,,,,,,,,English,2020-07-02_11h01.11.280,Experiment_English,3.2.4,MacIntel,60,,,,,,,,,,,,,,,,,,,,,1,0,340,129,1,339,ratio15_2_12_9.png,,,,,,,,,,,,
,,,,,,,,,,,,More than half,Most,Few,All,None,Some,Half,Many,Less than half,-0.403567708,-0.003242187,1,0,0,QQQ8,,,,,,,,English,2020-07-02_11h01.11.280,Experiment_English,3.2.4,MacIntel,60,,,,,,,,,,,,,,,,,,,,,1,0,340,333,1,339,ratio91_18_20_6.png,,,,,,,,,,,,
,,,,,,,,,,,,Most,Less than half,None,Many,All,Half,Some,More than half,Few,0.479466146,0.341684028,1,0,0,QQQ1,,,,,,,,English,2020-07-02_11h01.11.280,Experiment_English,3.2.4,MacIntel,60,,,,,,,,,,,,,,,,,,,,,1,0,340,190,1,339,ratio23_6_15_3.png,,,,,,,,,,,,
,,,,,,,,,,,,Few,Many,More than half,Some,Most,All,None,Less than half,Half,-0.492092014,0.251588542,1,0,0,QQQ7,,,,,,,,English,2020-07-02_11h01.11.280,Experiment_English,3.2.4,MacIntel,60,,,,,,,,,,,,,,,,,,,,,1,0,340,63,1,339,ratio0Y_0_6_8.png,,,,,,,,,,,,
,,,,,,,,,,,,Most,Some,All,Less than half,More than half,Many,Half,None,Few,-0.45968316,0.007018229,1,0,0,QQQ8,,,,,,,,English,2020-07-02_11h01.11.280,Experiment_English,3.2.4,MacIntel,60,,,,,,,,,,,,,,,,,,,,,1,0,340,64,1,339,ratio0Y_0_7_1.png,,,,,,,,,,,,
,,,,,,,,,,,,Half,More than half,Many,Most,All,Less than half,Some,None,Few,0.40765625,-0.037213542,1,0,0,QQQ2,,,,,,,,English,2020-07-02_11h01.11.280,Experiment_English,3.2.4,MacIntel,60,,,,,,,,,,,,,,,,,,,,,1,0,340,213,1,339,ratio31_12_16_2.png,,,,,,,,,,,,
,,,,,,,,,,,,Half,Many,None,All,Some,Most,Less than half,Few,More than half,-0.524639757,-0.039157986,1,0,0,QQQ8,,,,,,,,English,2020-07-02_11h01.11.280,Experiment_English,3.2.4,MacIntel,60,,,,,,,,,,,,,,,,,,,,,1,0,340,120,1,339,ratio15_1_6_1.png,0.366940104,-0.401215278,1,0,0,continue_button_pause,1,0,1,0,1,0
,,,,,,,,,,,,,,,,,,,,,,,,,,,,,,,,,,English,2020-07-02_11h01.11.280,Experiment_English,3.2.4,MacIntel,60,,,,,,,,,,,,,,,,,,,,,1,0,340,120,1,339,ratio15_1_6_1.png,,,,,,,,,,,,
,,,,,,,,,,,,More than half,Half,All,Less than half,None,Many,Most,Some,Few,0.442317708,0.303302951,1,0,0,QQQ1,,,,,,,,English,2020-07-02_11h01.11.280,Experiment_English,3.2.4,MacIntel,60,,,,,,,,,,,,,,,,,,,,,1,0,340,274,1,339,ratio41_12_15_9.png,,,,,,,,,,,,
,,,,,,,,,,,,More than half,Less than half,Most,None,Few,Half,All,Many,Some,0.062756076,-0.00202691,1,0,0,QQQ5,,,,,,,,English,2020-07-02_11h01.11.280,Experiment_English,3.2.4,MacIntel,60,,,,,,,,,,,,,,,,,,,,,1,0,340,147,1,339,ratio19_1_10_18.png,,,,,,,,,,,,
,,,,,,,,,,,,Some,Half,More than half,None,Less than half,Most,Many,All,Few,0.380447049,-0.004001736,1,0,0,QQQ2,,,,,,,,English,2020-07-02_11h01.11.280,Experiment_English,3.2.4,MacIntel,60,,,,,,,,,,,,,,,,,,,,,1,0,340,25,1,339,ratio11_4_8_10.png,,,,,,,,,,,,
,,,,,,,,,,,,Few,Half,Less than half,All,Most,More than half,Many,Some,None,0.511241319,-0.022135417,1,0,0,QQQ2,,,,,,,,English,2020-07-02_11h01.11.280,Experiment_English,3.2.4,MacIntel,60,,,,,,,,,,,,,,,,,,,,,1,0,340,255,1,339,ratio34_6_14_10.png,,,,,,,,,,,,
,,,,,,,,,,,,Some,Few,All,More than half,Half,None,Less than half,Most,Many,-0.463220486,0.239500868,1,0,0,QQQ7,,,,,,,,English,2020-07-02_11h01.11.280,Experiment_English,3.2.4,MacIntel,60,,,,,,,,,,,,,,,,,,,,,1,0,340,154,1,339,ratio19_2_20_11.png,,,,,,,,,,,,
,,,,,,,,,,,,None,Less than half,More than half,Few,Half,Most,Some,Many,All,0.563094618,-0.336024306,1,0,0,QQQ3,,,,,,,,English,2020-07-02_11h01.11.280,Experiment_English,3.2.4,MacIntel,60,,,,,,,,,,,,,,,,,,,,,1,0,340,161,1,339,ratio21_2_3_8.png,,,,,,,,,,,,
,,,,,,,,,,,,Half,Few,Many,Some,Less than half,Most,None,More than half,All,0.444787326,-0.280512153,1,0,0,QQQ3,,,,,,,,English,2020-07-02_11h01.11.280,Experiment_English,3.2.4,MacIntel,60,,,,,,,,,,,,,,,,,,,,,1,0,340,230,1,339,ratio32_9_15_1.png,,,,,,,,,,,,
,,,,,,,,,,,,Many,Most,Half,Few,All,Some,More than half,None,Less than half,-0.057539063,-0.301297743,1,0,0,QQQ6,,,,,,,,English,2020-07-02_11h01.11.280,Experiment_English,3.2.4,MacIntel,60,,,,,,,,,,,,,,,,,,,,,1,0,340,115,1,339,ratio14_4_20_1.png,,,,,,,,,,,,
,,,,,,,,,,,,Half,Some,Many,None,Few,Less than half,More than half,All,Most,-0.351788194,-0.019874132,1,0,0,QQQ8,,,,,,,,English,2020-07-02_11h01.11.280,Experiment_English,3.2.4,MacIntel,60,,,,,,,,,,,,,,,,,,,,,1,0,340,175,1,339,ratio21_10_15_2.png,,,,,,,,,,,,
,,,,,,,,,,,,More than half,Some,Most,Half,Less than half,Many,All,None,Few,0.487013889,0.012873264,1,0,0,QQQ2,,,,,,,,English,2020-07-02_11h01.11.280,Experiment_English,3.2.4,MacIntel,60,,,,,,,,,,,,,,,,,,,,,1,0,340,246,1,339,ratio34_3_7_11.png,,,,,,,,,,,,
,,,,,,,,,,,,Few,All,Less than half,Many,More than half,Most,None,Some,Half,-0.399431424,-0.329509549,1,0,0,QQQ9,,,,,,,,English,2020-07-02_11h01.11.280,Experiment_English,3.2.4,MacIntel,60,,,,,,,,,,,,,,,,,,,,,1,0,340,247,1,339,ratio34_3_7_12.png,,,,,,,,,,,,
,,,,,,,,,,,,Less than half,None,All,More than half,Few,Half,Most,Some,Many,0.085802951,-0.000768229,1,0,0,QQQ5,,,,,,,,English,2020-07-02_11h01.11.280,Experiment_English,3.2.4,MacIntel,60,,,,,,,,,,,,,,,,,,,,,1,0,340,157,1,339,ratio19_2_20_16.png,,,,,,,,,,,,
,,,,,,,,,,,,Few,All,None,Less than half,Some,Half,Many,More than half,Most,0.019053819,-0.259318576,1,0,0,QQQ6,,,,,,,,English,2020-07-02_11h01.11.280,Experiment_English,3.2.4,MacIntel,60,,,,,,,,,,,,,,,,,,,,,1,0,340,285,1,339,ratio43_4_7_14.png,,,,,,,,,,,,
,,,,,,,,,,,,Less than half,Half,Some,Few,More than half,All,Most,Many,None,0.386467014,-0.31140625,1,0,0,QQQ3,,,,,,,,English,2020-07-02_11h01.11.280,Experiment_English,3.2.4,MacIntel,60,,,,,,,,,,,,,,,,,,,,,1,0,340,87,1,339,ratio13_2_8_8.png,,,,,,,,,,,,
,,,,,,,,,,,,Less than half,Some,Half,Most,More than half,Few,All,Many,None,0.0621875,-0.055881076,1,0,0,QQQ5,,,,,,,,English,2020-07-02_11h01.11.280,Experiment_English,3.2.4,MacIntel,60,,,,,,,,,,,,,,,,,,,,,1,0,340,178,1,339,ratio21_12_18_2.png,,,,,,,,,,,,
,,,,,,,,,,,,Half,All,Few,Many,More than half,Most,Some,Less than half,None,0.0621875,-0.055881076,1,0,0,QQQ5,,,,,,,,English,2020-07-02_11h01.11.280,Experiment_English,3.2.4,MacIntel,60,,,,,,,,,,,,,,,,,,,,,1,0,340,265,1,339,ratio41_8_10_1.png,,,,,,,,,,,,
,,,,,,,,,,,,More than half,All,None,Most,Many,Half,Some,Less than half,Few,0.386896701,0.216189236,1,0,0,QQQ1,,,,,,,,English,2020-07-02_11h01.11.280,Experiment_English,3.2.4,MacIntel,60,,,,,,,,,,,,,,,,,,,,,1,0,340,221,1,339,ratio32_3_5_3.png,,,,,,,,,,,,
,,,,,,,,,,,,Some,Most,Less than half,Many,None,Few,More than half,All,Half,-0.428463542,0.268519965,1,0,0,QQQ7,,,,,,,,English,2020-07-02_11h01.11.280,Experiment_English,3.2.4,MacIntel,60,,,,,,,,,,,,,,,,,,,,,1,0,340,212,1,339,ratio31_12_16_1.png,,,,,,,,,,,,
,,,,,,,,,,,,Some,None,Less than half,Most,All,Half,More than half,Few,Many,-0.434296875,0.273059896,1,0,0,QQQ7,,,,,,,,English,2020-07-02_11h01.11.280,Experiment_English,3.2.4,MacIntel,60,,,,,,,,,,,,,,,,,,,,,1,0,340,292,1,339,ratio43_8_14_6.png,,,,,,,,,,,,
,,,,,,,,,,,,All,More than half,None,Many,Most,Some,Half,Less than half,Few,0.417951389,-0.00859375,1,0,0,QQQ2,,,,,,,,English,2020-07-02_11h01.11.280,Experiment_English,3.2.4,MacIntel,60,,,,,,,,,,,,,,,,,,,,,1,0,340,168,1,339,ratio21_6_9_3.png,,,,,,,,,,,,
,,,,,,,,,,,,Less than half,None,Many,Half,More than half,All,Some,Few,Most,0.444188368,0.237947049,1,0,0,QQQ1,,,,,,,,English,2020-07-02_11h01.11.280,Experiment_English,3.2.4,MacIntel,60,,,,,,,,,,,,,,,,,,,,,1,0,340,137,1,339,ratio15_3_18_16.png,,,,,,,,,,,,
,,,,,,,,,,,,Many,Less than half,Most,Some,Half,All,None,More than half,Few,0.373919271,0.059309896,1,0,0,QQQ2,,,,,,,,English,2020-07-02_11h01.11.280,Experiment_English,3.2.4,MacIntel,60,,,,,,,,,,,,,,,,,,,,,1,0,340,191,1,339,ratio23_6_15_7.png,,,,,,,,,,,,
,,,,,,,,,,,,Few,All,Some,Many,Less than half,None,Half,Most,More than half,-0.41500434,0.22078559,1,0,0,QQQ7,,,,,,,,English,2020-07-02_11h01.11.280,Experiment_English,3.2.4,MacIntel,60,,,,,,,,,,,,,,,,,,,,,1,0,340,38,1,339,ratio11_10_20_5.png,,,,,,,,,,,,
,,,,,,,,,,,,Some,More than half,Most,Few,Half,Less than half,None,Many,All,0.01375,-0.343676215,1,0,0,QQQ6,,,,,,,,English,2020-07-02_11h01.11.280,Experiment_English,3.2.4,MacIntel,60,,,,,,,,,,,,,,,,,,,,,1,0,340,9,1,339,ratio12_3_9_5.png,,,,,,,,,,,,
,,,,,,,,,,,,All,Few,Some,Most,More than half,Less than half,Many,None,Half,0.038936632,0.303216146,1,0,0,QQQ4,,,,,,,,English,2020-07-02_11h01.11.280,Experiment_English,3.2.4,MacIntel,60,,,,,,,,,,,,,,,,,,,,,1,0,340,210,1,339,ratio31_9_12_9.png,,,,,,,,,,,,
,,,,,,,,,,,,Most,Less than half,Some,Few,Many,Half,All,None,More than half,-0.056657986,0.001453993,1,0,0,QQQ5,,,,,,,,English,2020-07-02_11h01.11.280,Experiment_English,3.2.4,MacIntel,60,,,,,,,,,,,,,,,,,,,,,1,0,340,308,1,339,ratio51_10_12_9.png,,,,,,,,,,,,
,,,,,,,,,,,,None,Less than half,More than half,Many,Few,All,Some,Most,Half,-0.469040799,0.250729167,1,0,0,QQQ7,,,,,,,,English,2020-07-02_11h01.11.280,Experiment_English,3.2.4,MacIntel,60,,,,,,,,,,,,,,,,,,,,,1,0,340,243,1,339,ratio34_3_7_8.png,,,,,,,,,,,,
,,,,,,,,,,,,Many,None,Some,Few,Most,Less than half,Half,More than half,All,-0.08359809,0.232517361,1,0,0,QQQ4,,,,,,,,English,2020-07-02_11h01.11.280,Experiment_English,3.2.4,MacIntel,60,,,,,,,,,,,,,,,,,,,,,1,0,340,99,1,339,ratio13_5_20_4.png,,,,,,,,,,,,
,,,,,,,,,,,,More than half,Less than half,All,Few,Most,Many,None,Half,Some,-0.418836806,-0.072378472,1,0,0,QQQ8,,,,,,,,English,2020-07-02_11h01.11.280,Experiment_English,3.2.4,MacIntel,60,,,,,,,,,,,,,,,,,,,,,1,0,340,298,1,339,ratio43_8_14_14.png,,,,,,,,,,,,
,,,,,,,,,,,,All,Less than half,Few,Half,Many,None,More than half,Some,Most,0.477860243,0.283493924,1,0,0,QQQ1,,,,,,,,English,2020-07-02_11h01.11.280,Experiment_English,3.2.4,MacIntel,60,,,,,,,,,,,,,,,,,,,,,1,0,340,57,1,339,ratioX0_18_18_1.png,,,,,,,,,,,,
,,,,,,,,,,,,All,Most,More than half,Some,None,Half,Few,Many,Less than half,0.017369792,0.010807292,1,0,0,QQQ5,,,,,,,,English,2020-07-02_11h01.11.280,Experiment_English,3.2.4,MacIntel,60,,,,,,,,,,,,,,,,,,,,,1,0,340,61,1,339,ratio0Y_0_4_7.png,,,,,,,,,,,,
,,,,,,,,,,,,Few,Many,Half,None,Some,Most,More than half,All,Less than half,0.017369792,0.010807292,1,0,0,QQQ5,,,,,,,,English,2020-07-02_11h01.11.280,Experiment_English,3.2.4,MacIntel,60,,,,,,,,,,,,,,,,,,,,,1,0,340,8,1,339,ratio12_3_9_4.png,,,,,,,,,,,,
,,,,,,,,,,,,Few,All,Less than half,Half,Most,More than half,Some,None,Many,0.021796875,0.009262153,1,0,0,QQQ5,,,,,,,,English,2020-07-02_11h01.11.280,Experiment_English,3.2.4,MacIntel,60,,,,,,,,,,,,,,,,,,,,,1,0,340,271,1,339,ratio41_12_15_6.png,,,,,,,,,,,,
,,,,,,,,,,,,Half,All,Some,More than half,Most,Many,Few,None,Less than half,-0.029965278,-0.022760417,1,0,0,QQQ5,,,,,,,,English,2020-07-02_11h01.11.280,Experiment_English,3.2.4,MacIntel,60,,,,,,,,,,,,,,,,,,,,,1,0,340,301,1,339,ratio51_5_6_4.png,0.306106771,-0.408307292,1,0,0,continue_button_pause,1,0,1,0,1,0
,,,,,,,,,,,,,,,,,,,,,,,,,,,,,,,,,,English,2020-07-02_11h01.11.280,Experiment_English,3.2.4,MacIntel,60,,,,,,,,,,,,,,,,,,,,,1,0,340,301,1,339,ratio51_5_6_4.png,,,,,,,,,,,,
,,,,,,,,,,,,All,More than half,Less than half,Half,Some,Few,Most,Many,None,0.44327691,-0.287144097,1,0,0,QQQ3,,,,,,,,English,2020-07-02_11h01.11.280,Experiment_English,3.2.4,MacIntel,60,,,,,,,,,,,,,,,,,,,,,1,0,340,10,1,339,ratio12_4_12_4.png,,,,,,,,,,,,
,,,,,,,,,,,,More than half,Half,All,Some,Most,Many,None,Few,Less than half,0.533945312,0.214340278,1,0,0,QQQ1,,,,,,,,English,2020-07-02_11h01.11.280,Experiment_English,3.2.4,MacIntel,60,,,,,,,,,,,,,,,,,,,,,1,0,340,262,1,339,ratio41_4_5_4.png,,,,,,,,,,,,
,,,,,,,,,,,,All,Less than half,More than half,Few,Half,Some,Most,Many,None,-0.004205729,-0.34796441,1,0,0,QQQ6,,,,,,,,English,2020-07-02_11h01.11.280,Experiment_English,3.2.4,MacIntel,60,,,,,,,,,,,,,,,,,,,,,1,0,340,156,1,339,ratio19_2_20_14.png,,,,,,,,,,,,
,,,,,,,,,,,,None,All,Half,Few,Most,Less than half,More than half,Many,Some,0.430481771,0.268246528,1,0,0,QQQ1,,,,,,,,English,2020-07-02_11h01.11.280,Experiment_English,3.2.4,MacIntel,60,,,,,,,,,,,,,,,,,,,,,1,0,340,78,1,339,ratio0Y_0_19_1.png,,,,,,,,,,,,
,,,,,,,,,,,,More than half,None,Some,Less than half,Few,All,Most,Many,Half,-0.055091146,-0.045043403,1,0,0,QQQ5,,,,,,,,English,2020-07-02_11h01.11.280,Experiment_English,3.2.4,MacIntel,60,,,,,,,,,,,,,,,,,,,,,1,0,340,89,1,339,ratio13_3_12_6.png,,,,,,,,,,,,
,,,,,,,,,,,,Half,More than half,Many,Most,Few,Some,Less than half,None,All,-0.413138021,0.228797743,1,0,0,QQQ7,,,,,,,,English,2020-07-02_11h01.11.280,Experiment_English,3.2.4,MacIntel,60,,,,,,,,,,,,,,,,,,,,,1,0,340,193,1,339,ratio23_6_15_9.png,,,,,,,,,,,,
,,,,,,,,,,,,Few,Many,Less than half,Half,None,All,Some,More than half,Most,-0.398862847,0.026671007,1,0,0,QQQ8,,,,,,,,English,2020-07-02_11h01.11.280,Experiment_English,3.2.4,MacIntel,60,,,,,,,,,,,,,,,,,,,,,1,0,340,223,1,339,ratio32_3_5_5.png,,,,,,,,,,,,
,,,,,,,,,,,,Half,None,Many,Less than half,Some,Most,Few,More than half,All,0.385677083,-0.282326389,1,0,0,QQQ3,,,,,,,,English,2020-07-02_11h01.11.280,Experiment_English,3.2.4,MacIntel,60,,,,,,,,,,,,,,,,,,,,,1,0,340,312,1,339,ratio51_10_12_16.png,,,,,,,,,,,,
,,,,,,,,,,,,Most,All,More than half,Less than half,Some,None,Few,Half,Many,0.478663194,-0.022282986,1,0,0,QQQ2,,,,,,,,English,2020-07-02_11h01.11.280,Experiment_English,3.2.4,MacIntel,60,,,,,,,,,,,,,,,,,,,,,1,0,340,45,1,339,ratioX0_8_8_3.png,,,,,,,,,,,,
,,,,,,,,,,,,Many,None,Half,Most,Few,Some,All,More than half,Less than half,0.48046875,-0.347239583,1,0,0,QQQ3,,,,,,,,English,2020-07-02_11h01.11.280,Experiment_English,3.2.4,MacIntel,60,,,,,,,,,,,,,,,,,,,,,1,0,340,282,1,339,ratio43_4_7_7.png,,,,,,,,,,,,
,,,,,,,,,,,,All,Half,More than half,Few,Most,Many,None,Less than half,Some,0.078394097,-0.063454861,1,0,0,QQQ5,,,,,,,,English,2020-07-02_11h01.11.280,Experiment_English,3.2.4,MacIntel,60,,,,,,,,,,,,,,,,,,,,,1,0,340,310,1,339,ratio51_10_12_12.png,,,,,,,,,,,,
,,,,,,,,,,,,Most,Many,Few,All,None,Some,Less than half,More than half,Half,0.437703993,-0.253680556,1,0,0,QQQ3,,,,,,,,English,2020-07-02_11h01.11.280,Experiment_English,3.2.4,MacIntel,60,,,,,,,,,,,,,,,,,,,,,1,0,340,143,1,339,ratio19_1_10_9.png,,,,,,,,,,,,
,,,,,,,,,,,,Half,Some,Many,Most,More than half,Less than half,All,Few,None,-0.409249132,-0.278081597,1,0,0,QQQ9,,,,,,,,English,2020-07-02_11h01.11.280,Experiment_English,3.2.4,MacIntel,60,,,,,,,,,,,,,,,,,,,,,1,0,340,74,1,339,ratio0Y_0_15_10.png,,,,,,,,,,,,
,,,,,,,,,,,,Half,All,None,Most,Less than half,Many,Some,More than half,Few,-0.419279514,0.068346354,1,0,0,QQQ8,,,,,,,,English,2020-07-02_11h01.11.280,Experiment_English,3.2.4,MacIntel,60,,,,,,,,,,,,,,,,,,,,,1,0,340,177,1,339,ratio21_12_18_1.png,,,,,,,,,,,,
,,,,,,,,,,,,More than half,Half,Some,All,Few,Many,Most,None,Less than half,0.38625,0.264639757,1,0,0,QQQ1,,,,,,,,English,2020-07-02_11h01.11.280,Experiment_English,3.2.4,MacIntel,60,,,,,,,,,,,,,,,,,,,,,1,0,340,321,1,339,ratio91_9_10_2.png,,,,,,,,,,,,
,,,,,,,,,,,,All,Some,Most,Few,Many,More than half,Less than half,Half,None,0.084670139,0.005794271,1,0,0,QQQ5,,,,,,,,English,2020-07-02_11h01.11.280,Experiment_English,3.2.4,MacIntel,60,,,,,,,,,,,,,,,,,,,,,1,0,340,217,1,339,ratio31_15_20_5.png,,,,,,,,,,,,
,,,,,,,,,,,,All,Some,Half,None,Many,Most,Less than half,More than half,Few,0.504726563,-0.028016493,1,0,0,QQQ2,,,,,,,,English,2020-07-02_11h01.11.280,Experiment_English,3.2.4,MacIntel,60,,,,,,,,,,,,,,,,,,,,,1,0,340,297,1,339,ratio43_8_14_13.png,,,,,,,,,,,,
,,,,,,,,,,,,Half,More than half,Few,None,Some,Many,Less than half,Most,All,0.479231771,0.297621528,1,0,0,QQQ1,,,,,,,,English,2020-07-02_11h01.11.280,Experiment_English,3.2.4,MacIntel,60,,,,,,,,,,,,,,,,,,,,,1,0,340,20,1,339,ratio11_2_4_3.png,,,,,,,,,,,,
,,,,,,,,,,,,More than half,Few,All,Some,None,Many,Half,Less than half,Most,-0.533454861,0.231597222,1,0,0,QQQ7,,,,,,,,English,2020-07-02_11h01.11.280,Experiment_English,3.2.4,MacIntel,60,,,,,,,,,,,,,,,,,,,,,1,0,340,294,1,339,ratio43_8_14_9.png,,,,,,,,,,,,
,,,,,,,,,,,,Half,Many,Few,Less than half,All,None,Most,Some,More than half,-0.432352431,-0.022725694,1,0,0,QQQ8,,,,,,,,English,2020-07-02_11h01.11.280,Experiment_English,3.2.4,MacIntel,60,,,,,,,,,,,,,,,,,,,,,1,0,340,240,1,339,ratio34_3_7_4.png,,,,,,,,,,,,
,,,,,,,,,,,,Many,Less than half,All,None,Few,Some,More than half,Half,Most,0.088914931,0.293198785,1,0,0,QQQ4,,,,,,,,English,2020-07-02_11h01.11.280,Experiment_English,3.2.4,MacIntel,60,,,,,,,,,,,,,,,,,,,,,1,0,340,171,1,339,ratio21_8_12_4.png,,,,,,,,,,,,
,,,,,,,,,,,,Half,Few,None,More than half,Some,All,Most,Many,Less than half,0.51077691,0.244262153,1,0,0,QQQ1,,,,,,,,English,2020-07-02_11h01.11.280,Experiment_English,3.2.4,MacIntel,60,,,,,,,,,,,,,,,,,,,,,1,0,340,37,1,339,ratio11_9_18_8.png,,,,,,,,,,,,
,,,,,,,,,,,,Few,None,Most,More than half,Half,Many,Some,Less than half,All,0.479956597,0.241944444,1,0,0,QQQ1,,,,,,,,English,2020-07-02_11h01.11.280,Experiment_English,3.2.4,MacIntel,60,,,,,,,,,,,,,,,,,,,,,1,0,340,133,1,339,ratio15_3_18_3.png,,,,,,,,,,,,
,,,,,,,,,,,,Half,Most,Many,More than half,None,All,Some,Few,Less than half,-0.056341146,-0.047734375,1,0,0,QQQ5,,,,,,,,English,2020-07-02_11h01.11.280,Experiment_English,3.2.4,MacIntel,60,,,,,,,,,,,,,,,,,,,,,1,0,340,68,1,339,ratio0Y_0_11_3.png,,,,,,,,,,,,
,,,,,,,,,,,,Less than half,Half,All,Few,None,Some,Many,Most,More than half,0.508368056,0.259522569,1,0,0,QQQ1,,,,,,,,English,2020-07-02_11h01.11.280,Experiment_English,3.2.4,MacIntel,60,,,,,,,,,,,,,,,,,,,,,1,0,340,132,1,339,ratio15_2_12_16.png,,,,,,,,,,,,
,,,,,,,,,,,,More than half,Less than half,Few,Most,All,Half,Many,None,Some,0.451883681,-0.005490451,1,0,0,QQQ2,,,,,,,,English,2020-07-02_11h01.11.280,Experiment_English,3.2.4,MacIntel,60,,,,,,,,,,,,,,,,,,,,,1,0,340,242,1,339,ratio34_3_7_6.png,,,,,,,,,,,,
,,,,,,,,,,,,Less than half,Many,Some,All,More than half,Most,Few,Half,None,0.457625868,0.245633681,1,0,0,QQQ1,,,,,,,,English,2020-07-02_11h01.11.280,Experiment_English,3.2.4,MacIntel,60,,,,,,,,,,,,,,,,,,,,,1,0,340,85,1,339,ratio13_2_8_5.png,,,,,,,,,,,,
,,,,,,,,,,,,Less than half,Many,Some,Half,Few,None,More than half,All,Most,0.434088542,0.270325521,1,0,0,QQQ1,,,,,,,,English,2020-07-02_11h01.11.280,Experiment_English,3.2.4,MacIntel,60,,,,,,,,,,,,,,,,,,,,,1,0,340,12,1,339,ratio12_4_12_10.png,,,,,,,,,,,,
,,,,,,,,,,,,None,More than half,Most,Some,Few,Half,All,Many,Less than half,-0.429157986,-0.298828125,1,0,0,QQQ9,,,,,,,,English,2020-07-02_11h01.11.280,Experiment_English,3.2.4,MacIntel,60,,,,,,,,,,,,,,,,,,,,,1,0,340,122,1,339,ratio15_1_6_7.png,,,,,,,,,,,,
,,,,,,,,,,,,Some,Less than half,Many,Half,None,Few,Most,All,More than half,-0.438125,-0.313368056,1,0,0,QQQ9,,,,,,,,English,2020-07-02_11h01.11.280,Experiment_English,3.2.4,MacIntel,60,,,,,,,,,,,,,,,,,,,,,1,0,340,268,1,339,ratio41_8_10_5.png,,,,,,,,,,,,
,,,,,,,,,,,,Less than half,Few,More than half,Half,Most,Many,None,All,Some,0.490373264,0.257070313,1,0,0,QQQ1,,,,,,,,English,2020-07-02_11h01.11.280,Experiment_English,3.2.4,MacIntel,60,,,,,,,,,,,,,,,,,,,,,1,0,340,124,1,339,ratio15_1_6_16.png,,,,,,,,,,,,
,,,,,,,,,,,,Most,Some,Less than half,All,Half,None,Many,More than half,Few,0.068511285,-0.09046875,1,0,0,QQQ5,,,,,,,,English,2020-07-02_11h01.11.280,Experiment_English,3.2.4,MacIntel,60,,,,,,,,,,,,,,,,,,,,,1,0,340,258,1,339,ratio34_6_14_14.png,,,,,,,,,,,,
,,,,,,,,,,,,Some,Many,Less than half,None,Few,All,Half,Most,More than half,0.474322917,-0.305403646,1,0,0,QQQ3,,,,,,,,English,2020-07-02_11h01.11.280,Experiment_English,3.2.4,MacIntel,60,,,,,,,,,,,,,,,,,,,,,1,0,340,264,1,339,ratio41_4_5_6.png,,,,,,,,,,,,
,,,,,,,,,,,,Few,Most,Some,All,More than half,Less than half,Many,Half,None,0.022751736,-0.361657986,1,0,0,QQQ6,,,,,,,,English,2020-07-02_11h01.11.280,Experiment_English,3.2.4,MacIntel,60,,,,,,,,,,,,,,,,,,,,,1,0,340,159,1,339,ratio19_2_20_20.png,0.321579861,-0.439301215,1,0,0,continue_button_pause,1,0,1,0,1,0
,,,,,,,,,,,,,,,,,,,,,,,,,,,,,,,,,,English,2020-07-02_11h01.11.280,Experiment_English,3.2.4,MacIntel,60,,,,,,,,,,,,,,,,,,,,,1,0,340,159,1,339,ratio19_2_20_20.png,,,,,,,,,,,,
,,,,,,,,,,,,Half,Many,Some,Few,Most,All,More than half,None,Less than half,-0.485559896,0.262330729,1,0,0,QQQ7,,,,,,,,English,2020-07-02_11h01.11.280,Experiment_English,3.2.4,MacIntel,60,,,,,,,,,,,,,,,,,,,,,1,0,340,179,1,339,ratio21_12_18_8.png,,,,,,,,,,,,
,,,,,,,,,,,,More than half,Few,None,Less than half,All,Half,Many,Most,Some,0.606189236,0.274118924,1,0,0,QQQ1,,,,,,,,English,2020-07-02_11h01.11.280,Experiment_English,3.2.4,MacIntel,60,,,,,,,,,,,,,,,,,,,,,1,0,340,162,1,339,ratio21_2_3_9.png,,,,,,,,,,,,
,,,,,,,,,,,,Some,None,Many,More than half,All,Half,Few,Less than half,Most,0.547447917,-0.265572917,1,0,0,QQQ3,,,,,,,,English,2020-07-02_11h01.11.280,Experiment_English,3.2.4,MacIntel,60,,,,,,,,,,,,,,,,,,,,,1,0,340,322,1,339,ratio91_9_10_3.png,,,,,,,,,,,,
,,,,,,,,,,,,Some,Few,None,All,Less than half,Half,Many,Most,More than half,-0.490355903,-0.297517361,1,0,0,QQQ9,,,,,,,,English,2020-07-02_11h01.11.280,Experiment_English,3.2.4,MacIntel,60,,,,,,,,,,,,,,,,,,,,,1,0,340,164,1,339,ratio21_4_6_6.png,,,,,,,,,,,,
,,,,,,,,,,,,Most,More than half,Half,Some,Less than half,None,Few,All,Many,-0.568680556,0.360130208,1,0,0,QQQ7,,,,,,,,English,2020-07-02_11h01.11.280,Experiment_English,3.2.4,MacIntel,60,,,,,,,,,,,,,,,,,,,,,1,0,340,149,1,339,ratio19_1_10_20.png,,,,,,,,,,,,
,,,,,,,,,,,,Most,Some,More than half,Less than half,Many,Half,Few,All,None,-0.479986979,0.24969184,1,0,0,QQQ7,,,,,,,,English,2020-07-02_11h01.11.280,Experiment_English,3.2.4,MacIntel,60,,,,,,,,,,,,,,,,,,,,,1,0,340,148,1,339,ratio19_1_10_19.png,,,,,,,,,,,,
,,,,,,,,,,,,Half,All,Less than half,Many,More than half,Most,None,Some,Few,0.506449653,-0.331501736,1,0,0,QQQ3,,,,,,,,English,2020-07-02_11h01.11.280,Experiment_English,3.2.4,MacIntel,60,,,,,,,,,,,,,,,,,,,,,1,0,340,237,1,339,ratio32_12_20_5.png,,,,,,,,,,,,
,,,,,,,,,,,,Less than half,None,Many,More than half,Some,All,Few,Half,Most,-0.081197917,-0.244240451,1,0,0,QQQ6,,,,,,,,English,2020-07-02_11h01.11.280,Experiment_English,3.2.4,MacIntel,60,,,,,,,,,,,,,,,,,,,,,1,0,340,54,1,339,ratioX0_15_15_5.png,,,,,,,,,,,,
,,,,,,,,,,,,More than half,Many,All,Half,Some,Few,Most,Less than half,None,-0.081197917,-0.244240451,1,0,0,QQQ6,,,,,,,,English,2020-07-02_11h01.11.280,Experiment_English,3.2.4,MacIntel,60,,,,,,,,,,,,,,,,,,,,,1,0,340,146,1,339,ratio19_1_10_17.png,,,,,,,,,,,,
,,,,,,,,,,,,Some,More than half,Many,All,Less than half,None,Most,Half,Few,-0.380677083,0.003723958,1,0,0,QQQ8,,,,,,,,English,2020-07-02_11h01.11.280,Experiment_English,3.2.4,MacIntel,60,,,,,,,,,,,,,,,,,,,,,1,0,340,22,1,339,ratio11_3_6_6.png,,,,,,,,,,,,
,,,,,,,,,,,,Some,Most,None,All,More than half,Few,Less than half,Half,Many,0.008667535,-0.371362847,1,0,0,QQQ6,,,,,,,,English,2020-07-02_11h01.11.280,Experiment_English,3.2.4,MacIntel,60,,,,,,,,,,,,,,,,,,,,,1,0,340,3,1,339,ratio12_2_6_3.png,,,,,,,,,,,,
,,,,,,,,,,,,Many,More than half,Few,Half,All,Less than half,None,Some,Most,0.067803819,-0.324973958,1,0,0,QQQ6,,,,,,,,English,2020-07-02_11h01.11.280,Experiment_English,3.2.4,MacIntel,60,,,,,,,,,,,,,,,,,,,,,1,0,340,4,1,339,ratio12_2_6_5.png,,,,,,,,,,,,
,,,,,,,,,,,,None,Most,Less than half,Few,Some,Half,More than half,Many,All,-0.451480035,0.244878472,1,0,0,QQQ7,,,,,,,,English,2020-07-02_11h01.11.280,Experiment_English,3.2.4,MacIntel,60,,,,,,,,,,,,,,,,,,,,,1,0,340,307,1,339,ratio51_10_12_1.png,,,,,,,,,,,,
,,,,,,,,,,,,Half,Less than half,Many,Few,Some,None,All,More than half,Most,-0.505833333,0.070963542,1,0,0,QQQ8,,,,,,,,English,2020-07-02_11h01.11.280,Experiment_English,3.2.4,MacIntel,60,,,,,,,,,,,,,,,,,,,,,1,0,340,302,1,339,ratio51_5_6_5.png,,,,,,,,,,,,
,,,,,,,,,,,,Few,Some,None,Less than half,More than half,Many,Half,Most,All,0.010017361,0.370503472,1,0,0,QQQ4,,,,,,,,English,2020-07-02_11h01.11.280,Experiment_English,3.2.4,MacIntel,60,,,,,,,,,,,,,,,,,,,,,1,0,340,248,1,339,ratio34_3_7_19.png,,,,,,,,,,,,
,,,,,,,,,,,,Few,Some,Most,Half,More than half,All,None,Many,Less than half,-0.369375,0.008025174,1,0,0,QQQ8,,,,,,,,English,2020-07-02_11h01.11.280,Experiment_English,3.2.4,MacIntel,60,,,,,,,,,,,,,,,,,,,,,1,0,340,316,1,339,ratio51_15_18_11.png,,,,,,,,,,,,
,,,,,,,,,,,,Some,Few,Half,Many,Most,Less than half,More than half,None,All,0.406063368,0.307057292,1,0,0,QQQ1,,,,,,,,English,2020-07-02_11h01.11.280,Experiment_English,3.2.4,MacIntel,60,,,,,,,,,,,,,,,,,,,,,1,0,340,192,1,339,ratio23_6_15_8.png,,,,,,,,,,,,
,,,,,,,,,,,,Few,Less than half,Half,Most,Many,All,Some,None,More than half,0.524618056,-0.022174479,1,0,0,QQQ2,,,,,,,,English,2020-07-02_11h01.11.280,Experiment_English,3.2.4,MacIntel,60,,,,,,,,,,,,,,,,,,,,,1,0,340,181,1,339,ratio23_2_5_6.png,,,,,,,,,,,,
,,,,,,,,,,,,None,Many,All,Less than half,Half,Few,More than half,Some,Most,-0.488732639,-0.005507812,1,0,0,QQQ8,,,,,,,,English,2020-07-02_11h01.11.280,Experiment_English,3.2.4,MacIntel,60,,,,,,,,,,,,,,,,,,,,,1,0,340,166,1,339,ratio21_6_9_1.png,,,,,,,,,,,,
,,,,,,,,,,,,Many,Most,Half,All,Some,Few,More than half,None,Less than half,0.034479167,-0.000490451,1,0,0,QQQ5,,,,,,,,English,2020-07-02_11h01.11.280,Experiment_English,3.2.4,MacIntel,60,,,,,,,,,,,,,,,,,,,,,1,0,340,207,1,339,ratio31_6_8_9.png,,,,,,,,,,,,
,,,,,,,,,,,,Many,Half,All,Few,Most,Less than half,More than half,Some,None,-0.47453125,0.293428819,1,0,0,QQQ7,,,,,,,,English,2020-07-02_11h01.11.280,Experiment_English,3.2.4,MacIntel,60,,,,,,,,,,,,,,,,,,,,,1,0,340,273,1,339,ratio41_12_15_8.png,,,,,,,,,,,,
,,,,,,,,,,,,Half,Most,All,Less than half,Some,Few,More than half,Many,None,-0.401809896,0.333524306,1,0,0,QQQ7,,,,,,,,English,2020-07-02_11h01.11.280,Experiment_English,3.2.4,MacIntel,60,,,,,,,,,,,,,,,,,,,,,1,0,340,324,1,339,ratio91_9_10_7.png,,,,,,,,,,,,
,,,,,,,,,,,,Few,None,Half,Less than half,More than half,Some,All,Most,Many,0.45765191,-0.231961806,1,0,0,QQQ3,,,,,,,,English,2020-07-02_11h01.11.280,Experiment_English,3.2.4,MacIntel,60,,,,,,,,,,,,,,,,,,,,,1,0,340,18,1,339,ratio12_6_18_7.png,,,,,,,,,,,,
,,,,,,,,,,,,More than half,All,Many,None,Few,Less than half,Most,Some,Half,0.499900174,0.273841146,1,0,0,QQQ1,,,,,,,,English,2020-07-02_11h01.11.280,Experiment_English,3.2.4,MacIntel,60,,,,,,,,,,,,,,,,,,,,,1,0,340,239,1,339,ratio32_12_20_10.png,,,,,,,,,,,,
,,,,,,,,,,,,None,Some,Most,Half,All,Few,Less than half,More than half,Many,0.45359809,0.031974826,1,0,0,QQQ2,,,,,,,,English,2020-07-02_11h01.11.280,Experiment_English,3.2.4,MacIntel,60,,,,,,,,,,,,,,,,,,,,,1,0,340,119,1,339,ratio14_4_20_10.png,,,,,,,,,,,,
,,,,,,,,,,,,Few,Half,Some,More than half,Less than half,Many,Most,None,All,0.084071181,0.26594184,1,0,0,QQQ4,,,,,,,,English,2020-07-02_11h01.11.280,Experiment_English,3.2.4,MacIntel,60,,,,,,,,,,,,,,,,,,,,,1,0,340,219,1,339,ratio31_15_20_10.png,,,,,,,,,,,,
,,,,,,,,,,,,More than half,Some,Most,None,All,Many,Less than half,Few,Half,0.461610243,0.056236979,1,0,0,QQQ2,,,,,,,,English,2020-07-02_11h01.11.280,Experiment_English,3.2.4,MacIntel,60,,,,,,,,,,,,,,,,,,,,,1,0,340,109,1,339,ratio14_2_10_9.png,,,,,,,,,,,,
,,,,,,,,,,,,Some,Many,More than half,None,All,Less than half,Few,Most,Half,0.550008681,0.27265191,1,0,0,QQQ1,,,,,,,,English,2020-07-02_11h01.11.280,Experiment_English,3.2.4,MacIntel,60,,,,,,,,,,,,,,,,,,,,,1,0,340,244,1,339,ratio34_3_7_9.png,,,,,,,,,,,,
,,,,,,,,,,,,Half,Few,Most,Many,All,Some,None,More than half,Less than half,-0.083025174,-0.296488715,1,0,0,QQQ6,,,,,,,,English,2020-07-02_11h01.11.280,Experiment_English,3.2.4,MacIntel,60,,,,,,,,,,,,,,,,,,,,,1,0,340,197,1,339,ratio23_8_20_6.png,,,,,,,,,,,,
,,,,,,,,,,,,None,All,Most,Less than half,Few,More than half,Half,Some,Many,0.02483941,-0.222977431,1,0,0,QQQ6,,,,,,,,English,2020-07-02_11h01.11.280,Experiment_English,3.2.4,MacIntel,60,,,,,,,,,,,,,,,,,,,,,1,0,340,160,1,339,ratio21_2_3_2.png,,,,,,,,,,,,
,,,,,,,,,,,,More than half,Some,Less than half,None,Few,Most,Half,All,Many,0.069487847,0.280972222,1,0,0,QQQ4,,,,,,,,English,2020-07-02_11h01.11.280,Experiment_English,3.2.4,MacIntel,60,,,,,,,,,,,,,,,,,,,,,1,0,340,339,1,339,ratio91_18_20_19.png,,,,,,,,,,,,
,,,,,,,,,,,,All,Less than half,Half,Few,Most,Some,None,More than half,Many,-0.427612847,0.243098958,1,0,0,QQQ7,,,,,,,,English,2020-07-02_11h01.11.280,Experiment_English,3.2.4,MacIntel,60,,,,,,,,,,,,,,,,,,,,,1,0,340,288,1,339,ratio43_4_7_18.png,,,,,,,,,,,,
,,,,,,,,,,,,Few,All,More than half,Less than half,Half,Many,Most,Some,None,-0.131297743,-0.221436632,1,0,0,QQQ6,,,,,,,,English,2020-07-02_11h01.11.280,Experiment_English,3.2.4,MacIntel,60,,,,,,,,,,,,,,,,,,,,,1,0,340,338,1,339,ratio91_18_20_18.png,,,,,,,,,,,,
,,,,,,,,,,,,None,Half,Many,Less than half,Some,More than half,All,Few,Most,-0.09155816,-0.322521701,1,0,0,QQQ6,,,,,,,,English,2020-07-02_11h01.11.280,Experiment_English,3.2.4,MacIntel,60,,,,,,,,,,,,,,,,,,,,,1,0,340,202,1,339,ratio31_3_4_8.png,0.318624132,-0.361011285,1,0,0,continue_button_pause,1,0,1,0,1,0
,,,,,,,,,,,,,,,,,,,,,,,,,,,,,,,,,,English,2020-07-02_11h01.11.280,Experiment_English,3.2.4,MacIntel,60,,,,,,,,,,,,,,,,,,,,,1,0,340,202,1,339,ratio31_3_4_8.png,,,,,,,,,,,,
,,,,,,,,,,,,More than half,Many,Most,Few,All,Less than half,Half,None,Some,0.515008681,0.045603299,1,0,0,QQQ2,,,,,,,,English,2020-07-02_11h01.11.280,Experiment_English,3.2.4,MacIntel,60,,,,,,,,,,,,,,,,,,,,,1,0,340,327,1,339,ratio91_9_10_11.png,,,,,,,,,,,,
,,,,,,,,,,,,More than half,Most,Few,Many,All,Less than half,Half,Some,None,0.421158854,-0.013181424,1,0,0,QQQ2,,,,,,,,English,2020-07-02_11h01.11.280,Experiment_English,3.2.4,MacIntel,60,,,,,,,,,,,,,,,,,,,,,1,0,340,328,1,339,ratio91_9_10_15.png,,,,,,,,,,,,
,,,,,,,,,,,,Most,Few,Less than half,Half,More than half,None,All,Some,Many,-0.053315972,-0.233780382,1,0,0,QQQ6,,,,,,,,English,2020-07-02_11h01.11.280,Experiment_English,3.2.4,MacIntel,60,,,,,,,,,,,,,,,,,,,,,1,0,340,70,1,339,ratio0Y_0_12_5.png,,,,,,,,,,,,
,,,,,,,,,,,,More than half,All,Many,None,Most,Less than half,Few,Some,Half,-0.052235243,-0.299930556,1,0,0,QQQ6,,,,,,,,English,2020-07-02_11h01.11.280,Experiment_English,3.2.4,MacIntel,60,,,,,,,,,,,,,,,,,,,,,1,0,340,95,1,339,ratio13_4_16_10.png,,,,,,,,,,,,
,,,,,,,,,,,,None,All,Many,Less than half,Half,Few,More than half,Most,Some,-0.010902778,0.280694444,1,0,0,QQQ4,,,,,,,,English,2020-07-02_11h01.11.280,Experiment_English,3.2.4,MacIntel,60,,,,,,,,,,,,,,,,,,,,,1,0,340,15,1,339,ratio12_5_15_5.png,,,,,,,,,,,,
,,,,,,,,,,,,Most,All,Many,Few,Some,Half,Less than half,More than half,None,0.34405816,0.235164931,1,0,0,QQQ1,,,,,,,,English,2020-07-02_11h01.11.280,Experiment_English,3.2.4,MacIntel,60,,,,,,,,,,,,,,,,,,,,,1,0,340,206,1,339,ratio31_6_8_6.png,,,,,,,,,,,,
,,,,,,,,,,,,More than half,Some,Many,Less than half,Few,All,Half,None,Most,0.376219618,-0.24359809,1,0,0,QQQ3,,,,,,,,English,2020-07-02_11h01.11.280,Experiment_English,3.2.4,MacIntel,60,,,,,,,,,,,,,,,,,,,,,1,0,340,330,1,339,ratio91_18_20_2.png,,,,,,,,,,,,
,,,,,,,,,,,,Less than half,Few,All,Half,More than half,Most,Some,None,Many,0.084427083,-0.01375434,1,0,0,QQQ5,,,,,,,,English,2020-07-02_11h01.11.280,Experiment_English,3.2.4,MacIntel,60,,,,,,,,,,,,,,,,,,,,,1,0,340,269,1,339,ratio41_8_10_6.png,,,,,,,,,,,,
,,,,,,,,,,,,Half,More than half,Few,All,Many,Some,Less than half,None,Most,0.002829861,0.296267361,1,0,0,QQQ4,,,,,,,,English,2020-07-02_11h01.11.280,Experiment_English,3.2.4,MacIntel,60,,,,,,,,,,,,,,,,,,,,,1,0,340,44,1,339,ratioX0_7_7_5.png,,,,,,,,,,,,
,,,,,,,,,,,,Many,Most,All,Few,Less than half,None,More than half,Some,Half,-0.083346354,0.017313368,1,0,0,QQQ5,,,,,,,,English,2020-07-02_11h01.11.280,Experiment_English,3.2.4,MacIntel,60,,,,,,,,,,,,,,,,,,,,,1,0,340,88,1,339,ratio13_3_12_5.png,,,,,,,,,,,,
,,,,,,,,,,,,Half,Less than half,Some,All,Many,Few,None,More than half,Most,-0.465221354,-0.026236979,1,0,0,QQQ8,,,,,,,,English,2020-07-02_11h01.11.280,Experiment_English,3.2.4,MacIntel,60,,,,,,,,,,,,,,,,,,,,,1,0,340,167,1,339,ratio21_6_9_2.png,,,,,,,,,,,,
,,,,,,,,,,,,Less than half,Most,Half,All,Some,Few,None,More than half,Many,0.550321181,0.308658854,1,0,0,QQQ1,,,,,,,,English,2020-07-02_11h01.11.280,Experiment_English,3.2.4,MacIntel,60,,,,,,,,,,,,,,,,,,,,,1,0,340,128,1,339,ratio15_2_12_8.png,,,,,,,,,,,,
,,,,,,,,,,,,More than half,Half,None,Many,Some,Most,Less than half,All,Few,0.445512153,0.279522569,1,0,0,QQQ1,,,,,,,,English,2020-07-02_11h01.11.280,Experiment_English,3.2.4,MacIntel,60,,,,,,,,,,,,,,,,,,,,,1,0,340,214,1,339,ratio31_12_16_5.png,,,,,,,,,,,,
,,,,,,,,,,,,Half,Less than half,More than half,All,Most,Few,None,Some,Many,0.50953125,0.293823785,1,0,0,QQQ1,,,,,,,,English,2020-07-02_11h01.11.280,Experiment_English,3.2.4,MacIntel,60,,,,,,,,,,,,,,,,,,,,,1,0,340,283,1,339,ratio43_4_7_8.png,,,,,,,,,,,,
,,,,,,,,,,,,None,Many,Most,Few,More than half,All,Less than half,Some,Half,0.084348958,-0.003259549,1,0,0,QQQ5,,,,,,,,English,2020-07-02_11h01.11.280,Experiment_English,3.2.4,MacIntel,60,,,,,,,,,,,,,,,,,,,,,1,0,340,272,1,339,ratio41_12_15_7.png,,,,,,,,,,,,
,,,,,,,,,,,,All,Few,Most,More than half,Many,Less than half,None,Half,Some,0.030716146,-0.294513889,1,0,0,QQQ6,,,,,,,,English,2020-07-02_11h01.11.280,Experiment_English,3.2.4,MacIntel,60,,,,,,,,,,,,,,,,,,,,,1,0,340,108,1,339,ratio14_2_10_6.png,,,,,,,,,,,,
,,,,,,,,,,,,Most,More than half,Many,Half,Less than half,Few,Some,All,None,0.103359375,0.003051215,1,0,0,QQQ5,,,,,,,,English,2020-07-02_11h01.11.280,Experiment_English,3.2.4,MacIntel,60,,,,,,,,,,,,,,,,,,,,,1,0,340,165,1,339,ratio21_4_6_10.png,,,,,,,,,,,,
,,,,,,,,,,,,Few,More than half,All,Some,Most,Many,Half,Less than half,None,0.498446181,-0.018940972,1,0,0,QQQ2,,,,,,,,English,2020-07-02_11h01.11.280,Experiment_English,3.2.4,MacIntel,60,,,,,,,,,,,,,,,,,,,,,1,0,340,287,1,339,ratio43_4_7_17.png,,,,,,,,,,,,
,,,,,,,,,,,,Half,Some,Few,Most,None,Many,All,Less than half,More than half,-0.464869792,-0.286506076,1,0,0,QQQ9,,,,,,,,English,2020-07-02_11h01.11.280,Experiment_English,3.2.4,MacIntel,60,,,,,,,,,,,,,,,,,,,,,1,0,340,205,1,339,ratio31_6_8_2.png,,,,,,,,,,,,
,,,,,,,,,,,,Some,Most,Few,Half,Less than half,More than half,None,All,Many,0.51468316,0.012604167,1,0,0,QQQ2,,,,,,,,English,2020-07-02_11h01.11.280,Experiment_English,3.2.4,MacIntel,60,,,,,,,,,,,,,,,,,,,,,1,0,340,201,1,339,ratio31_3_4_7.png,,,,,,,,,,,,
,,,,,,,,,,,,Less than half,Few,None,More than half,All,Some,Half,Most,Many,-0.476414931,0.302821181,1,0,0,QQQ7,,,,,,,,English,2020-07-02_11h01.11.280,Experiment_English,3.2.4,MacIntel,60,,,,,,,,,,,,,,,,,,,,,1,0,340,299,1,339,ratio43_8_14_17.png,,,,,,,,,,,,
,,,,,,,,,,,,Most,All,Many,Some,Half,None,Few,More than half,Less than half,-0.381440972,-0.33375,1,0,0,QQQ9,,,,,,,,English,2020-07-02_11h01.11.280,Experiment_English,3.2.4,MacIntel,60,,,,,,,,,,,,,,,,,,,,,1,0,340,97,1,339,ratio13_5_20_2.png,,,,,,,,,,,,
,,,,,,,,,,,,Many,None,Half,Less than half,All,More than half,Some,Few,Most,-0.455069444,-0.00281684,1,0,0,QQQ8,,,,,,,,English,2020-07-02_11h01.11.280,Experiment_English,3.2.4,MacIntel,60,,,,,,,,,,,,,,,,,,,,,1,0,340,150,1,339,ratio19_2_20_1.png,,,,,,,,,,,,
,,,,,,,,,,,,Half,Most,Many,Some,Few,None,More than half,All,Less than half,-0.435147569,-0.269422743,1,0,0,QQQ9,,,,,,,,English,2020-07-02_11h01.11.280,Experiment_English,3.2.4,MacIntel,60,,,,,,,,,,,,,,,,,,,,,1,0,340,184,1,339,ratio23_2_5_10.png,,,,,,,,,,,,
,,,,,,,,,,,,More than half,All,Few,Some,Many,None,Most,Half,Less than half,-0.412382812,-0.309210069,1,0,0,QQQ9,,,,,,,,English,2020-07-02_11h01.11.280,Experiment_English,3.2.4,MacIntel,60,,,,,,,,,,,,,,,,,,,,,1,0,340,84,1,339,ratio13_2_8_1.png,,,,,,,,,,,,
,,,,,,,,,,,,Less than half,Most,None,Many,All,Half,Few,More than half,Some,0.436636285,-0.037899306,1,0,0,QQQ2,,,,,,,,English,2020-07-02_11h01.11.280,Experiment_English,3.2.4,MacIntel,60,,,,,,,,,,,,,,,,,,,,,1,0,340,200,1,339,ratio31_3_4_4.png,,,,,,,,,,,,
,,,,,,,,,,,,Some,Half,Less than half,Few,Most,More than half,Many,All,None,0.158624132,-0.206888021,1,0,0,QQQ6,,,,,,,,English,2020-07-02_11h01.11.280,Experiment_English,3.2.4,MacIntel,60,,,,,,,,,,,,,,,,,,,,,1,0,340,261,1,339,ratio41_4_5_3.png,,,,,,,,,,,,
,,,,,,,,,,,,None,Less than half,Half,All,Most,Some,Few,Many,More than half,0.419210069,-0.279396701,1,0,0,QQQ3,,,,,,,,English,2020-07-02_11h01.11.280,Experiment_English,3.2.4,MacIntel,60,,,,,,,,,,,,,,,,,,,,,1,0,340,291,1,339,ratio43_8_14_5.png,,,,,,,,,,,,
,,,,,,,,,,,,Half,Many,Less than half,None,All,Most,More than half,Some,Few,-0.370512153,-0.274904514,1,0,0,QQQ9,,,,,,,,English,2020-07-02_11h01.11.280,Experiment_English,3.2.4,MacIntel,60,,,,,,,,,,,,,,,,,,,,,1,0,340,82,1,339,ratio13_1_4_7.png,,,,,,,,,,,,
,,,,,,,,,,,,Most,Some,All,Half,More than half,Few,None,Many,Less than half,-0.490121528,-0.313871528,1,0,0,QQQ9,,,,,,,,English,2020-07-02_11h01.11.280,Experiment_English,3.2.4,MacIntel,60,,,,,,,,,,,,,,,,,,,,,1,0,340,185,1,339,ratio23_4_10_1.png,,,,,,,,,,,,
,,,,,,,,,,,,All,Half,Some,Less than half,Most,Few,More than half,None,Many,-0.451675347,0.244618056,1,0,0,QQQ7,,,,,,,,English,2020-07-02_11h01.11.280,Experiment_English,3.2.4,MacIntel,60,,,,,,,,,,,,,,,,,,,,,1,0,340,163,1,339,ratio21_4_6_1.png,,,,,,,,,,,,
,,,,,,,,,,,,Many,Few,Half,Most,Some,More than half,None,All,Less than half,0.472534722,0.201918403,1,0,0,QQQ1,,,,,,,,English,2020-07-02_11h01.11.280,Experiment_English,3.2.4,MacIntel,60,,,,,,,,,,,,,,,,,,,,,1,0,340,317,1,339,ratio51_15_18_13.png,,,,,,,,,,,,
,,,,,,,,,,,,More than half,Few,Many,Some,Most,Less than half,Half,All,None,0.139179688,0.024913194,1,0,0,QQQ5,,,,,,,,English,2020-07-02_11h01.11.280,Experiment_English,3.2.4,MacIntel,60,,,,,,,,,,,,,,,,,,,,,1,0,340,276,1,339,ratio41_16_20_4.png,,,,,,,,,,,,
,,,,,,,,,,,,Half,Most,None,More than half,Less than half,Some,Few,Many,All,-0.382413194,-0.012508681,1,0,0,QQQ8,,,,,,,,English,2020-07-02_11h01.11.280,Experiment_English,3.2.4,MacIntel,60,,,,,,,,,,,,,,,,,,,,,1,0,340,300,1,339,ratio51_5_6_1.png,0.302925347,-0.411271701,1,0,0,continue_button_pause,1,0,1,0,1,0
,,,,,,,,,,,,,,,,,,,,,,,,,,,,,,,,,,English,2020-07-02_11h01.11.280,Experiment_English,3.2.4,MacIntel,60,,,,,,,,,,,,,,,,,,,,,1,0,340,300,1,339,ratio51_5_6_1.png,,,,,,,,,,,,
,,,,,,,,,,,,Less than half,Most,Few,More than half,None,All,Some,Many,Half,0.553016493,-0.339027778,1,0,0,QQQ3,,,,,,,,English,2020-07-02_11h01.11.280,Experiment_English,3.2.4,MacIntel,60,,,,,,,,,,,,,,,,,,,,,1,0,340,121,1,339,ratio15_1_6_4.png,,,,,,,,,,,,
,,,,,,,,,,,,Some,Less than half,Most,None,Many,All,Few,More than half,Half,0.092664931,-0.05453559,1,0,0,QQQ5,,,,,,,,English,2020-07-02_11h01.11.280,Experiment_English,3.2.4,MacIntel,60,,,,,,,,,,,,,,,,,,,,,1,0,340,329,1,339,ratio91_9_10_20.png,,,,,,,,,,,,
,,,,,,,,,,,,More than half,All,Less than half,None,Few,Some,Half,Most,Many,0.004092882,0.321740451,1,0,0,QQQ4,,,,,,,,English,2020-07-02_11h01.11.280,Experiment_English,3.2.4,MacIntel,60,,,,,,,,,,,,,,,,,,,,,1,0,340,65,1,339,ratio0Y_0_8_4.png,,,,,,,,,,,,
,,,,,,,,,,,,More than half,Some,Many,Less than half,Half,Most,All,Few,None,0.453398437,0.009266493,1,0,0,QQQ2,,,,,,,,English,2020-07-02_11h01.11.280,Experiment_English,3.2.4,MacIntel,60,,,,,,,,,,,,,,,,,,,,,1,0,340,152,1,339,ratio19_2_20_6.png,,,,,,,,,,,,
,,,,,,,,,,,,Less than half,Many,None,All,Most,Half,Some,Few,More than half,-0.385299479,0.322942708,1,0,0,QQQ7,,,,,,,,English,2020-07-02_11h01.11.280,Experiment_English,3.2.4,MacIntel,60,,,,,,,,,,,,,,,,,,,,,1,0,340,117,1,339,ratio14_4_20_6.png,,,,,,,,,,,,
,,,,,,,,,,,,Less than half,All,Many,Half,None,Most,Some,Few,More than half,-0.465551215,0.006180556,1,0,0,QQQ8,,,,,,,,English,2020-07-02_11h01.11.280,Experiment_English,3.2.4,MacIntel,60,,,,,,,,,,,,,,,,,,,,,1,0,340,126,1,339,ratio15_2_12_1.png,,,,,,,,,,,,
,,,,,,,,,,,,Many,Less than half,Half,None,Some,Most,All,Few,More than half,0.084162326,-0.015425347,1,0,0,QQQ5,,,,,,,,English,2020-07-02_11h01.11.280,Experiment_English,3.2.4,MacIntel,60,,,,,,,,,,,,,,,,,,,,,1,0,340,234,1,339,ratio32_9_15_10.png,,,,,,,,,,,,
,,,,,,,,,,,,Some,Few,Half,None,All,Less than half,Many,More than half,Most,-0.023098958,0.310212674,1,0,0,QQQ4,,,,,,,,English,2020-07-02_11h01.11.280,Experiment_English,3.2.4,MacIntel,60,,,,,,,,,,,,,,,,,,,,,1,0,340,238,1,339,ratio32_12_20_9.png,,,,,,,,,,,,
,,,,,,,,,,,,All,Few,Less than half,Some,None,Many,More than half,Most,Half,0.019774306,0.004344618,1,0,0,QQQ5,,,,,,,,English,2020-07-02_11h01.11.280,Experiment_English,3.2.4,MacIntel,60,,,,,,,,,,,,,,,,,,,,,1,0,340,69,1,339,ratio0Y_0_11_6.png,,,,,,,,,,,,
,,,,,,,,,,,,All,Most,Less than half,Few,Half,None,Some,More than half,Many,0.481996528,-0.271814236,1,0,0,QQQ3,,,,,,,,English,2020-07-02_11h01.11.280,Experiment_English,3.2.4,MacIntel,60,,,,,,,,,,,,,,,,,,,,,1,0,340,186,1,339,ratio23_4_10_2.png,,,,,,,,,,,,
,,,,,,,,,,,,Half,More than half,All,Few,Most,Many,Less than half,Some,None,0.001614583,0.26843316,1,0,0,QQQ4,,,,,,,,English,2020-07-02_11h01.11.280,Experiment_English,3.2.4,MacIntel,60,,,,,,,,,,,,,,,,,,,,,1,0,340,125,1,339,ratio15_1_6_19.png,,,,,,,,,,,,
,,,,,,,,,,,,Half,Some,Most,Many,More than half,All,Few,None,Less than half,-0.018945312,-0.013511285,1,0,0,QQQ5,,,,,,,,English,2020-07-02_11h01.11.280,Experiment_English,3.2.4,MacIntel,60,,,,,,,,,,,,,,,,,,,,,1,0,340,315,1,339,ratio51_15_18_10.png,,,,,,,,,,,,
,,,,,,,,,,,,Some,All,Most,Many,More than half,None,Less than half,Few,Half,-0.05984375,0.239205729,1,0,0,QQQ4,,,,,,,,English,2020-07-02_11h01.11.280,Experiment_English,3.2.4,MacIntel,60,,,,,,,,,,,,,,,,,,,,,1,0,340,279,1,339,ratio41_16_20_10.png,,,,,,,,,,,,
,,,,,,,,,,,,Some,All,None,Half,More than half,Many,Less than half,Most,Few,-0.41046441,0.281905382,1,0,0,QQQ7,,,,,,,,English,2020-07-02_11h01.11.280,Experiment_English,3.2.4,MacIntel,60,,,,,,,,,,,,,,,,,,,,,1,0,340,5,1,339,ratio12_2_6_9.png,,,,,,,,,,,,
,,,,,,,,,,,,None,Few,Half,Less than half,More than half,Some,Many,All,Most,-0.069010417,0.029960937,1,0,0,QQQ5,,,,,,,,English,2020-07-02_11h01.11.280,Experiment_English,3.2.4,MacIntel,60,,,,,,,,,,,,,,,,,,,,,1,0,340,173,1,339,ratio21_8_12_9.png,,,,,,,,,,,,
,,,,,,,,,,,,Less than half,Few,Most,Half,Many,None,All,More than half,Some,0.505099826,0.279592014,1,0,0,QQQ1,,,,,,,,English,2020-07-02_11h01.11.280,Experiment_English,3.2.4,MacIntel,60,,,,,,,,,,,,,,,,,,,,,1,0,340,116,1,339,ratio14_4_20_3.png,,,,,,,,,,,,
,,,,,,,,,,,,Most,Half,Less than half,More than half,None,Few,Some,All,Many,0.409418403,-0.013250868,1,0,0,QQQ2,,,,,,,,English,2020-07-02_11h01.11.280,Experiment_English,3.2.4,MacIntel,60,,,,,,,,,,,,,,,,,,,,,1,0,340,33,1,339,ratio11_7_14_8.png,,,,,,,,,,,,
,,,,,,,,,,,,Half,Most,More than half,Less than half,None,Few,Some,All,Many,0.438398438,-0.304748264,1,0,0,QQQ3,,,,,,,,English,2020-07-02_11h01.11.280,Experiment_English,3.2.4,MacIntel,60,,,,,,,,,,,,,,,,,,,,,1,0,340,304,1,339,ratio51_5_6_13.png,,,,,,,,,,,,
,,,,,,,,,,,,More than half,Few,Many,Less than half,Some,All,Most,None,Half,0.078823785,0.249049479,1,0,0,QQQ4,,,,,,,,English,2020-07-02_11h01.11.280,Experiment_English,3.2.4,MacIntel,60,,,,,,,,,,,,,,,,,,,,,1,0,340,112,1,339,ratio14_3_15_4.png,,,,,,,,,,,,
,,,,,,,,,,,,More than half,Most,Few,Less than half,All,None,Many,Half,Some,0.067248264,0.290334201,1,0,0,QQQ4,,,,,,,,English,2020-07-02_11h01.11.280,Experiment_English,3.2.4,MacIntel,60,,,,,,,,,,,,,,,,,,,,,1,0,340,257,1,339,ratio34_6_14_12.png,,,,,,,,,,,,
,,,,,,,,,,,,Half,All,Most,Some,More than half,Many,None,Less than half,Few,-0.445416667,0.035303819,1,0,0,QQQ8,,,,,,,,English,2020-07-02_11h01.11.280,Experiment_English,3.2.4,MacIntel,60,,,,,,,,,,,,,,,,,,,,,1,0,340,245,1,339,ratio34_3_7_10.png,,,,,,,,,,,,
,,,,,,,,,,,,Half,More than half,None,All,Many,Some,Most,Less than half,Few,0.479670139,-0.293945313,1,0,0,QQQ3,,,,,,,,English,2020-07-02_11h01.11.280,Experiment_English,3.2.4,MacIntel,60,,,,,,,,,,,,,,,,,,,,,1,0,340,62,1,339,ratio0Y_0_5_4.png,,,,,,,,,,,,
,,,,,,,,,,,,All,Most,Some,Many,Half,Less than half,None,Few,More than half,-0.057322049,-0.002986111,1,0,0,QQQ5,,,,,,,,English,2020-07-02_11h01.11.280,Experiment_English,3.2.4,MacIntel,60,,,,,,,,,,,,,,,,,,,,,1,0,340,23,1,339,ratio11_3_6_9.png,,,,,,,,,,,,
,,,,,,,,,,,,Most,Many,Half,Some,Few,More than half,Less than half,All,None,0.065755208,-0.237955729,1,0,0,QQQ6,,,,,,,,English,2020-07-02_11h01.11.280,Experiment_English,3.2.4,MacIntel,60,,,,,,,,,,,,,,,,,,,,,1,0,340,263,1,339,ratio41_4_5_5.png,,,,,,,,,,,,
,,,,,,,,,,,,More than half,Less than half,Many,Some,All,Most,Few,Half,None,0.487078993,0.032756076,1,0,0,QQQ2,,,,,,,,English,2020-07-02_11h01.11.280,Experiment_English,3.2.4,MacIntel,60,,,,,,,,,,,,,,,,,,,,,1,0,340,107,1,339,ratio14_2_10_5.png,,,,,,,,,,,,
,,,,,,,,,,,,Some,None,Most,Half,Few,All,More than half,Less than half,Many,-0.397881944,-0.014700521,1,0,0,QQQ8,,,,,,,,English,2020-07-02_11h01.11.280,Experiment_English,3.2.4,MacIntel,60,,,,,,,,,,,,,,,,,,,,,1,0,340,106,1,339,ratio14_2_10_2.png,,,,,,,,,,,,
,,,,,,,,,,,,More than half,All,None,Few,Half,Most,Some,Less than half,Many,-0.415199653,-0.010069444,1,0,0,QQQ8,,,,,,,,English,2020-07-02_11h01.11.280,Experiment_English,3.2.4,MacIntel,60,,,,,,,,,,,,,,,,,,,,,1,0,340,13,1,339,ratio12_5_15_3.png,,,,,,,,,,,,
,,,,,,,,,,,,Less than half,All,Most,Many,Few,None,Some,Half,More than half,0.096514757,0.275347222,1,0,0,QQQ4,,,,,,,,English,2020-07-02_11h01.11.280,Experiment_English,3.2.4,MacIntel,60,,,,,,,,,,,,,,,,,,,,,1,0,340,296,1,339,ratio43_8_14_12.png,,,,,,,,,,,,
,,,,,,,,,,,,Many,None,Less than half,Some,More than half,Few,Most,Half,All,0.034874132,-0.305568576,1,0,0,QQQ6,,,,,,,,English,2020-07-02_11h01.11.280,Experiment_English,3.2.4,MacIntel,60,,,,,,,,,,,,,,,,,,,,,1,0,340,135,1,339,ratio15_3_18_7.png,,,,,,,,,,,,
,,,,,,,,,,,,More than half,Most,None,Few,Some,Many,Half,Less than half,All,-0.395616319,-0.275750868,1,0,0,QQQ9,,,,,,,,English,2020-07-02_11h01.11.280,Experiment_English,3.2.4,MacIntel,60,,,,,,,,,,,,,,,,,,,,,1,0,340,51,1,339,ratioX0_12_12_9.png,,,,,,,,,,,,
,,,,,,,,,,,,Many,None,Most,Some,Less than half,Few,Half,All,More than half,0.5225,0.333563368,1,0,0,QQQ1,,,,,,,,English,2020-07-02_11h01.11.280,Experiment_English,3.2.4,MacIntel,60,,,,,,,,,,,,,,,,,,,,,1,0,340,266,1,339,ratio41_8_10_2.png,,,,,,,,,,,,
,,,,,,,,,,,,Most,Half,Few,Less than half,More than half,Some,Many,All,None,0.003654514,0.330477431,1,0,0,QQQ4,,,,,,,,English,2020-07-02_11h01.11.280,Experiment_English,3.2.4,MacIntel,60,,,,,,,,,,,,,,,,,,,,,1,0,340,250,1,339,ratio34_6_14_1.png,,,,,,,,,,,,
,,,,,,,,,,,,Most,Few,Many,Some,More than half,None,All,Less than half,Half,-0.391432292,-0.017539063,1,0,0,QQQ8,,,,,,,,English,2020-07-02_11h01.11.280,Experiment_English,3.2.4,MacIntel,60,,,,,,,,,,,,,,,,,,,,,1,0,340,104,1,339,ratio14_1_5_10.png,,,,,,,,,,,,
,,,,,,,,,,,,Some,More than half,Most,All,Many,Half,Few,None,Less than half,0.38718316,0.009422743,1,0,0,QQQ2,,,,,,,,English,2020-07-02_11h01.11.280,Experiment_English,3.2.4,MacIntel,60,,,,,,,,,,,,,,,,,,,,,1,0,340,309,1,339,ratio51_10_12_10.png,,,,,,,,,,,,
