continue_mouse.x,continue_mouse.y,continue_mouse.leftButton,continue_mouse.midButton,continue_mouse.rightButton,continue_mouse.clicked_name,continue_mouse_2.x,continue_mouse_2.y,continue_mouse_2.leftButton,continue_mouse_2.midButton,continue_mouse_2.rightButton,continue_mouse_2.clicked_name,Q1,Q2,Q3,Q4,Q5,Q6,Q7,Q8,Q9,select_answer.x,select_answer.y,select_answer.leftButton,select_answer.midButton,select_answer.rightButton,select_answer.clicked_name,trial.thisRepN,trial.thisTrialN,trial.thisN,trial.thisIndex,trial.ran,trial.order,trials,Native tongue*,date,expName,psychopyVersion,OS,frameRate,key_resp.keys,key_resp.rt,Actual_Experiment.thisRepN,Actual_Experiment.thisTrialN,Actual_Experiment.thisN,Actual_Experiment.thisIndex,Actual_Experiment.ran,Actual_Experiment.order,Pic,mouse_pause.x,mouse_pause.y,mouse_pause.leftButton,mouse_pause.midButton,mouse_pause.rightButton,mouse_pause.clicked_name,pause.thisRepN,pause.thisTrialN,pause.thisN,pause.thisIndex,pause.ran,pause.order
0.2275,-0.3925,1,0,0,continue_button,0.27875,-0.3825,1,0,0,continue_button_2,None,All,Most,Half,Many,More than half,Few,Less than half,Some,0.0875,-0.01125,1,0,0,QQQ5,1,0,16,3,1,15,ratio41_8_10_8.png,English,2020-06-16_15h39.45.001,Experiment_English,3.2.4,MacIntel,60,,,,,,,,,,,,,,,,,,,,,
,,,,,,,,,,,,Most,All,None,Half,Many,Less than half,Few,More than half,Some,-0.50875,-0.3125,1,0,0,QQQ9,1,0,16,5,1,15,ratio32_6_10_2.png,English,2020-06-16_15h39.45.001,Experiment_English,3.2.4,MacIntel,60,,,,,,,,,,,,,,,,,,,,,
,,,,,,,,,,,,More than half,Most,None,Few,Some,Less than half,Half,All,Many,-0.00875,0.3,1,0,0,QQQ4,1,0,16,7,1,15,ratio23_2_5_8.png,English,2020-06-16_15h39.45.001,Experiment_English,3.2.4,MacIntel,60,,,,,,,,,,,,,,,,,,,,,
,,,,,,,,,,,,Many,More than half,Few,None,Most,Less than half,Half,Some,All,0.44,-0.28,1,0,0,QQQ3,1,0,16,9,1,15,ratio19_1_10_8.png,English,2020-06-16_15h39.45.001,Experiment_English,3.2.4,MacIntel,60,,,,,,,,,,,,,,,,,,,,,
,,,,,,,,,,,,Few,Most,None,Less than half,All,Some,Many,Half,More than half,0.12625,0.23875,1,0,0,QQQ4,1,0,16,13,1,15,ratio12_5_15_1.png,English,2020-06-16_15h39.45.001,Experiment_English,3.2.4,MacIntel,60,,,,,,,,,,,,,,,,,,,,,
,,,,,,,,,,,,Half,Few,More than half,Many,None,Most,All,Less than half,Some,0.34,0.05375,1,0,0,QQQ2,,,,,,,,English,2020-06-16_15h39.45.001,Experiment_English,3.2.4,MacIntel,60,b,8.169000149,1,0,340,244,1,339,ratio34_3_7_9.png,,,,,,,,,,,,
,,,,,,,,,,,,Most,All,None,Few,Half,Less than half,Some,More than half,Many,0.02875,-0.23875,1,0,0,QQQ6,,,,,,,,English,2020-06-16_15h39.45.001,Experiment_English,3.2.4,MacIntel,60,,,1,0,340,14,1,339,ratio12_5_15_4.png,,,,,,,,,,,,
,,,,,,,,,,,,Few,All,Half,Many,Most,Some,Less than half,None,More than half,-0.48375,-0.00875,1,0,0,QQQ8,,,,,,,,English,2020-06-16_15h39.45.001,Experiment_English,3.2.4,MacIntel,60,,,1,0,340,72,1,339,ratio0Y_0_13_4.png,,,,,,,,,,,,
,,,,,,,,,,,,More than half,Many,Few,None,Less than half,Most,Half,All,Some,0.39,-0.285,1,0,0,QQQ3,,,,,,,,English,2020-06-16_15h39.45.001,Experiment_English,3.2.4,MacIntel,60,,,1,0,340,141,1,339,ratio19_1_10_2.png,,,,,,,,,,,,
,,,,,,,,,,,,Half,Many,Some,Most,All,Less than half,None,Few,More than half,-0.445,-0.34125,1,0,0,QQQ9,,,,,,,,English,2020-06-16_15h39.45.001,Experiment_English,3.2.4,MacIntel,60,,,1,0,340,279,1,339,ratio41_16_20_10.png,,,,,,,,,,,,
,,,,,,,,,,,,None,Most,Some,Few,Less than half,Half,More than half,All,Many,0.4825,-0.2275,1,0,0,QQQ3,,,,,,,,English,2020-06-16_15h39.45.001,Experiment_English,3.2.4,MacIntel,60,,,1,0,340,109,1,339,ratio14_2_10_9.png,,,,,,,,,,,,
,,,,,,,,,,,,More than half,Most,Few,Some,None,Many,Less than half,All,Half,0.45375,-0.2275,1,0,0,QQQ3,,,,,,,,English,2020-06-16_15h39.45.001,Experiment_English,3.2.4,MacIntel,60,,,1,0,340,187,1,339,ratio23_4_10_5.png,,,,,,,,,,,,
,,,,,,,,,,,,Many,More than half,Some,All,Few,Most,Less than half,Half,None,0.54875,0.26,1,0,0,QQQ1,,,,,,,,English,2020-06-16_15h39.45.001,Experiment_English,3.2.4,MacIntel,60,,,1,0,340,337,1,339,ratio91_18_20_16.png,,,,,,,,,,,,
,,,,,,,,,,,,All,Few,Half,More than half,Less than half,Some,Most,Many,None,0.06875,0.2925,1,0,0,QQQ4,,,,,,,,English,2020-06-16_15h39.45.001,Experiment_English,3.2.4,MacIntel,60,,,1,0,340,207,1,339,ratio31_6_8_9.png,,,,,,,,,,,,
,,,,,,,,,,,,None,Few,All,Most,Half,More than half,Some,Many,Less than half,0.48375,0.05375,1,0,0,QQQ2,,,,,,,,English,2020-06-16_15h39.45.001,Experiment_English,3.2.4,MacIntel,60,,,1,0,340,245,1,339,ratio34_3_7_10.png,,,,,,,,,,,,
,,,,,,,,,,,,Most,More than half,Few,None,Some,Less than half,Many,Half,All,0.51375,-0.21625,1,0,0,QQQ3,,,,,,,,English,2020-06-16_15h39.45.001,Experiment_English,3.2.4,MacIntel,60,,,1,0,340,95,1,339,ratio13_4_16_10.png,,,,,,,,,,,,
,,,,,,,,,,,,Some,Most,Many,Few,All,None,More than half,Half,Less than half,0.07625,0.23875,1,0,0,QQQ4,,,,,,,,English,2020-06-16_15h39.45.001,Experiment_English,3.2.4,MacIntel,60,,,1,0,340,106,1,339,ratio14_2_10_2.png,,,,,,,,,,,,
,,,,,,,,,,,,Less than half,All,Half,Few,Most,None,Some,Many,More than half,-0.34625,-0.00375,1,0,0,QQQ8,,,,,,,,English,2020-06-16_15h39.45.001,Experiment_English,3.2.4,MacIntel,60,,,1,0,340,45,1,339,ratioX0_8_8_3.png,,,,,,,,,,,,
,,,,,,,,,,,,Less than half,Many,All,Half,Most,Some,None,Few,More than half,-0.40125,-0.01875,1,0,0,QQQ8,,,,,,,,English,2020-06-16_15h39.45.001,Experiment_English,3.2.4,MacIntel,60,,,1,0,340,100,1,339,ratio14_1_5_3.png,,,,,,,,,,,,
,,,,,,,,,,,,Many,Half,Less than half,Most,None,Few,Some,More than half,All,0.06625,-0.28375,1,0,0,QQQ6,,,,,,,,English,2020-06-16_15h39.45.001,Experiment_English,3.2.4,MacIntel,60,,,1,0,340,183,1,339,ratio23_2_5_9.png,,,,,,,,,,,,
,,,,,,,,,,,,All,None,Half,More than half,Many,Few,Less than half,Most,Some,0.1475,-0.27375,1,0,0,QQQ6,,,,,,,,English,2020-06-16_15h39.45.001,Experiment_English,3.2.4,MacIntel,60,,,1,0,340,0,1,339,ratio12_1_3_3.png,,,,,,,,,,,,
,,,,,,,,,,,,Few,Most,All,More than half,Half,None,Some,Many,Less than half,-0.38875,0.2725,1,0,0,QQQ7,,,,,,,,English,2020-06-16_15h39.45.001,Experiment_English,3.2.4,MacIntel,60,,,1,0,340,289,1,339,ratio43_4_7_20.png,,,,,,,,,,,,
,,,,,,,,,,,,Half,Less than half,Many,All,More than half,Some,None,Most,Few,-0.00875,-0.035,1,0,0,QQQ5,,,,,,,,English,2020-06-16_15h39.45.001,Experiment_English,3.2.4,MacIntel,60,,,1,0,340,219,1,339,ratio31_15_20_10.png,,,,,,,,,,,,
,,,,,,,,,,,,More than half,Few,Most,Less than half,None,Half,Some,Many,All,-0.4525,0.24875,1,0,0,QQQ7,,,,,,,,English,2020-06-16_15h39.45.001,Experiment_English,3.2.4,MacIntel,60,,,1,0,340,165,1,339,ratio21_4_6_10.png,,,,,,,,,,,,
,,,,,,,,,,,,More than half,Few,Most,None,All,Half,Less than half,Many,Some,0.505,-0.08,1,0,0,QQQ2,,,,,,,,English,2020-06-16_15h39.45.001,Experiment_English,3.2.4,MacIntel,60,,,1,0,340,145,1,339,ratio19_1_10_15.png,,,,,,,,,,,,
,,,,,,,,,,,,Few,Most,Less than half,Some,Many,None,More than half,All,Half,0.13125,-0.0375,1,0,0,QQQ5,,,,,,,,English,2020-06-16_15h39.45.001,Experiment_English,3.2.4,MacIntel,60,,,1,0,340,324,1,339,ratio91_9_10_7.png,,,,,,,,,,,,
,,,,,,,,,,,,None,Most,Few,Half,Many,More than half,All,Less than half,Some,-0.40875,-0.02125,1,0,0,QQQ8,,,,,,,,English,2020-06-16_15h39.45.001,Experiment_English,3.2.4,MacIntel,60,,,1,0,340,306,1,339,ratio51_5_6_18.png,,,,,,,,,,,,
,,,,,,,,,,,,Many,Few,None,All,Most,Some,Less than half,Half,More than half,-0.4375,-0.2125,1,0,0,QQQ9,,,,,,,,English,2020-06-16_15h39.45.001,Experiment_English,3.2.4,MacIntel,60,,,1,0,340,228,1,339,ratio32_6_10_7.png,,,,,,,,,,,,
,,,,,,,,,,,,Less than half,None,Half,Few,Most,Some,Many,More than half,All,0.0775,-0.305,1,0,0,QQQ6,,,,,,,,English,2020-06-16_15h39.45.001,Experiment_English,3.2.4,MacIntel,60,,,1,0,340,7,1,339,ratio12_3_9_2.png,,,,,,,,,,,,
,,,,,,,,,,,,More than half,Half,Less than half,Some,Most,None,Few,Many,All,0.0075,0.3275,1,0,0,QQQ4,,,,,,,,English,2020-06-16_15h39.45.001,Experiment_English,3.2.4,MacIntel,60,,,1,0,340,24,1,339,ratio11_4_8_3.png,,,,,,,,,,,,
,,,,,,,,,,,,More than half,All,None,Half,Less than half,Few,Most,Many,Some,-0.42,-0.20625,1,0,0,QQQ9,,,,,,,,English,2020-06-16_15h39.45.001,Experiment_English,3.2.4,MacIntel,60,,,1,0,340,264,1,339,ratio41_4_5_6.png,,,,,,,,,,,,
,,,,,,,,,,,,None,All,Many,Most,Few,Some,Less than half,Half,More than half,0.00875,-0.03125,1,0,0,QQQ5,,,,,,,,English,2020-06-16_15h39.45.001,Experiment_English,3.2.4,MacIntel,60,,,1,0,340,249,1,339,ratio34_3_7_20.png,,,,,,,,,,,,
,,,,,,,,,,,,Some,All,Few,None,Most,Less than half,More than half,Half,Many,0.55625,-0.3525,1,0,0,QQQ3,,,,,,,,English,2020-06-16_15h39.45.001,Experiment_English,3.2.4,MacIntel,60,,,1,0,340,87,1,339,ratio13_2_8_8.png,,,,,,,,,,,,
,,,,,,,,,,,,Some,None,Half,More than half,All,Less than half,Most,Many,Few,-0.3425,0.0675,1,0,0,QQQ8,,,,,,,,English,2020-06-16_15h39.45.001,Experiment_English,3.2.4,MacIntel,60,,,1,0,340,232,1,339,ratio32_9_15_8.png,,,,,,,,,,,,
,,,,,,,,,,,,Half,Few,None,Many,More than half,All,Some,Less than half,Most,-0.06375,0.27125,1,0,0,QQQ4,,,,,,,,English,2020-06-16_15h39.45.001,Experiment_English,3.2.4,MacIntel,60,,,1,0,340,274,1,339,ratio41_12_15_9.png,,,,,,,,,,,,
,,,,,,,,,,,,Many,Most,All,Few,None,Some,More than half,Less than half,Half,-0.10875,0.315,1,0,0,QQQ4,,,,,,,,English,2020-06-16_15h39.45.001,Experiment_English,3.2.4,MacIntel,60,,,1,0,340,161,1,339,ratio21_2_3_8.png,,,,,,,,,,,,
,,,,,,,,,,,,All,Many,None,Most,More than half,Half,Few,Some,Less than half,-0.50375,-0.2125,1,0,0,QQQ9,,,,,,,,English,2020-06-16_15h39.45.001,Experiment_English,3.2.4,MacIntel,60,,,1,0,340,94,1,339,ratio13_4_16_8.png,,,,,,,,,,,,
,,,,,,,,,,,,More than half,None,Some,All,Less than half,Many,Most,Half,Few,-0.42875,-0.29875,1,0,0,QQQ9,,,,,,,,English,2020-06-16_15h39.45.001,Experiment_English,3.2.4,MacIntel,60,,,1,0,340,246,1,339,ratio34_3_7_11.png,,,,,,,,,,,,
,,,,,,,,,,,,All,Few,Many,Most,Half,Some,More than half,None,Less than half,0.05625,-0.32875,1,0,0,QQQ6,,,,,,,,English,2020-06-16_15h39.45.001,Experiment_English,3.2.4,MacIntel,60,,,1,0,340,304,1,339,ratio51_5_6_13.png,0.3825,-0.38125,1,0,0,continue_button_pause,1,0,1,0,1,0
,,,,,,,,,,,,,,,,,,,,,,,,,,,,,,,,,,English,2020-06-16_15h39.45.001,Experiment_English,3.2.4,MacIntel,60,,,1,0,340,304,1,339,ratio51_5_6_13.png,,,,,,,,,,,,
,,,,,,,,,,,,Many,Less than half,Few,Some,None,Most,Half,All,More than half,-0.41375,-0.3775,1,0,0,QQQ9,,,,,,,,English,2020-06-16_15h39.45.001,Experiment_English,3.2.4,MacIntel,60,,,1,0,340,204,1,339,ratio31_6_8_1.png,,,,,,,,,,,,
,,,,,,,,,,,,Most,Few,Less than half,Half,None,Many,All,More than half,Some,-0.35375,-0.275,1,0,0,QQQ9,,,,,,,,English,2020-06-16_15h39.45.001,Experiment_English,3.2.4,MacIntel,60,,,1,0,340,99,1,339,ratio13_5_20_4.png,,,,,,,,,,,,
,,,,,,,,,,,,All,Most,Some,Many,Few,Less than half,More than half,None,Half,0.09625,-0.04125,1,0,0,QQQ5,,,,,,,,English,2020-06-16_15h39.45.001,Experiment_English,3.2.4,MacIntel,60,,,1,0,340,84,1,339,ratio13_2_8_1.png,,,,,,,,,,,,
,,,,,,,,,,,,More than half,Few,None,Most,Some,Half,Many,All,Less than half,0.1025,-0.035,1,0,0,QQQ5,,,,,,,,English,2020-06-16_15h39.45.001,Experiment_English,3.2.4,MacIntel,60,,,1,0,340,97,1,339,ratio13_5_20_2.png,,,,,,,,,,,,
,,,,,,,,,,,,Half,None,Some,All,Most,Many,More than half,Few,Less than half,-0.43625,-0.0025,1,0,0,QQQ8,,,,,,,,English,2020-06-16_15h39.45.001,Experiment_English,3.2.4,MacIntel,60,,,1,0,340,248,1,339,ratio34_3_7_19.png,,,,,,,,,,,,
,,,,,,,,,,,,More than half,Less than half,Many,Some,All,None,Most,Half,Few,0.42125,-0.05125,1,0,0,QQQ2,,,,,,,,English,2020-06-16_15h39.45.001,Experiment_English,3.2.4,MacIntel,60,,,1,0,340,26,1,339,ratio11_5_10_4.png,,,,,,,,,,,,
,,,,,,,,,,,,More than half,Less than half,All,Some,Many,Half,None,Most,Few,0.1275,-0.00375,1,0,0,QQQ5,,,,,,,,English,2020-06-16_15h39.45.001,Experiment_English,3.2.4,MacIntel,60,,,1,0,340,293,1,339,ratio43_8_14_7.png,,,,,,,,,,,,
,,,,,,,,,,,,None,All,Most,Half,More than half,Some,Many,Less than half,Few,-0.39375,0.21875,1,0,0,QQQ7,,,,,,,,English,2020-06-16_15h39.45.001,Experiment_English,3.2.4,MacIntel,60,,,1,0,340,50,1,339,ratioX0_12_12_3.png,,,,,,,,,,,,
,,,,,,,,,,,,None,Few,More than half,All,Half,Less than half,Some,Many,Most,-0.5425,-0.285,1,0,0,QQQ9,,,,,,,,English,2020-06-16_15h39.45.001,Experiment_English,3.2.4,MacIntel,60,,,1,0,340,167,1,339,ratio21_6_9_2.png,,,,,,,,,,,,
,,,,,,,,,,,,Few,Many,Half,None,Less than half,Most,Some,All,More than half,0.45875,0.36625,1,0,0,QQQ1,,,,,,,,English,2020-06-16_15h39.45.001,Experiment_English,3.2.4,MacIntel,60,,,1,0,340,149,1,339,ratio19_1_10_20.png,,,,,,,,,,,,
,,,,,,,,,,,,Less than half,None,All,Some,Most,More than half,Half,Few,Many,0.45875,0.0075,1,0,0,QQQ2,,,,,,,,English,2020-06-16_15h39.45.001,Experiment_English,3.2.4,MacIntel,60,,,1,0,340,61,1,339,ratio0Y_0_4_7.png,,,,,,,,,,,,
,,,,,,,,,,,,More than half,All,Many,Few,None,Half,Less than half,Some,Most,-0.05125,0.2575,1,0,0,QQQ4,,,,,,,,English,2020-06-16_15h39.45.001,Experiment_English,3.2.4,MacIntel,60,,,1,0,340,122,1,339,ratio15_1_6_7.png,,,,,,,,,,,,
,,,,,,,,,,,,None,Most,Few,Many,Less than half,All,Some,More than half,Half,0.44625,-0.30125,1,0,0,QQQ3,,,,,,,,English,2020-06-16_15h39.45.001,Experiment_English,3.2.4,MacIntel,60,,,1,0,340,104,1,339,ratio14_1_5_10.png,,,,,,,,,,,,
,,,,,,,,,,,,More than half,None,Many,Half,Few,Some,All,Most,Less than half,0.01125,0.27375,1,0,0,QQQ4,,,,,,,,English,2020-06-16_15h39.45.001,Experiment_English,3.2.4,MacIntel,60,,,1,0,340,31,1,339,ratio11_6_12_9.png,,,,,,,,,,,,
,,,,,,,,,,,,Most,Some,Few,None,Many,More than half,All,Less than half,Half,-0.41875,0.36625,1,0,0,QQQ7,,,,,,,,English,2020-06-16_15h39.45.001,Experiment_English,3.2.4,MacIntel,60,,,1,0,340,41,1,339,ratioX0_4_4_9.png,,,,,,,,,,,,
,,,,,,,,,,,,All,Many,Less than half,Few,None,Some,More than half,Most,Half,-0.36125,0.26,1,0,0,QQQ7,,,,,,,,English,2020-06-16_15h39.45.001,Experiment_English,3.2.4,MacIntel,60,,,1,0,340,299,1,339,ratio43_8_14_17.png,,,,,,,,,,,,
,,,,,,,,,,,,Less than half,More than half,Most,Some,Half,Many,Few,None,All,0.445,0.0475,1,0,0,QQQ2,,,,,,,,English,2020-06-16_15h39.45.001,Experiment_English,3.2.4,MacIntel,60,,,1,0,340,169,1,339,ratio21_6_9_7.png,,,,,,,,,,,,
,,,,,,,,,,,,Many,Some,Most,Few,Less than half,Half,More than half,None,All,0.05625,0.26,1,0,0,QQQ4,,,,,,,,English,2020-06-16_15h39.45.001,Experiment_English,3.2.4,MacIntel,60,,,1,0,340,131,1,339,ratio15_2_12_14.png,,,,,,,,,,,,
,,,,,,,,,,,,Many,Some,More than half,All,Half,None,Less than half,Most,Few,0.50875,-0.30875,1,0,0,QQQ3,,,,,,,,English,2020-06-16_15h39.45.001,Experiment_English,3.2.4,MacIntel,60,,,1,0,340,178,1,339,ratio21_12_18_2.png,,,,,,,,,,,,
,,,,,,,,,,,,Few,Many,All,More than half,Most,None,Some,Less than half,Half,0.45375,0.2875,1,0,0,QQQ1,,,,,,,,English,2020-06-16_15h39.45.001,Experiment_English,3.2.4,MacIntel,60,,,1,0,340,148,1,339,ratio19_1_10_19.png,,,,,,,,,,,,
,,,,,,,,,,,,Half,Some,Most,All,More than half,Few,Many,Less than half,None,-0.45875,-0.03625,1,0,0,QQQ8,,,,,,,,English,2020-06-16_15h39.45.001,Experiment_English,3.2.4,MacIntel,60,,,1,0,340,259,1,339,ratio34_6_14_19.png,,,,,,,,,,,,
,,,,,,,,,,,,None,Many,Half,Some,More than half,Most,Few,Less than half,All,0.03125,0.2275,1,0,0,QQQ4,,,,,,,,English,2020-06-16_15h39.45.001,Experiment_English,3.2.4,MacIntel,60,,,1,0,340,91,1,339,ratio13_3_12_10.png,,,,,,,,,,,,
,,,,,,,,,,,,All,Few,Less than half,Many,Most,Some,None,More than half,Half,-0.345,0.03375,1,0,0,QQQ8,,,,,,,,English,2020-06-16_15h39.45.001,Experiment_English,3.2.4,MacIntel,60,,,1,0,340,201,1,339,ratio31_3_4_7.png,,,,,,,,,,,,
,,,,,,,,,,,,Less than half,Some,None,More than half,All,Few,Many,Most,Half,0.1175,-0.27375,1,0,0,QQQ6,,,,,,,,English,2020-06-16_15h39.45.001,Experiment_English,3.2.4,MacIntel,60,,,1,0,340,154,1,339,ratio19_2_20_11.png,,,,,,,,,,,,
,,,,,,,,,,,,Less than half,More than half,Half,All,Some,Few,None,Many,Most,-0.44,-0.28625,1,0,0,QQQ9,,,,,,,,English,2020-06-16_15h39.45.001,Experiment_English,3.2.4,MacIntel,60,,,1,0,340,332,1,339,ratio91_18_20_4.png,,,,,,,,,,,,
,,,,,,,,,,,,Few,More than half,Less than half,Half,All,Most,Many,None,Some,0.0525,0.33375,1,0,0,QQQ4,,,,,,,,English,2020-06-16_15h39.45.001,Experiment_English,3.2.4,MacIntel,60,,,1,0,340,186,1,339,ratio23_4_10_2.png,,,,,,,,,,,,
,,,,,,,,,,,,Half,All,None,Many,Few,Some,Less than half,Most,More than half,-0.45625,-0.23125,1,0,0,QQQ9,,,,,,,,English,2020-06-16_15h39.45.001,Experiment_English,3.2.4,MacIntel,60,,,1,0,340,209,1,339,ratio31_9_12_6.png,,,,,,,,,,,,
,,,,,,,,,,,,Less than half,Few,Half,More than half,All,Many,None,Most,Some,0.10375,0.2925,1,0,0,QQQ4,,,,,,,,English,2020-06-16_15h39.45.001,Experiment_English,3.2.4,MacIntel,60,,,1,0,340,294,1,339,ratio43_8_14_9.png,,,,,,,,,,,,
,,,,,,,,,,,,All,Few,Some,Most,More than half,Less than half,None,Many,Half,-0.0475,-0.05875,1,0,0,QQQ5,,,,,,,,English,2020-06-16_15h39.45.001,Experiment_English,3.2.4,MacIntel,60,,,1,0,340,170,1,339,ratio21_6_9_8.png,,,,,,,,,,,,
,,,,,,,,,,,,Half,None,Few,Most,More than half,Some,Less than half,Many,All,0.50125,-0.3125,1,0,0,QQQ3,,,,,,,,English,2020-06-16_15h39.45.001,Experiment_English,3.2.4,MacIntel,60,,,1,0,340,134,1,339,ratio15_3_18_5.png,,,,,,,,,,,,
,,,,,,,,,,,,All,Some,Half,Many,Few,None,Most,Less than half,More than half,-0.49625,0.28875,1,0,0,QQQ7,,,,,,,,English,2020-06-16_15h39.45.001,Experiment_English,3.2.4,MacIntel,60,,,1,0,340,325,1,339,ratio91_9_10_8.png,,,,,,,,,,,,
,,,,,,,,,,,,Few,Less than half,None,Many,Half,Some,Most,More than half,All,0.54125,0.285,1,0,0,QQQ1,,,,,,,,English,2020-06-16_15h39.45.001,Experiment_English,3.2.4,MacIntel,60,,,1,0,340,111,1,339,ratio14_3_15_3.png,,,,,,,,,,,,
,,,,,,,,,,,,Some,Few,None,More than half,Half,Less than half,Most,Many,All,-0.38375,0.22625,1,0,0,QQQ7,,,,,,,,English,2020-06-16_15h39.45.001,Experiment_English,3.2.4,MacIntel,60,,,1,0,340,301,1,339,ratio51_5_6_4.png,,,,,,,,,,,,
,,,,,,,,,,,,Most,More than half,Less than half,All,Half,Some,Many,None,Few,0.51,0.22625,1,0,0,QQQ1,,,,,,,,English,2020-06-16_15h39.45.001,Experiment_English,3.2.4,MacIntel,60,,,1,0,340,333,1,339,ratio91_18_20_6.png,0.31125,-0.36125,1,0,0,continue_button_pause,1,0,1,0,1,0
,,,,,,,,,,,,,,,,,,,,,,,,,,,,,,,,,,English,2020-06-16_15h39.45.001,Experiment_English,3.2.4,MacIntel,60,,,1,0,340,333,1,339,ratio91_18_20_6.png,,,,,,,,,,,,
,,,,,,,,,,,,Many,Less than half,Half,More than half,Few,None,Some,Most,All,0.08625,-0.005,1,0,0,QQQ5,,,,,,,,English,2020-06-16_15h39.45.001,Experiment_English,3.2.4,MacIntel,60,,,1,0,340,135,1,339,ratio15_3_18_7.png,,,,,,,,,,,,
,,,,,,,,,,,,Most,More than half,Some,None,Half,All,Many,Few,Less than half,-0.08,0.02875,1,0,0,QQQ5,,,,,,,,English,2020-06-16_15h39.45.001,Experiment_English,3.2.4,MacIntel,60,,,1,0,340,286,1,339,ratio43_4_7_15.png,,,,,,,,,,,,
,,,,,,,,,,,,None,Some,All,Most,Few,More than half,Half,Many,Less than half,-0.51375,-0.29,1,0,0,QQQ9,,,,,,,,English,2020-06-16_15h39.45.001,Experiment_English,3.2.4,MacIntel,60,,,1,0,340,242,1,339,ratio34_3_7_6.png,,,,,,,,,,,,
,,,,,,,,,,,,Few,All,None,More than half,Half,Some,Less than half,Most,Many,0.57875,0.0725,1,0,0,QQQ2,,,,,,,,English,2020-06-16_15h39.45.001,Experiment_English,3.2.4,MacIntel,60,,,1,0,340,54,1,339,ratioX0_15_15_5.png,,,,,,,,,,,,
,,,,,,,,,,,,Half,None,Few,Some,More than half,Less than half,Most,All,Many,-0.07375,-0.005,1,0,0,QQQ5,,,,,,,,English,2020-06-16_15h39.45.001,Experiment_English,3.2.4,MacIntel,60,,,1,0,340,162,1,339,ratio21_2_3_9.png,,,,,,,,,,,,
,,,,,,,,,,,,More than half,Most,None,Less than half,Some,Half,All,Many,Few,0.4425,0.29,1,0,0,QQQ1,,,,,,,,English,2020-06-16_15h39.45.001,Experiment_English,3.2.4,MacIntel,60,,,1,0,340,221,1,339,ratio32_3_5_3.png,,,,,,,,,,,,
,,,,,,,,,,,,Many,Less than half,Most,Half,None,All,Some,Few,More than half,0.61875,0.05125,1,0,0,QQQ2,,,,,,,,English,2020-06-16_15h39.45.001,Experiment_English,3.2.4,MacIntel,60,,,1,0,340,195,1,339,ratio23_8_20_1.png,,,,,,,,,,,,
,,,,,,,,,,,,Few,Some,Most,Half,More than half,None,Less than half,All,Many,0.0975,0.01625,1,0,0,QQQ5,,,,,,,,English,2020-06-16_15h39.45.001,Experiment_English,3.2.4,MacIntel,60,,,1,0,340,173,1,339,ratio21_8_12_9.png,,,,,,,,,,,,
,,,,,,,,,,,,None,Half,Many,Some,Most,All,More than half,Few,Less than half,-0.08875,0.0125,1,0,0,QQQ5,,,,,,,,English,2020-06-16_15h39.45.001,Experiment_English,3.2.4,MacIntel,60,,,1,0,340,276,1,339,ratio41_16_20_4.png,,,,,,,,,,,,
,,,,,,,,,,,,More than half,Some,Half,Most,Few,Less than half,Many,None,All,0.40875,-0.2825,1,0,0,QQQ3,,,,,,,,English,2020-06-16_15h39.45.001,Experiment_English,3.2.4,MacIntel,60,,,1,0,340,230,1,339,ratio32_9_15_1.png,,,,,,,,,,,,
,,,,,,,,,,,,All,None,Most,Half,Many,More than half,Few,Less than half,Some,-0.3675,-0.04125,1,0,0,QQQ8,,,,,,,,English,2020-06-16_15h39.45.001,Experiment_English,3.2.4,MacIntel,60,,,1,0,340,185,1,339,ratio23_4_10_1.png,,,,,,,,,,,,
,,,,,,,,,,,,More than half,Most,Many,Few,All,Less than half,Some,None,Half,0.39875,0.00375,1,0,0,QQQ2,,,,,,,,English,2020-06-16_15h39.45.001,Experiment_English,3.2.4,MacIntel,60,,,1,0,340,331,1,339,ratio91_18_20_3.png,,,,,,,,,,,,
,,,,,,,,,,,,All,More than half,Half,None,Less than half,Many,Few,Some,Most,0.3725,-0.335,1,0,0,QQQ3,,,,,,,,English,2020-06-16_15h39.45.001,Experiment_English,3.2.4,MacIntel,60,,,1,0,340,257,1,339,ratio34_6_14_12.png,,,,,,,,,,,,
,,,,,,,,,,,,Many,Few,All,More than half,Less than half,Most,None,Half,Some,0.395,-0.07625,1,0,0,QQQ2,,,,,,,,English,2020-06-16_15h39.45.001,Experiment_English,3.2.4,MacIntel,60,,,1,0,340,128,1,339,ratio15_2_12_8.png,,,,,,,,,,,,
,,,,,,,,,,,,Few,All,More than half,Less than half,None,Most,Half,Many,Some,0.48625,0.36,1,0,0,QQQ1,,,,,,,,English,2020-06-16_15h39.45.001,Experiment_English,3.2.4,MacIntel,60,,,1,0,340,117,1,339,ratio14_4_20_6.png,,,,,,,,,,,,
,,,,,,,,,,,,None,More than half,Many,All,Less than half,Some,Half,Few,Most,-0.44,-0.06375,1,0,0,QQQ8,,,,,,,,English,2020-06-16_15h39.45.001,Experiment_English,3.2.4,MacIntel,60,,,1,0,340,240,1,339,ratio34_3_7_4.png,,,,,,,,,,,,
,,,,,,,,,,,,Some,None,Less than half,Most,Half,Few,All,Many,More than half,0.35875,-0.25625,1,0,0,QQQ3,,,,,,,,English,2020-06-16_15h39.45.001,Experiment_English,3.2.4,MacIntel,60,,,1,0,340,254,1,339,ratio34_6_14_9.png,,,,,,,,,,,,
,,,,,,,,,,,,Less than half,Most,Few,Half,None,Some,Many,More than half,All,-0.39,-0.04625,1,0,0,QQQ8,,,,,,,,English,2020-06-16_15h39.45.001,Experiment_English,3.2.4,MacIntel,60,,,1,0,340,239,1,339,ratio32_12_20_10.png,,,,,,,,,,,,
,,,,,,,,,,,,Few,Some,Less than half,None,Most,Half,All,More than half,Many,-0.4375,0.26375,1,0,0,QQQ7,,,,,,,,English,2020-06-16_15h39.45.001,Experiment_English,3.2.4,MacIntel,60,,,1,0,340,53,1,339,ratioX0_14_14_8.png,,,,,,,,,,,,
,,,,,,,,,,,,Less than half,Most,Many,None,Half,Few,All,More than half,Some,-0.425,-0.2425,1,0,0,QQQ9,,,,,,,,English,2020-06-16_15h39.45.001,Experiment_English,3.2.4,MacIntel,60,,,1,0,340,118,1,339,ratio14_4_20_8.png,,,,,,,,,,,,
,,,,,,,,,,,,Half,Less than half,None,Most,All,Some,Few,Many,More than half,0.1025,0.29125,1,0,0,QQQ4,,,,,,,,English,2020-06-16_15h39.45.001,Experiment_English,3.2.4,MacIntel,60,,,1,0,340,215,1,339,ratio31_12_16_8.png,,,,,,,,,,,,
,,,,,,,,,,,,Half,Many,All,None,Few,Most,More than half,Some,Less than half,0.54375,0.34625,1,0,0,QQQ1,,,,,,,,English,2020-06-16_15h39.45.001,Experiment_English,3.2.4,MacIntel,60,,,1,0,340,288,1,339,ratio43_4_7_18.png,,,,,,,,,,,,
,,,,,,,,,,,,Most,Few,All,More than half,Half,Many,Less than half,Some,None,0.475,0.23625,1,0,0,QQQ1,,,,,,,,English,2020-06-16_15h39.45.001,Experiment_English,3.2.4,MacIntel,60,,,1,0,340,319,1,339,ratio51_15_18_20.png,,,,,,,,,,,,
,,,,,,,,,,,,More than half,Less than half,All,Some,Few,Half,None,Many,Most,0.0925,0.025,1,0,0,QQQ5,,,,,,,,English,2020-06-16_15h39.45.001,Experiment_English,3.2.4,MacIntel,60,,,1,0,340,105,1,339,ratio14_2_10_1.png,,,,,,,,,,,,
,,,,,,,,,,,,Some,Few,Less than half,More than half,None,Most,All,Many,Half,0.445,-0.27125,1,0,0,QQQ3,,,,,,,,English,2020-06-16_15h39.45.001,Experiment_English,3.2.4,MacIntel,60,,,1,0,340,255,1,339,ratio34_6_14_10.png,,,,,,,,,,,,
,,,,,,,,,,,,Most,More than half,All,Less than half,None,Many,Half,Few,Some,0.40125,0.25875,1,0,0,QQQ1,,,,,,,,English,2020-06-16_15h39.45.001,Experiment_English,3.2.4,MacIntel,60,,,1,0,340,273,1,339,ratio41_12_15_8.png,,,,,,,,,,,,
,,,,,,,,,,,,More than half,Half,None,Some,All,Few,Less than half,Many,Most,0.41625,0.02125,1,0,0,QQQ2,,,,,,,,English,2020-06-16_15h39.45.001,Experiment_English,3.2.4,MacIntel,60,,,1,0,340,192,1,339,ratio23_6_15_8.png,,,,,,,,,,,,
,,,,,,,,,,,,Few,Some,More than half,Most,Many,None,Half,All,Less than half,0.49625,0.24375,1,0,0,QQQ1,,,,,,,,English,2020-06-16_15h39.45.001,Experiment_English,3.2.4,MacIntel,60,,,1,0,340,123,1,339,ratio15_1_6_12.png,,,,,,,,,,,,
,,,,,,,,,,,,All,None,Some,Less than half,More than half,Half,Many,Few,Most,-0.39,-0.2275,1,0,0,QQQ9,,,,,,,,English,2020-06-16_15h39.45.001,Experiment_English,3.2.4,MacIntel,60,,,1,0,340,262,1,339,ratio41_4_5_4.png,,,,,,,,,,,,
,,,,,,,,,,,,None,Some,Less than half,All,More than half,Few,Half,Most,Many,-0.0025,-0.24125,1,0,0,QQQ6,,,,,,,,English,2020-06-16_15h39.45.001,Experiment_English,3.2.4,MacIntel,60,,,1,0,340,156,1,339,ratio19_2_20_14.png,,,,,,,,,,,,
,,,,,,,,,,,,Most,Half,Some,None,Less than half,All,Few,Many,More than half,-0.4075,0.29,1,0,0,QQQ7,,,,,,,,English,2020-06-16_15h39.45.001,Experiment_English,3.2.4,MacIntel,60,,,1,0,340,89,1,339,ratio13_3_12_6.png,,,,,,,,,,,,
,,,,,,,,,,,,Less than half,None,Some,All,Few,Most,More than half,Half,Many,-0.09875,0.01125,1,0,0,QQQ5,,,,,,,,English,2020-06-16_15h39.45.001,Experiment_English,3.2.4,MacIntel,60,,,1,0,340,86,1,339,ratio13_2_8_6.png,,,,,,,,,,,,
,,,,,,,,,,,,Most,Half,None,Few,Some,More than half,Many,Less than half,All,-0.07125,-0.3175,1,0,0,QQQ6,,,,,,,,English,2020-06-16_15h39.45.001,Experiment_English,3.2.4,MacIntel,60,,,1,0,340,318,1,339,ratio51_15_18_18.png,,,,,,,,,,,,
,,,,,,,,,,,,Few,Some,More than half,All,None,Half,Most,Less than half,Many,0.0575,-0.05,1,0,0,QQQ5,,,,,,,,English,2020-06-16_15h39.45.001,Experiment_English,3.2.4,MacIntel,60,,,1,0,340,77,1,339,ratio0Y_0_18_3.png,0.32875,-0.3625,1,0,0,continue_button_pause,1,0,1,0,1,0
,,,,,,,,,,,,,,,,,,,,,,,,,,,,,,,,,,English,2020-06-16_15h39.45.001,Experiment_English,3.2.4,MacIntel,60,,,1,0,340,77,1,339,ratio0Y_0_18_3.png,,,,,,,,,,,,
,,,,,,,,,,,,Some,Half,All,Few,Most,More than half,None,Many,Less than half,-0.45625,-0.3025,1,0,0,QQQ9,,,,,,,,English,2020-06-16_15h39.45.001,Experiment_English,3.2.4,MacIntel,60,,,1,0,340,181,1,339,ratio23_2_5_6.png,,,,,,,,,,,,
,,,,,,,,,,,,Most,Less than half,Many,Few,Half,All,Some,More than half,None,0.0025,0.3475,1,0,0,QQQ4,,,,,,,,English,2020-06-16_15h39.45.001,Experiment_English,3.2.4,MacIntel,60,,,1,0,340,82,1,339,ratio13_1_4_7.png,,,,,,,,,,,,
,,,,,,,,,,,,Less than half,None,Many,Half,Most,All,Some,Few,More than half,0.475,0.0075,1,0,0,QQQ2,,,,,,,,English,2020-06-16_15h39.45.001,Experiment_English,3.2.4,MacIntel,60,,,1,0,340,78,1,339,ratio0Y_0_19_1.png,,,,,,,,,,,,
,,,,,,,,,,,,Half,Many,None,Most,More than half,Less than half,All,Some,Few,0.4075,-0.28125,1,0,0,QQQ3,,,,,,,,English,2020-06-16_15h39.45.001,Experiment_English,3.2.4,MacIntel,60,,,1,0,340,69,1,339,ratio0Y_0_11_6.png,,,,,,,,,,,,
,,,,,,,,,,,,Few,None,All,More than half,Many,Half,Some,Most,Less than half,0.3425,0.24375,1,0,0,QQQ1,,,,,,,,English,2020-06-16_15h39.45.001,Experiment_English,3.2.4,MacIntel,60,,,1,0,340,83,1,339,ratio13_1_4_10.png,,,,,,,,,,,,
,,,,,,,,,,,,Less than half,Few,None,Half,Most,Some,Many,More than half,All,0.07375,0.24125,1,0,0,QQQ4,,,,,,,,English,2020-06-16_15h39.45.001,Experiment_English,3.2.4,MacIntel,60,,,1,0,340,226,1,339,ratio32_6_10_5.png,,,,,,,,,,,,
,,,,,,,,,,,,Some,Less than half,All,Most,Half,More than half,Few,None,Many,-0.06,0.235,1,0,0,QQQ4,,,,,,,,English,2020-06-16_15h39.45.001,Experiment_English,3.2.4,MacIntel,60,,,1,0,340,200,1,339,ratio31_3_4_4.png,,,,,,,,,,,,
,,,,,,,,,,,,All,Half,Some,Few,Many,None,More than half,Less than half,Most,0.09125,0.29375,1,0,0,QQQ4,,,,,,,,English,2020-06-16_15h39.45.001,Experiment_English,3.2.4,MacIntel,60,,,1,0,340,2,1,339,ratio12_1_3_10.png,,,,,,,,,,,,
,,,,,,,,,,,,Some,Half,Many,Less than half,None,All,Most,Few,More than half,0.10875,-0.02625,1,0,0,QQQ5,,,,,,,,English,2020-06-16_15h39.45.001,Experiment_English,3.2.4,MacIntel,60,,,1,0,340,62,1,339,ratio0Y_0_5_4.png,,,,,,,,,,,,
,,,,,,,,,,,,All,More than half,Many,Most,Some,Less than half,Few,None,Half,0.03375,0.26125,1,0,0,QQQ4,,,,,,,,English,2020-06-16_15h39.45.001,Experiment_English,3.2.4,MacIntel,60,,,1,0,340,328,1,339,ratio91_9_10_15.png,,,,,,,,,,,,
,,,,,,,,,,,,Many,Few,Half,Most,Less than half,All,More than half,None,Some,0,0.2525,1,0,0,QQQ4,,,,,,,,English,2020-06-16_15h39.45.001,Experiment_English,3.2.4,MacIntel,60,,,1,0,340,212,1,339,ratio31_12_16_1.png,,,,,,,,,,,,
,,,,,,,,,,,,None,Half,Many,Less than half,All,Some,Most,Few,More than half,0.56625,0.26,1,0,0,QQQ1,,,,,,,,English,2020-06-16_15h39.45.001,Experiment_English,3.2.4,MacIntel,60,,,1,0,340,74,1,339,ratio0Y_0_15_10.png,,,,,,,,,,,,
,,,,,,,,,,,,Half,None,All,Few,More than half,Some,Most,Less than half,Many,0.47125,-0.26125,1,0,0,QQQ3,,,,,,,,English,2020-06-16_15h39.45.001,Experiment_English,3.2.4,MacIntel,60,,,1,0,340,56,1,339,ratioX0_17_17_10.png,,,,,,,,,,,,
,,,,,,,,,,,,None,Most,Few,Less than half,Some,More than half,Many,Half,All,0.45875,0.31875,1,0,0,QQQ1,,,,,,,,English,2020-06-16_15h39.45.001,Experiment_English,3.2.4,MacIntel,60,,,1,0,340,79,1,339,ratio0Y_0_20_4.png,,,,,,,,,,,,
,,,,,,,,,,,,Many,Some,All,None,Most,Less than half,More than half,Few,Half,-0.4,-0.30375,1,0,0,QQQ9,,,,,,,,English,2020-06-16_15h39.45.001,Experiment_English,3.2.4,MacIntel,60,,,1,0,340,256,1,339,ratio34_6_14_11.png,,,,,,,,,,,,
,,,,,,,,,,,,None,Some,More than half,Less than half,All,Half,Few,Most,Many,0.45,-0.31875,1,0,0,QQQ3,,,,,,,,English,2020-06-16_15h39.45.001,Experiment_English,3.2.4,MacIntel,60,,,1,0,340,222,1,339,ratio32_3_5_4.png,,,,,,,,,,,,
,,,,,,,,,,,,Most,Many,More than half,Less than half,All,Half,None,Few,Some,0.00125,-0.2975,1,0,0,QQQ6,,,,,,,,English,2020-06-16_15h39.45.001,Experiment_English,3.2.4,MacIntel,60,,,1,0,340,290,1,339,ratio43_8_14_3.png,,,,,,,,,,,,
,,,,,,,,,,,,Few,Less than half,Many,More than half,Some,Most,All,None,Half,0.085,-0.295,1,0,0,QQQ6,,,,,,,,English,2020-06-16_15h39.45.001,Experiment_English,3.2.4,MacIntel,60,,,1,0,340,300,1,339,ratio51_5_6_1.png,,,,,,,,,,,,
,,,,,,,,,,,,Many,Most,All,None,Half,Less than half,Some,Few,More than half,0.1275,-0.0625,1,0,0,QQQ5,,,,,,,,English,2020-06-16_15h39.45.001,Experiment_English,3.2.4,MacIntel,60,,,1,0,340,196,1,339,ratio23_8_20_5.png,,,,,,,,,,,,
,,,,,,,,,,,,Some,More than half,Half,Few,Many,Less than half,None,All,Most,0.56875,0.31125,1,0,0,QQQ1,,,,,,,,English,2020-06-16_15h39.45.001,Experiment_English,3.2.4,MacIntel,60,,,1,0,340,92,1,339,ratio13_4_16_3.png,,,,,,,,,,,,
,,,,,,,,,,,,Few,Most,Half,None,More than half,All,Many,Some,Less than half,-0.06125,-0.26,1,0,0,QQQ6,,,,,,,,English,2020-06-16_15h39.45.001,Experiment_English,3.2.4,MacIntel,60,,,1,0,340,48,1,339,ratioX0_10_10_1.png,,,,,,,,,,,,
,,,,,,,,,,,,None,All,Most,Some,Many,Half,More than half,Few,Less than half,-0.12125,-0.325,1,0,0,QQQ6,,,,,,,,English,2020-06-16_15h39.45.001,Experiment_English,3.2.4,MacIntel,60,,,1,0,340,23,1,339,ratio11_3_6_9.png,,,,,,,,,,,,
,,,,,,,,,,,,Most,Few,None,Less than half,Half,More than half,All,Some,Many,0.1075,0.26625,1,0,0,QQQ4,,,,,,,,English,2020-06-16_15h39.45.001,Experiment_English,3.2.4,MacIntel,60,,,1,0,340,188,1,339,ratio23_4_10_6.png,,,,,,,,,,,,
,,,,,,,,,,,,Few,Half,Some,Less than half,All,More than half,Many,Most,None,0.43625,-0.3225,1,0,0,QQQ3,,,,,,,,English,2020-06-16_15h39.45.001,Experiment_English,3.2.4,MacIntel,60,,,1,0,340,116,1,339,ratio14_4_20_3.png,,,,,,,,,,,,
,,,,,,,,,,,,Few,Most,All,Some,Half,Many,Less than half,More than half,None,0.54625,0.295,1,0,0,QQQ1,,,,,,,,English,2020-06-16_15h39.45.001,Experiment_English,3.2.4,MacIntel,60,,,1,0,340,140,1,339,ratio19_1_10_1.png,,,,,,,,,,,,
,,,,,,,,,,,,Few,None,Most,Some,Many,Half,More than half,All,Less than half,-0.3825,-0.305,1,0,0,QQQ9,,,,,,,,English,2020-06-16_15h39.45.001,Experiment_English,3.2.4,MacIntel,60,,,1,0,340,180,1,339,ratio23_2_5_4.png,,,,,,,,,,,,
,,,,,,,,,,,,Few,None,Many,More than half,Less than half,Some,Half,Most,All,-0.4675,0.05375,1,0,0,QQQ8,,,,,,,,English,2020-06-16_15h39.45.001,Experiment_English,3.2.4,MacIntel,60,,,1,0,340,303,1,339,ratio51_5_6_6.png,,,,,,,,,,,,
,,,,,,,,,,,,More than half,Most,Half,Few,Less than half,Some,None,All,Many,0.0625,-0.01125,1,0,0,QQQ5,,,,,,,,English,2020-06-16_15h39.45.001,Experiment_English,3.2.4,MacIntel,60,,,1,0,340,1,1,339,ratio12_1_3_7.png,,,,,,,,,,,,
,,,,,,,,,,,,Many,More than half,Few,Half,Less than half,Some,None,All,Most,-0.4275,-0.01875,1,0,0,QQQ8,,,,,,,,English,2020-06-16_15h39.45.001,Experiment_English,3.2.4,MacIntel,60,,,1,0,340,59,1,339,ratioX0_20_20_9.png,,,,,,,,,,,,
,,,,,,,,,,,,Half,All,Less than half,More than half,Many,Some,Few,None,Most,-0.395,0.29375,1,0,0,QQQ7,,,,,,,,English,2020-06-16_15h39.45.001,Experiment_English,3.2.4,MacIntel,60,,,1,0,340,102,1,339,ratio14_1_5_8.png,,,,,,,,,,,,
,,,,,,,,,,,,Half,Most,None,All,Some,Less than half,More than half,Many,Few,0.51375,0.2675,1,0,0,QQQ1,,,,,,,,English,2020-06-16_15h39.45.001,Experiment_English,3.2.4,MacIntel,60,,,1,0,340,284,1,339,ratio43_4_7_11.png,,,,,,,,,,,,
,,,,,,,,,,,,Half,Most,More than half,None,Some,Less than half,Few,All,Many,0.5575,0.33,1,0,0,QQQ1,,,,,,,,English,2020-06-16_15h39.45.001,Experiment_English,3.2.4,MacIntel,60,,,1,0,340,291,1,339,ratio43_8_14_5.png,,,,,,,,,,,,
,,,,,,,,,,,,Less than half,None,All,Some,Most,Many,More than half,Few,Half,-0.46375,-0.0575,1,0,0,QQQ8,,,,,,,,English,2020-06-16_15h39.45.001,Experiment_English,3.2.4,MacIntel,60,,,1,0,340,143,1,339,ratio19_1_10_9.png,,,,,,,,,,,,
,,,,,,,,,,,,Few,Less than half,More than half,None,Most,All,Many,Half,Some,0.44875,0.3375,1,0,0,QQQ1,,,,,,,,English,2020-06-16_15h39.45.001,Experiment_English,3.2.4,MacIntel,60,,,1,0,340,103,1,339,ratio14_1_5_9.png,0.285,-0.3775,1,0,0,continue_button_pause,1,0,1,0,1,0
,,,,,,,,,,,,,,,,,,,,,,,,,,,,,,,,,,English,2020-06-16_15h39.45.001,Experiment_English,3.2.4,MacIntel,60,,,1,0,340,103,1,339,ratio14_1_5_9.png,,,,,,,,,,,,
,,,,,,,,,,,,More than half,Many,Some,Few,Half,All,Most,Less than half,None,0.41625,0.26375,1,0,0,QQQ1,,,,,,,,English,2020-06-16_15h39.45.001,Experiment_English,3.2.4,MacIntel,60,,,1,0,340,234,1,339,ratio32_9_15_10.png,,,,,,,,,,,,
,,,,,,,,,,,,More than half,None,Many,Some,All,Few,Half,Less than half,Most,-0.45875,-0.04625,1,0,0,QQQ8,,,,,,,,English,2020-06-16_15h39.45.001,Experiment_English,3.2.4,MacIntel,60,,,1,0,340,4,1,339,ratio12_2_6_5.png,,,,,,,,,,,,
,,,,,,,,,,,,All,Few,Less than half,Many,Half,Some,Most,None,More than half,0.08125,-0.05125,1,0,0,QQQ5,,,,,,,,English,2020-06-16_15h39.45.001,Experiment_English,3.2.4,MacIntel,60,,,1,0,340,280,1,339,ratio43_4_7_2.png,,,,,,,,,,,,
,,,,,,,,,,,,Half,Less than half,All,None,More than half,Many,Few,Most,Some,-0.42375,-0.0525,1,0,0,QQQ8,,,,,,,,English,2020-06-16_15h39.45.001,Experiment_English,3.2.4,MacIntel,60,,,1,0,340,308,1,339,ratio51_10_12_9.png,,,,,,,,,,,,
,,,,,,,,,,,,Most,Less than half,Few,Some,Half,None,All,More than half,Many,0.4625,-0.0075,1,0,0,QQQ2,,,,,,,,English,2020-06-16_15h39.45.001,Experiment_English,3.2.4,MacIntel,60,,,1,0,340,11,1,339,ratio12_4_12_7.png,,,,,,,,,,,,
,,,,,,,,,,,,Half,All,Some,None,Most,Less than half,Few,Many,More than half,-0.12375,-0.0325,1,0,0,QQQ5,,,,,,,,English,2020-06-16_15h39.45.001,Experiment_English,3.2.4,MacIntel,60,,,1,0,340,168,1,339,ratio21_6_9_3.png,,,,,,,,,,,,
,,,,,,,,,,,,Some,Few,More than half,Most,Half,Less than half,All,None,Many,-0.10375,-0.03,1,0,0,QQQ5,,,,,,,,English,2020-06-16_15h39.45.001,Experiment_English,3.2.4,MacIntel,60,,,1,0,340,285,1,339,ratio43_4_7_14.png,,,,,,,,,,,,
,,,,,,,,,,,,Less than half,Few,Some,More than half,Most,None,Many,All,Half,-0.62125,-0.02,1,0,0,QQQ8,,,,,,,,English,2020-06-16_15h39.45.001,Experiment_English,3.2.4,MacIntel,60,,,1,0,340,43,1,339,ratioX0_6_6_9.png,,,,,,,,,,,,
,,,,,,,,,,,,All,Less than half,Few,None,Many,Half,Some,Most,More than half,-0.43125,-0.04875,1,0,0,QQQ8,,,,,,,,English,2020-06-16_15h39.45.001,Experiment_English,3.2.4,MacIntel,60,,,1,0,340,160,1,339,ratio21_2_3_2.png,,,,,,,,,,,,
,,,,,,,,,,,,All,Some,None,Less than half,Half,Most,Many,Few,More than half,0.3675,-0.28125,1,0,0,QQQ3,,,,,,,,English,2020-06-16_15h39.45.001,Experiment_English,3.2.4,MacIntel,60,,,1,0,340,71,1,339,ratio0Y_0_12_10.png,,,,,,,,,,,,
,,,,,,,,,,,,None,Most,All,Half,Less than half,Many,Few,More than half,Some,0.075,0.33125,1,0,0,QQQ4,,,,,,,,English,2020-06-16_15h39.45.001,Experiment_English,3.2.4,MacIntel,60,,,1,0,340,38,1,339,ratio11_10_20_5.png,,,,,,,,,,,,
,,,,,,,,,,,,Many,More than half,Most,All,Some,Half,None,Less than half,Few,-0.495,-0.30625,1,0,0,QQQ9,,,,,,,,English,2020-06-16_15h39.45.001,Experiment_English,3.2.4,MacIntel,60,,,1,0,340,101,1,339,ratio14_1_5_7.png,,,,,,,,,,,,
,,,,,,,,,,,,Some,More than half,Less than half,Many,None,Half,Most,All,Few,-0.46125,-0.27125,1,0,0,QQQ9,,,,,,,,English,2020-06-16_15h39.45.001,Experiment_English,3.2.4,MacIntel,60,,,1,0,340,133,1,339,ratio15_3_18_3.png,,,,,,,,,,,,
,,,,,,,,,,,,Most,All,Many,Less than half,Some,Few,More than half,Half,None,0.095,0.34625,1,0,0,QQQ4,,,,,,,,English,2020-06-16_15h39.45.001,Experiment_English,3.2.4,MacIntel,60,,,1,0,340,241,1,339,ratio34_3_7_5.png,,,,,,,,,,,,
,,,,,,,,,,,,More than half,Many,None,Less than half,Half,Few,All,Most,Some,0.04625,-0.04625,1,0,0,QQQ5,,,,,,,,English,2020-06-16_15h39.45.001,Experiment_English,3.2.4,MacIntel,60,,,1,0,340,37,1,339,ratio11_9_18_8.png,,,,,,,,,,,,
,,,,,,,,,,,,Less than half,Most,Half,Some,Few,Many,All,None,More than half,0.0375,0.29875,1,0,0,QQQ4,,,,,,,,English,2020-06-16_15h39.45.001,Experiment_English,3.2.4,MacIntel,60,,,1,0,340,15,1,339,ratio12_5_15_5.png,,,,,,,,,,,,
,,,,,,,,,,,,Many,None,Few,Most,Some,Less than half,All,Half,More than half,-0.42875,-0.3025,1,0,0,QQQ9,,,,,,,,English,2020-06-16_15h39.45.001,Experiment_English,3.2.4,MacIntel,60,,,1,0,340,175,1,339,ratio21_10_15_2.png,,,,,,,,,,,,
,,,,,,,,,,,,Most,None,Less than half,Half,Few,Many,All,More than half,Some,-0.46875,-0.2675,1,0,0,QQQ9,,,,,,,,English,2020-06-16_15h39.45.001,Experiment_English,3.2.4,MacIntel,60,,,1,0,340,13,1,339,ratio12_5_15_3.png,,,,,,,,,,,,
,,,,,,,,,,,,Few,Some,All,Half,None,Many,More than half,Most,Less than half,-0.51375,0.245,1,0,0,QQQ7,,,,,,,,English,2020-06-16_15h39.45.001,Experiment_English,3.2.4,MacIntel,60,,,1,0,340,252,1,339,ratio34_6_14_3.png,,,,,,,,,,,,
,,,,,,,,,,,,Many,Most,Half,Less than half,Some,All,More than half,None,Few,-0.065,0.30125,1,0,0,QQQ4,,,,,,,,English,2020-06-16_15h39.45.001,Experiment_English,3.2.4,MacIntel,60,,,1,0,340,198,1,339,ratio23_8_20_7.png,,,,,,,,,,,,
,,,,,,,,,,,,Less than half,Half,Many,More than half,Few,None,All,Some,Most,-0.04625,0.2975,1,0,0,QQQ4,,,,,,,,English,2020-06-16_15h39.45.001,Experiment_English,3.2.4,MacIntel,60,,,1,0,340,220,1,339,ratio32_3_5_1.png,,,,,,,,,,,,
,,,,,,,,,,,,Half,Some,All,Many,None,Less than half,Most,Few,More than half,0.6075,0.2875,1,0,0,QQQ1,,,,,,,,English,2020-06-16_15h39.45.001,Experiment_English,3.2.4,MacIntel,60,,,1,0,340,20,1,339,ratio11_2_4_3.png,,,,,,,,,,,,
,,,,,,,,,,,,Some,Most,Many,All,Few,Half,Less than half,None,More than half,-0.44125,0.25,1,0,0,QQQ7,,,,,,,,English,2020-06-16_15h39.45.001,Experiment_English,3.2.4,MacIntel,60,,,1,0,340,12,1,339,ratio12_4_12_10.png,,,,,,,,,,,,
,,,,,,,,,,,,Less than half,Many,None,More than half,Few,All,Half,Most,Some,-0.45625,0.33875,1,0,0,QQQ7,,,,,,,,English,2020-06-16_15h39.45.001,Experiment_English,3.2.4,MacIntel,60,,,1,0,340,292,1,339,ratio43_8_14_6.png,,,,,,,,,,,,
,,,,,,,,,,,,Many,None,Most,Less than half,Half,All,More than half,Some,Few,0.50625,-0.07625,1,0,0,QQQ2,,,,,,,,English,2020-06-16_15h39.45.001,Experiment_English,3.2.4,MacIntel,60,,,1,0,340,76,1,339,ratio0Y_0_17_10.png,,,,,,,,,,,,
,,,,,,,,,,,,All,Less than half,None,Most,Many,Few,Some,Half,More than half,0.4125,0.275,1,0,0,QQQ1,,,,,,,,English,2020-06-16_15h39.45.001,Experiment_English,3.2.4,MacIntel,60,,,1,0,340,44,1,339,ratioX0_7_7_5.png,,,,,,,,,,,,
,,,,,,,,,,,,Most,Half,Less than half,More than half,Many,All,Few,Some,None,0.6375,-0.0125,1,0,0,QQQ2,,,,,,,,English,2020-06-16_15h39.45.001,Experiment_English,3.2.4,MacIntel,60,,,1,0,340,36,1,339,ratio11_9_18_1.png,,,,,,,,,,,,
,,,,,,,,,,,,Many,Some,Half,Most,All,Less than half,More than half,Few,None,-0.05875,-0.0425,1,0,0,QQQ5,,,,,,,,English,2020-06-16_15h39.45.001,Experiment_English,3.2.4,MacIntel,60,,,1,0,340,40,1,339,ratioX0_3_3_5.png,,,,,,,,,,,,
,,,,,,,,,,,,Less than half,Many,Some,Most,Few,More than half,None,All,Half,-0.39625,-0.27625,1,0,0,QQQ9,,,,,,,,English,2020-06-16_15h39.45.001,Experiment_English,3.2.4,MacIntel,60,,,1,0,340,258,1,339,ratio34_6_14_14.png,,,,,,,,,,,,
,,,,,,,,,,,,Half,Few,More than half,None,Some,All,Less than half,Many,Most,0.46875,0.325,1,0,0,QQQ1,,,,,,,,English,2020-06-16_15h39.45.001,Experiment_English,3.2.4,MacIntel,60,,,1,0,340,282,1,339,ratio43_4_7_7.png,,,,,,,,,,,,
,,,,,,,,,,,,Few,None,Less than half,Most,Half,Some,Many,More than half,All,0.43125,0.00625,1,0,0,QQQ2,,,,,,,,English,2020-06-16_15h39.45.001,Experiment_English,3.2.4,MacIntel,60,,,1,0,340,67,1,339,ratio0Y_0_10_10.png,,,,,,,,,,,,
,,,,,,,,,,,,Few,Half,More than half,Most,All,Many,None,Some,Less than half,-0.39125,-0.2275,1,0,0,QQQ9,,,,,,,,English,2020-06-16_15h39.45.001,Experiment_English,3.2.4,MacIntel,60,,,1,0,340,18,1,339,ratio12_6_18_7.png,,,,,,,,,,,,
,,,,,,,,,,,,Half,Few,Many,None,More than half,All,Some,Most,Less than half,-0.37,0.04375,1,0,0,QQQ8,,,,,,,,English,2020-06-16_15h39.45.001,Experiment_English,3.2.4,MacIntel,60,,,1,0,340,316,1,339,ratio51_15_18_11.png,,,,,,,,,,,,
,,,,,,,,,,,,Many,Half,More than half,Some,Less than half,None,Few,Most,All,0.5075,0.02375,1,0,0,QQQ2,,,,,,,,English,2020-06-16_15h39.45.001,Experiment_English,3.2.4,MacIntel,60,,,1,0,340,22,1,339,ratio11_3_6_6.png,0.38,-0.3875,1,0,0,continue_button_pause,1,0,1,0,1,0
,,,,,,,,,,,,,,,,,,,,,,,,,,,,,,,,,,English,2020-06-16_15h39.45.001,Experiment_English,3.2.4,MacIntel,60,,,1,0,340,22,1,339,ratio11_3_6_6.png,,,,,,,,,,,,
,,,,,,,,,,,,Less than half,Many,Some,All,Most,None,Few,More than half,Half,-0.41375,-0.2625,1,0,0,QQQ9,,,,,,,,English,2020-06-16_15h39.45.001,Experiment_English,3.2.4,MacIntel,60,,,1,0,340,34,1,339,ratio11_8_16_8.png,,,,,,,,,,,,
,,,,,,,,,,,,More than half,Few,Most,Less than half,Half,Many,All,Some,None,0.6175,-0.0475,1,0,0,QQQ2,,,,,,,,English,2020-06-16_15h39.45.001,Experiment_English,3.2.4,MacIntel,60,,,1,0,340,121,1,339,ratio15_1_6_4.png,,,,,,,,,,,,
,,,,,,,,,,,,Many,Less than half,All,Few,Most,Some,More than half,None,Half,-0.0625,0.25375,1,0,0,QQQ4,,,,,,,,English,2020-06-16_15h39.45.001,Experiment_English,3.2.4,MacIntel,60,,,1,0,340,113,1,339,ratio14_3_15_8.png,,,,,,,,,,,,
,,,,,,,,,,,,Many,Few,None,Half,Less than half,More than half,Some,All,Most,0.0575,0.28125,1,0,0,QQQ4,,,,,,,,English,2020-06-16_15h39.45.001,Experiment_English,3.2.4,MacIntel,60,,,1,0,340,30,1,339,ratio11_6_12_6.png,,,,,,,,,,,,
,,,,,,,,,,,,Most,More than half,All,None,Less than half,Many,Some,Half,Few,0.47375,0.29125,1,0,0,QQQ1,,,,,,,,English,2020-06-16_15h39.45.001,Experiment_English,3.2.4,MacIntel,60,,,1,0,340,339,1,339,ratio91_18_20_19.png,,,,,,,,,,,,
,,,,,,,,,,,,Many,Few,Most,All,More than half,Half,Less than half,Some,None,-0.475,0.35625,1,0,0,QQQ7,,,,,,,,English,2020-06-16_15h39.45.001,Experiment_English,3.2.4,MacIntel,60,,,1,0,340,9,1,339,ratio12_3_9_5.png,,,,,,,,,,,,
,,,,,,,,,,,,Few,All,Half,Some,Many,None,More than half,Less than half,Most,-0.415,-0.27625,1,0,0,QQQ9,,,,,,,,English,2020-06-16_15h39.45.001,Experiment_English,3.2.4,MacIntel,60,,,1,0,340,309,1,339,ratio51_10_12_10.png,,,,,,,,,,,,
,,,,,,,,,,,,More than half,Some,Few,None,Less than half,Many,Most,All,Half,-0.41375,-0.02375,1,0,0,QQQ8,,,,,,,,English,2020-06-16_15h39.45.001,Experiment_English,3.2.4,MacIntel,60,,,1,0,340,51,1,339,ratioX0_12_12_9.png,,,,,,,,,,,,
,,,,,,,,,,,,Most,Few,All,None,Some,Less than half,Many,More than half,Half,-0.6175,-0.3,1,0,0,QQQ9,,,,,,,,English,2020-06-16_15h39.45.001,Experiment_English,3.2.4,MacIntel,60,,,1,0,340,28,1,339,ratio11_5_10_9.png,,,,,,,,,,,,
,,,,,,,,,,,,All,Few,Half,Some,None,Many,More than half,Less than half,Most,-0.57,-0.23875,1,0,0,QQQ9,,,,,,,,English,2020-06-16_15h39.45.001,Experiment_English,3.2.4,MacIntel,60,,,1,0,340,268,1,339,ratio41_8_10_5.png,,,,,,,,,,,,
,,,,,,,,,,,,Many,Most,Less than half,Half,Few,None,All,More than half,Some,-0.05375,0.27125,1,0,0,QQQ4,,,,,,,,English,2020-06-16_15h39.45.001,Experiment_English,3.2.4,MacIntel,60,,,1,0,340,281,1,339,ratio43_4_7_4.png,,,,,,,,,,,,
,,,,,,,,,,,,Many,None,Most,Some,Less than half,More than half,Half,Few,All,-0.515,-0.04125,1,0,0,QQQ8,,,,,,,,English,2020-06-16_15h39.45.001,Experiment_English,3.2.4,MacIntel,60,,,1,0,340,152,1,339,ratio19_2_20_6.png,,,,,,,,,,,,
,,,,,,,,,,,,Half,Most,Some,None,All,More than half,Less than half,Many,Few,0.495,-0.03125,1,0,0,QQQ2,,,,,,,,English,2020-06-16_15h39.45.001,Experiment_English,3.2.4,MacIntel,60,,,1,0,340,327,1,339,ratio91_9_10_11.png,,,,,,,,,,,,
,,,,,,,,,,,,Less than half,Many,Most,All,None,Half,Few,More than half,Some,0.53,-0.24875,1,0,0,QQQ3,,,,,,,,English,2020-06-16_15h39.45.001,Experiment_English,3.2.4,MacIntel,60,,,1,0,340,174,1,339,ratio21_10_15_1.png,,,,,,,,,,,,
,,,,,,,,,,,,None,Half,Less than half,All,Some,More than half,Few,Most,Many,-0.43,0.07875,1,0,0,QQQ8,,,,,,,,English,2020-06-16_15h39.45.001,Experiment_English,3.2.4,MacIntel,60,,,1,0,340,229,1,339,ratio32_6_10_9.png,,,,,,,,,,,,
,,,,,,,,,,,,Half,Many,Less than half,Most,Some,None,More than half,All,Few,-0.35375,-0.32125,1,0,0,QQQ9,,,,,,,,English,2020-06-16_15h39.45.001,Experiment_English,3.2.4,MacIntel,60,,,1,0,340,151,1,339,ratio19_2_20_4.png,,,,,,,,,,,,
,,,,,,,,,,,,Less than half,None,Most,Many,Some,All,Few,Half,More than half,-0.45125,0.03375,1,0,0,QQQ8,,,,,,,,English,2020-06-16_15h39.45.001,Experiment_English,3.2.4,MacIntel,60,,,1,0,340,247,1,339,ratio34_3_7_12.png,,,,,,,,,,,,
,,,,,,,,,,,,Few,Less than half,More than half,Some,Half,Many,Most,None,All,-0.4725,0.2625,1,0,0,QQQ7,,,,,,,,English,2020-06-16_15h39.45.001,Experiment_English,3.2.4,MacIntel,60,,,1,0,340,263,1,339,ratio41_4_5_5.png,,,,,,,,,,,,
,,,,,,,,,,,,Less than half,Many,Half,Some,None,All,Most,Few,More than half,-0.51375,0.0475,1,0,0,QQQ8,,,,,,,,English,2020-06-16_15h39.45.001,Experiment_English,3.2.4,MacIntel,60,,,1,0,340,129,1,339,ratio15_2_12_9.png,,,,,,,,,,,,
,,,,,,,,,,,,More than half,Many,Few,Some,All,Most,Less than half,None,Half,-0.51,-0.27,1,0,0,QQQ9,,,,,,,,English,2020-06-16_15h39.45.001,Experiment_English,3.2.4,MacIntel,60,,,1,0,340,296,1,339,ratio43_8_14_12.png,,,,,,,,,,,,
,,,,,,,,,,,,All,Half,Most,Less than half,Many,Some,Few,None,More than half,0.51875,-0.31625,1,0,0,QQQ3,,,,,,,,English,2020-06-16_15h39.45.001,Experiment_English,3.2.4,MacIntel,60,,,1,0,340,320,1,339,ratio91_9_10_1.png,,,,,,,,,,,,
,,,,,,,,,,,,Most,Many,Half,All,Less than half,Few,None,Some,More than half,0.46875,0.26125,1,0,0,QQQ1,,,,,,,,English,2020-06-16_15h39.45.001,Experiment_English,3.2.4,MacIntel,60,,,1,0,340,202,1,339,ratio31_3_4_8.png,,,,,,,,,,,,
,,,,,,,,,,,,None,Many,Few,Some,Less than half,Most,More than half,Half,All,0.15875,-0.34125,1,0,0,QQQ6,,,,,,,,English,2020-06-16_15h39.45.001,Experiment_English,3.2.4,MacIntel,60,,,1,0,340,317,1,339,ratio51_15_18_13.png,,,,,,,,,,,,
,,,,,,,,,,,,None,Most,Half,All,Few,More than half,Less than half,Some,Many,-0.53125,-0.03375,1,0,0,QQQ8,,,,,,,,English,2020-06-16_15h39.45.001,Experiment_English,3.2.4,MacIntel,60,,,1,0,340,93,1,339,ratio13_4_16_7.png,,,,,,,,,,,,
,,,,,,,,,,,,Some,Half,Less than half,All,Many,More than half,Most,None,Few,0.09125,-0.35375,1,0,0,QQQ6,,,,,,,,English,2020-06-16_15h39.45.001,Experiment_English,3.2.4,MacIntel,60,,,1,0,340,297,1,339,ratio43_8_14_13.png,,,,,,,,,,,,
,,,,,,,,,,,,Less than half,Most,More than half,None,Few,Many,Half,All,Some,0.45375,-0.28375,1,0,0,QQQ3,,,,,,,,English,2020-06-16_15h39.45.001,Experiment_English,3.2.4,MacIntel,60,,,1,0,340,233,1,339,ratio32_9_15_9.png,,,,,,,,,,,,
,,,,,,,,,,,,Half,More than half,Few,Some,All,Most,Less than half,Many,None,-0.00125,-0.31,1,0,0,QQQ6,,,,,,,,English,2020-06-16_15h39.45.001,Experiment_English,3.2.4,MacIntel,60,,,1,0,340,314,1,339,ratio51_15_18_4.png,,,,,,,,,,,,
,,,,,,,,,,,,Most,More than half,Half,Many,None,Some,Less than half,All,Few,0.55125,0.29375,1,0,0,QQQ1,,,,,,,,English,2020-06-16_15h39.45.001,Experiment_English,3.2.4,MacIntel,60,,,1,0,340,338,1,339,ratio91_18_20_18.png,,,,,,,,,,,,
,,,,,,,,,,,,All,More than half,Few,Less than half,Half,None,Most,Many,Some,0.56625,-0.0625,1,0,0,QQQ2,,,,,,,,English,2020-06-16_15h39.45.001,Experiment_English,3.2.4,MacIntel,60,,,1,0,340,211,1,339,ratio31_9_12_10.png,,,,,,,,,,,,
,,,,,,,,,,,,Many,Half,Most,More than half,Few,None,All,Less than half,Some,-0.105,-0.01625,1,0,0,QQQ5,,,,,,,,English,2020-06-16_15h39.45.001,Experiment_English,3.2.4,MacIntel,60,,,1,0,340,158,1,339,ratio19_2_20_17.png,,,,,,,,,,,,
,,,,,,,,,,,,Many,Most,More than half,None,Some,All,Half,Few,Less than half,0.41,0.0025,1,0,0,QQQ2,,,,,,,,English,2020-06-16_15h39.45.001,Experiment_English,3.2.4,MacIntel,60,,,1,0,340,210,1,339,ratio31_9_12_9.png,,,,,,,,,,,,
,,,,,,,,,,,,Half,Few,All,More than half,Most,Many,None,Some,Less than half,0.08375,0.26875,1,0,0,QQQ4,,,,,,,,English,2020-06-16_15h39.45.001,Experiment_English,3.2.4,MacIntel,60,,,1,0,340,238,1,339,ratio32_12_20_9.png,,,,,,,,,,,,
,,,,,,,,,,,,Half,More than half,Less than half,All,Many,Most,None,Few,Some,-0.54625,-0.36125,1,0,0,QQQ9,,,,,,,,English,2020-06-16_15h39.45.001,Experiment_English,3.2.4,MacIntel,60,,,1,0,340,88,1,339,ratio13_3_12_5.png,,,,,,,,,,,,
,,,,,,,,,,,,Few,Many,Some,Most,Half,Less than half,More than half,None,All,-0.0425,0.28125,1,0,0,QQQ4,,,,,,,,English,2020-06-16_15h39.45.001,Experiment_English,3.2.4,MacIntel,60,,,1,0,340,213,1,339,ratio31_12_16_2.png,0.305,-0.3725,1,0,0,continue_button_pause,1,0,1,0,1,0
,,,,,,,,,,,,,,,,,,,,,,,,,,,,,,,,,,English,2020-06-16_15h39.45.001,Experiment_English,3.2.4,MacIntel,60,,,1,0,340,213,1,339,ratio31_12_16_2.png,,,,,,,,,,,,
,,,,,,,,,,,,Less than half,Half,Many,Some,More than half,Most,All,None,Few,-0.38,0.35375,1,0,0,QQQ7,,,,,,,,English,2020-06-16_15h39.45.001,Experiment_English,3.2.4,MacIntel,60,,,1,0,340,52,1,339,ratioX0_13_13_10.png,,,,,,,,,,,,
,,,,,,,,,,,,All,Half,Some,None,Many,Less than half,Most,Few,More than half,0.545,0.02875,1,0,0,QQQ2,,,,,,,,English,2020-06-16_15h39.45.001,Experiment_English,3.2.4,MacIntel,60,,,1,0,340,32,1,339,ratio11_7_14_5.png,,,,,,,,,,,,
,,,,,,,,,,,,Some,Half,Few,Less than half,Many,All,Most,More than half,None,-0.4975,0.26875,1,0,0,QQQ7,,,,,,,,English,2020-06-16_15h39.45.001,Experiment_English,3.2.4,MacIntel,60,,,1,0,340,217,1,339,ratio31_15_20_5.png,,,,,,,,,,,,
,,,,,,,,,,,,Some,All,None,Less than half,Most,Half,Few,Many,More than half,0.095,-0.3025,1,0,0,QQQ6,,,,,,,,English,2020-06-16_15h39.45.001,Experiment_English,3.2.4,MacIntel,60,,,1,0,340,191,1,339,ratio23_6_15_7.png,,,,,,,,,,,,
,,,,,,,,,,,,Half,All,Less than half,More than half,None,Some,Many,Few,Most,-0.49875,0.03125,1,0,0,QQQ8,,,,,,,,English,2020-06-16_15h39.45.001,Experiment_English,3.2.4,MacIntel,60,,,1,0,340,119,1,339,ratio14_4_20_10.png,,,,,,,,,,,,
,,,,,,,,,,,,All,Less than half,Some,None,More than half,Few,Most,Half,Many,-0.465,0.3275,1,0,0,QQQ7,,,,,,,,English,2020-06-16_15h39.45.001,Experiment_English,3.2.4,MacIntel,60,,,1,0,340,311,1,339,ratio51_10_12_14.png,,,,,,,,,,,,
,,,,,,,,,,,,More than half,Some,Few,Most,Less than half,Many,Half,All,None,-0.06875,0.29,1,0,0,QQQ4,,,,,,,,English,2020-06-16_15h39.45.001,Experiment_English,3.2.4,MacIntel,60,,,1,0,340,271,1,339,ratio41_12_15_6.png,,,,,,,,,,,,
,,,,,,,,,,,,Few,Most,Half,All,Many,Less than half,More than half,None,Some,-0.09375,-0.325,1,0,0,QQQ6,,,,,,,,English,2020-06-16_15h39.45.001,Experiment_English,3.2.4,MacIntel,60,,,1,0,340,10,1,339,ratio12_4_12_4.png,,,,,,,,,,,,
,,,,,,,,,,,,Less than half,Most,Few,Some,None,More than half,Many,All,Half,0.38875,0.385,1,0,0,QQQ1,,,,,,,,English,2020-06-16_15h39.45.001,Experiment_English,3.2.4,MacIntel,60,,,1,0,340,199,1,339,ratio23_8_20_8.png,,,,,,,,,,,,
,,,,,,,,,,,,Few,Many,Less than half,All,Most,Half,More than half,Some,None,-0.11375,-0.23125,1,0,0,QQQ6,,,,,,,,English,2020-06-16_15h39.45.001,Experiment_English,3.2.4,MacIntel,60,,,1,0,340,287,1,339,ratio43_4_7_17.png,,,,,,,,,,,,
,,,,,,,,,,,,Most,Less than half,Many,More than half,Some,None,Few,Half,All,-0.45125,0.23,1,0,0,QQQ7,,,,,,,,English,2020-06-16_15h39.45.001,Experiment_English,3.2.4,MacIntel,60,,,1,0,340,147,1,339,ratio19_1_10_18.png,,,,,,,,,,,,
,,,,,,,,,,,,More than half,Less than half,Few,Some,All,None,Half,Most,Many,-0.44125,0.0175,1,0,0,QQQ8,,,,,,,,English,2020-06-16_15h39.45.001,Experiment_English,3.2.4,MacIntel,60,,,1,0,340,305,1,339,ratio51_5_6_14.png,,,,,,,,,,,,
,,,,,,,,,,,,Some,More than half,Most,Many,All,None,Few,Less than half,Half,0.5625,-0.36125,1,0,0,QQQ3,,,,,,,,English,2020-06-16_15h39.45.001,Experiment_English,3.2.4,MacIntel,60,,,1,0,340,205,1,339,ratio31_6_8_2.png,,,,,,,,,,,,
,,,,,,,,,,,,All,Few,Half,Less than half,Most,None,More than half,Many,Some,0.02625,-0.225,1,0,0,QQQ6,,,,,,,,English,2020-06-16_15h39.45.001,Experiment_English,3.2.4,MacIntel,60,,,1,0,340,75,1,339,ratio0Y_0_16_10.png,,,,,,,,,,,,
,,,,,,,,,,,,Some,Few,All,Less than half,Half,None,Many,More than half,Most,-0.475,-0.2675,1,0,0,QQQ9,,,,,,,,English,2020-06-16_15h39.45.001,Experiment_English,3.2.4,MacIntel,60,,,1,0,340,269,1,339,ratio41_8_10_6.png,,,,,,,,,,,,
,,,,,,,,,,,,Few,Most,All,None,Many,Half,More than half,Less than half,Some,0.4025,0.07375,1,0,0,QQQ2,,,,,,,,English,2020-06-16_15h39.45.001,Experiment_English,3.2.4,MacIntel,60,,,1,0,340,214,1,339,ratio31_12_16_5.png,,,,,,,,,,,,
,,,,,,,,,,,,Many,All,Few,More than half,Half,None,Some,Most,Less than half,0.52,-0.27875,1,0,0,QQQ3,,,,,,,,English,2020-06-16_15h39.45.001,Experiment_English,3.2.4,MacIntel,60,,,1,0,340,130,1,339,ratio15_2_12_12.png,,,,,,,,,,,,
,,,,,,,,,,,,Many,Half,More than half,Most,Few,All,None,Less than half,Some,0.14,-0.0425,1,0,0,QQQ5,,,,,,,,English,2020-06-16_15h39.45.001,Experiment_English,3.2.4,MacIntel,60,,,1,0,340,155,1,339,ratio19_2_20_13.png,,,,,,,,,,,,
,,,,,,,,,,,,Few,Half,None,Most,Many,Some,Less than half,All,More than half,-0.00875,0.27875,1,0,0,QQQ4,,,,,,,,English,2020-06-16_15h39.45.001,Experiment_English,3.2.4,MacIntel,60,,,1,0,340,322,1,339,ratio91_9_10_3.png,,,,,,,,,,,,
,,,,,,,,,,,,Many,More than half,Half,Less than half,Most,Few,Some,None,All,0.4875,-0.28375,1,0,0,QQQ3,,,,,,,,English,2020-06-16_15h39.45.001,Experiment_English,3.2.4,MacIntel,60,,,1,0,340,19,1,339,ratio12_6_18_9.png,,,,,,,,,,,,
,,,,,,,,,,,,Some,More than half,Most,Less than half,Many,Half,Few,All,None,0.47625,0.035,1,0,0,QQQ2,,,,,,,,English,2020-06-16_15h39.45.001,Experiment_English,3.2.4,MacIntel,60,,,1,0,340,33,1,339,ratio11_7_14_8.png,,,,,,,,,,,,
,,,,,,,,,,,,Some,Less than half,Half,All,Few,More than half,Most,Many,None,-0.44125,0.29625,1,0,0,QQQ7,,,,,,,,English,2020-06-16_15h39.45.001,Experiment_English,3.2.4,MacIntel,60,,,1,0,340,323,1,339,ratio91_9_10_5.png,,,,,,,,,,,,
,,,,,,,,,,,,None,Less than half,Many,More than half,Few,Some,Half,All,Most,-0.4325,0.33125,1,0,0,QQQ7,,,,,,,,English,2020-06-16_15h39.45.001,Experiment_English,3.2.4,MacIntel,60,,,1,0,340,250,1,339,ratio34_6_14_1.png,,,,,,,,,,,,
,,,,,,,,,,,,Half,All,None,Less than half,Most,Many,Few,More than half,Some,0.01125,-0.02875,1,0,0,QQQ5,,,,,,,,English,2020-06-16_15h39.45.001,Experiment_English,3.2.4,MacIntel,60,,,1,0,340,277,1,339,ratio41_16_20_8.png,,,,,,,,,,,,
,,,,,,,,,,,,Many,Less than half,None,Few,Half,Most,All,More than half,Some,-0.3825,0.08125,1,0,0,QQQ8,,,,,,,,English,2020-06-16_15h39.45.001,Experiment_English,3.2.4,MacIntel,60,,,1,0,340,176,1,339,ratio21_10_15_3.png,,,,,,,,,,,,
,,,,,,,,,,,,Some,All,Few,Many,Less than half,None,Most,Half,More than half,0.045,-0.30875,1,0,0,QQQ6,,,,,,,,English,2020-06-16_15h39.45.001,Experiment_English,3.2.4,MacIntel,60,,,1,0,340,65,1,339,ratio0Y_0_8_4.png,,,,,,,,,,,,
,,,,,,,,,,,,Less than half,Half,Few,Some,None,Most,Many,More than half,All,0.02375,-0.03375,1,0,0,QQQ5,,,,,,,,English,2020-06-16_15h39.45.001,Experiment_English,3.2.4,MacIntel,60,,,1,0,340,60,1,339,ratio0Y_0_3_5.png,,,,,,,,,,,,
,,,,,,,,,,,,Many,None,Most,Half,All,Few,Less than half,More than half,Some,0.49625,-0.36625,1,0,0,QQQ3,,,,,,,,English,2020-06-16_15h39.45.001,Experiment_English,3.2.4,MacIntel,60,,,1,0,340,302,1,339,ratio51_5_6_5.png,,,,,,,,,,,,
,,,,,,,,,,,,Half,Many,Few,Less than half,More than half,Most,All,None,Some,0.415,-0.36875,1,0,0,QQQ3,,,,,,,,English,2020-06-16_15h39.45.001,Experiment_English,3.2.4,MacIntel,60,,,1,0,340,108,1,339,ratio14_2_10_6.png,,,,,,,,,,,,
,,,,,,,,,,,,Less than half,Few,Most,More than half,All,Half,Some,None,Many,0.475,0.005,1,0,0,QQQ2,,,,,,,,English,2020-06-16_15h39.45.001,Experiment_English,3.2.4,MacIntel,60,,,1,0,340,127,1,339,ratio15_2_12_2.png,,,,,,,,,,,,
,,,,,,,,,,,,None,Few,More than half,Less than half,All,Many,Half,Most,Some,-0.425,-0.0525,1,0,0,QQQ8,,,,,,,,English,2020-06-16_15h39.45.001,Experiment_English,3.2.4,MacIntel,60,,,1,0,340,315,1,339,ratio51_15_18_10.png,,,,,,,,,,,,
,,,,,,,,,,,,Many,More than half,Half,Less than half,Most,Few,Some,All,None,0.12,-0.00375,1,0,0,QQQ5,,,,,,,,English,2020-06-16_15h39.45.001,Experiment_English,3.2.4,MacIntel,60,,,1,0,340,206,1,339,ratio31_6_8_6.png,,,,,,,,,,,,
,,,,,,,,,,,,Some,Half,Most,Few,None,All,Many,More than half,Less than half,-0.12375,0.39625,1,0,0,QQQ4,,,,,,,,English,2020-06-16_15h39.45.001,Experiment_English,3.2.4,MacIntel,60,,,1,0,340,114,1,339,ratio14_3_15_10.png,,,,,,,,,,,,
,,,,,,,,,,,,Few,Most,None,Less than half,Many,Some,More than half,Half,All,0.4525,0.2525,1,0,0,QQQ1,,,,,,,,English,2020-06-16_15h39.45.001,Experiment_English,3.2.4,MacIntel,60,,,1,0,340,144,1,339,ratio19_1_10_11.png,0.3425,-0.4075,1,0,0,continue_button_pause,1,0,1,0,1,0
,,,,,,,,,,,,,,,,,,,,,,,,,,,,,,,,,,English,2020-06-16_15h39.45.001,Experiment_English,3.2.4,MacIntel,60,,,1,0,340,144,1,339,ratio19_1_10_11.png,,,,,,,,,,,,
,,,,,,,,,,,,Half,Most,None,More than half,Less than half,All,Many,Few,Some,0.53625,0.34125,1,0,0,QQQ1,,,,,,,,English,2020-06-16_15h39.45.001,Experiment_English,3.2.4,MacIntel,60,,,1,0,340,21,1,339,ratio11_2_4_10.png,,,,,,,,,,,,
,,,,,,,,,,,,Many,Less than half,None,Half,Some,Most,Few,All,More than half,-0.14,-0.29875,1,0,0,QQQ6,,,,,,,,English,2020-06-16_15h39.45.001,Experiment_English,3.2.4,MacIntel,60,,,1,0,340,177,1,339,ratio21_12_18_1.png,,,,,,,,,,,,
,,,,,,,,,,,,Many,None,Few,Less than half,Some,Most,All,Half,More than half,-0.4925,0.015,1,0,0,QQQ8,,,,,,,,English,2020-06-16_15h39.45.001,Experiment_English,3.2.4,MacIntel,60,,,1,0,340,27,1,339,ratio11_5_10_7.png,,,,,,,,,,,,
,,,,,,,,,,,,Some,Many,Few,More than half,Less than half,Half,Most,All,None,0.36875,-0.24875,1,0,0,QQQ3,,,,,,,,English,2020-06-16_15h39.45.001,Experiment_English,3.2.4,MacIntel,60,,,1,0,340,153,1,339,ratio19_2_20_8.png,,,,,,,,,,,,
,,,,,,,,,,,,Some,Many,All,Half,Less than half,None,Few,Most,More than half,0.04125,0.0175,1,0,0,QQQ5,,,,,,,,English,2020-06-16_15h39.45.001,Experiment_English,3.2.4,MacIntel,60,,,1,0,340,16,1,339,ratio12_5_15_6.png,,,,,,,,,,,,
,,,,,,,,,,,,Most,Many,Less than half,Half,More than half,All,Some,Few,None,-0.0575,0.34875,1,0,0,QQQ4,,,,,,,,English,2020-06-16_15h39.45.001,Experiment_English,3.2.4,MacIntel,60,,,1,0,340,237,1,339,ratio32_12_20_5.png,,,,,,,,,,,,
,,,,,,,,,,,,Some,Few,Many,Less than half,Most,Half,All,More than half,None,0.4625,0.07375,1,0,0,QQQ2,,,,,,,,English,2020-06-16_15h39.45.001,Experiment_English,3.2.4,MacIntel,60,,,1,0,340,85,1,339,ratio13_2_8_5.png,,,,,,,,,,,,
,,,,,,,,,,,,None,Some,Many,Less than half,All,Most,More than half,Few,Half,-0.04,-0.3225,1,0,0,QQQ6,,,,,,,,English,2020-06-16_15h39.45.001,Experiment_English,3.2.4,MacIntel,60,,,1,0,340,313,1,339,ratio51_15_18_2.png,,,,,,,,,,,,
,,,,,,,,,,,,Some,Many,None,All,Half,Few,Less than half,More than half,Most,-0.075,0.29875,1,0,0,QQQ4,,,,,,,,English,2020-06-16_15h39.45.001,Experiment_English,3.2.4,MacIntel,60,,,1,0,340,58,1,339,ratioX0_19_19_4.png,,,,,,,,,,,,
,,,,,,,,,,,,None,Few,Most,Less than half,Many,Some,More than half,All,Half,0.6075,-0.29125,1,0,0,QQQ3,,,,,,,,English,2020-06-16_15h39.45.001,Experiment_English,3.2.4,MacIntel,60,,,1,0,340,208,1,339,ratio31_9_12_3.png,,,,,,,,,,,,
,,,,,,,,,,,,Few,None,Half,Many,Most,Some,Less than half,All,More than half,-0.125,0.05625,1,0,0,QQQ5,,,,,,,,English,2020-06-16_15h39.45.001,Experiment_English,3.2.4,MacIntel,60,,,1,0,340,278,1,339,ratio41_16_20_9.png,,,,,,,,,,,,
,,,,,,,,,,,,Half,Some,Few,All,More than half,Less than half,None,Most,Many,0.44375,0.31875,1,0,0,QQQ1,,,,,,,,English,2020-06-16_15h39.45.001,Experiment_English,3.2.4,MacIntel,60,,,1,0,340,6,1,339,ratio12_3_9_1.png,,,,,,,,,,,,
,,,,,,,,,,,,More than half,Half,Some,Many,None,Few,Most,All,Less than half,-0.40625,0.2325,1,0,0,QQQ7,,,,,,,,English,2020-06-16_15h39.45.001,Experiment_English,3.2.4,MacIntel,60,,,1,0,340,336,1,339,ratio91_18_20_12.png,,,,,,,,,,,,
,,,,,,,,,,,,All,None,Some,Less than half,Most,Few,More than half,Many,Half,-0.0325,-0.05875,1,0,0,QQQ5,,,,,,,,English,2020-06-16_15h39.45.001,Experiment_English,3.2.4,MacIntel,60,,,1,0,340,270,1,339,ratio41_12_15_3.png,,,,,,,,,,,,
,,,,,,,,,,,,Many,Less than half,None,Most,Some,More than half,Half,All,Few,-0.47125,0.27,1,0,0,QQQ7,,,,,,,,English,2020-06-16_15h39.45.001,Experiment_English,3.2.4,MacIntel,60,,,1,0,340,283,1,339,ratio43_4_7_8.png,,,,,,,,,,,,
,,,,,,,,,,,,Few,Most,None,Many,Less than half,More than half,All,Some,Half,-0.005,-0.2575,1,0,0,QQQ6,,,,,,,,English,2020-06-16_15h39.45.001,Experiment_English,3.2.4,MacIntel,60,,,1,0,340,236,1,339,ratio32_12_20_2.png,,,,,,,,,,,,
,,,,,,,,,,,,Most,Half,None,Few,Many,Some,All,Less than half,More than half,-0.58875,0.00125,1,0,0,QQQ8,,,,,,,,English,2020-06-16_15h39.45.001,Experiment_English,3.2.4,MacIntel,60,,,1,0,340,184,1,339,ratio23_2_5_10.png,,,,,,,,,,,,
,,,,,,,,,,,,Many,All,None,Some,Half,More than half,Less than half,Few,Most,0.045,0.0625,1,0,0,QQQ5,,,,,,,,English,2020-06-16_15h39.45.001,Experiment_English,3.2.4,MacIntel,60,,,1,0,340,235,1,339,ratio32_12_20_1.png,,,,,,,,,,,,
,,,,,,,,,,,,None,Half,Some,Few,Most,More than half,Many,All,Less than half,-0.5775,0.02625,1,0,0,QQQ8,,,,,,,,English,2020-06-16_15h39.45.001,Experiment_English,3.2.4,MacIntel,60,,,1,0,340,47,1,339,ratioX0_9_9_4.png,,,,,,,,,,,,
,,,,,,,,,,,,All,Most,Some,More than half,Many,Half,Less than half,Few,None,0.42625,0.0025,1,0,0,QQQ2,,,,,,,,English,2020-06-16_15h39.45.001,Experiment_English,3.2.4,MacIntel,60,,,1,0,340,267,1,339,ratio41_8_10_4.png,,,,,,,,,,,,
,,,,,,,,,,,,All,Less than half,More than half,Many,None,Most,Few,Some,Half,0.36,-0.29,1,0,0,QQQ3,,,,,,,,English,2020-06-16_15h39.45.001,Experiment_English,3.2.4,MacIntel,60,,,1,0,340,164,1,339,ratio21_4_6_6.png,,,,,,,,,,,,
,,,,,,,,,,,,Half,None,Some,Less than half,Most,All,Many,Few,More than half,0.49,0.01125,1,0,0,QQQ2,,,,,,,,English,2020-06-16_15h39.45.001,Experiment_English,3.2.4,MacIntel,60,,,1,0,340,70,1,339,ratio0Y_0_12_5.png,,,,,,,,,,,,
,,,,,,,,,,,,Many,All,More than half,Less than half,Half,Few,None,Most,Some,0.08375,-0.08875,1,0,0,QQQ5,,,,,,,,English,2020-06-16_15h39.45.001,Experiment_English,3.2.4,MacIntel,60,,,1,0,340,227,1,339,ratio32_6_10_6.png,,,,,,,,,,,,
,,,,,,,,,,,,Few,More than half,None,Less than half,All,Most,Half,Some,Many,0.02625,0.24375,1,0,0,QQQ4,,,,,,,,English,2020-06-16_15h39.45.001,Experiment_English,3.2.4,MacIntel,60,,,1,0,340,35,1,339,ratio11_8_16_10.png,,,,,,,,,,,,
,,,,,,,,,,,,Some,Half,None,Less than half,Most,Many,More than half,All,Few,-0.4325,0.295,1,0,0,QQQ7,,,,,,,,English,2020-06-16_15h39.45.001,Experiment_English,3.2.4,MacIntel,60,,,1,0,340,223,1,339,ratio32_3_5_5.png,,,,,,,,,,,,
,,,,,,,,,,,,Most,All,Few,Half,None,Many,Less than half,Some,More than half,-0.46875,0.06,1,0,0,QQQ8,,,,,,,,English,2020-06-16_15h39.45.001,Experiment_English,3.2.4,MacIntel,60,,,1,0,340,98,1,339,ratio13_5_20_3.png,,,,,,,,,,,,
,,,,,,,,,,,,Half,More than half,None,Most,Many,All,Some,Few,Less than half,0.4225,-0.07,1,0,0,QQQ2,,,,,,,,English,2020-06-16_15h39.45.001,Experiment_English,3.2.4,MacIntel,60,,,1,0,340,166,1,339,ratio21_6_9_1.png,,,,,,,,,,,,
,,,,,,,,,,,,Many,All,Half,Most,More than half,Some,Less than half,None,Few,0.05,-0.01,1,0,0,QQQ5,,,,,,,,English,2020-06-16_15h39.45.001,Experiment_English,3.2.4,MacIntel,60,,,1,0,340,163,1,339,ratio21_4_6_1.png,,,,,,,,,,,,
,,,,,,,,,,,,Half,Some,Most,All,None,Few,More than half,Less than half,Many,0.4,-0.275,1,0,0,QQQ3,,,,,,,,English,2020-06-16_15h39.45.001,Experiment_English,3.2.4,MacIntel,60,,,1,0,340,171,1,339,ratio21_8_12_4.png,,,,,,,,,,,,
,,,,,,,,,,,,Less than half,Most,All,None,Half,Some,Many,Few,More than half,-0.045,0.28625,1,0,0,QQQ4,,,,,,,,English,2020-06-16_15h39.45.001,Experiment_English,3.2.4,MacIntel,60,,,1,0,340,66,1,339,ratio0Y_0_9_8.png,,,,,,,,,,,,
,,,,,,,,,,,,Less than half,Many,More than half,Most,Few,None,Half,Some,All,-0.385,0.2825,1,0,0,QQQ7,,,,,,,,English,2020-06-16_15h39.45.001,Experiment_English,3.2.4,MacIntel,60,,,1,0,340,39,1,339,ratio11_10_20_6.png,,,,,,,,,,,,
,,,,,,,,,,,,None,More than half,Most,Few,All,Half,Many,Some,Less than half,0.0175,-0.0375,1,0,0,QQQ5,,,,,,,,English,2020-06-16_15h39.45.001,Experiment_English,3.2.4,MacIntel,60,,,1,0,340,49,1,339,ratioX0_11_11_2.png,,,,,,,,,,,,
,,,,,,,,,,,,None,All,More than half,Many,Some,Less than half,Half,Most,Few,-0.0375,-0.39375,1,0,0,QQQ6,,,,,,,,English,2020-06-16_15h39.45.001,Experiment_English,3.2.4,MacIntel,60,,,1,0,340,5,1,339,ratio12_2_6_9.png,,,,,,,,,,,,
,,,,,,,,,,,,Few,Half,Most,None,All,Less than half,Some,More than half,Many,-0.44125,0.3575,1,0,0,QQQ7,,,,,,,,English,2020-06-16_15h39.45.001,Experiment_English,3.2.4,MacIntel,60,,,1,0,340,90,1,339,ratio13_3_12_7.png,0.295,-0.36125,1,0,0,continue_button_pause,1,0,1,0,1,0
,,,,,,,,,,,,,,,,,,,,,,,,,,,,,,,,,,English,2020-06-16_15h39.45.001,Experiment_English,3.2.4,MacIntel,60,,,1,0,340,90,1,339,ratio13_3_12_7.png,,,,,,,,,,,,
,,,,,,,,,,,,Less than half,Most,More than half,Many,Some,Half,All,Few,None,0.465,0.02125,1,0,0,QQQ2,,,,,,,,English,2020-06-16_15h39.45.001,Experiment_English,3.2.4,MacIntel,60,,,1,0,340,272,1,339,ratio41_12_15_7.png,,,,,,,,,,,,
,,,,,,,,,,,,More than half,Less than half,Many,Half,None,Few,Most,Some,All,0.02875,0.05375,1,0,0,QQQ5,,,,,,,,English,2020-06-16_15h39.45.001,Experiment_English,3.2.4,MacIntel,60,,,1,0,340,63,1,339,ratio0Y_0_6_8.png,,,,,,,,,,,,
,,,,,,,,,,,,None,More than half,Some,Many,Less than half,Most,All,Few,Half,0.07625,-0.24125,1,0,0,QQQ6,,,,,,,,English,2020-06-16_15h39.45.001,Experiment_English,3.2.4,MacIntel,60,,,1,0,340,225,1,339,ratio32_6_10_4.png,,,,,,,,,,,,
,,,,,,,,,,,,Most,Some,Half,Less than half,All,None,Few,Many,More than half,0.445,-0.065,1,0,0,QQQ2,,,,,,,,English,2020-06-16_15h39.45.001,Experiment_English,3.2.4,MacIntel,60,,,1,0,340,137,1,339,ratio15_3_18_16.png,,,,,,,,,,,,
,,,,,,,,,,,,None,Few,More than half,Less than half,All,Some,Most,Many,Half,-0.44375,0.28125,1,0,0,QQQ7,,,,,,,,English,2020-06-16_15h39.45.001,Experiment_English,3.2.4,MacIntel,60,,,1,0,340,334,1,339,ratio91_18_20_9.png,,,,,,,,,,,,
,,,,,,,,,,,,None,Half,All,Few,More than half,Less than half,Most,Some,Many,-0.43375,0.2975,1,0,0,QQQ7,,,,,,,,English,2020-06-16_15h39.45.001,Experiment_English,3.2.4,MacIntel,60,,,1,0,340,218,1,339,ratio31_15_20_7.png,,,,,,,,,,,,
,,,,,,,,,,,,Half,Few,Most,All,None,More than half,Less than half,Some,Many,0.4375,0.0725,1,0,0,QQQ2,,,,,,,,English,2020-06-16_15h39.45.001,Experiment_English,3.2.4,MacIntel,60,,,1,0,340,157,1,339,ratio19_2_20_16.png,,,,,,,,,,,,
,,,,,,,,,,,,Many,Few,Half,Most,More than half,Some,Less than half,None,All,-0.44375,0.25375,1,0,0,QQQ7,,,,,,,,English,2020-06-16_15h39.45.001,Experiment_English,3.2.4,MacIntel,60,,,1,0,340,29,1,339,ratio11_6_12_1.png,,,,,,,,,,,,
,,,,,,,,,,,,Many,None,All,More than half,Less than half,Some,Half,Few,Most,-0.0925,0.05875,1,0,0,QQQ5,,,,,,,,English,2020-06-16_15h39.45.001,Experiment_English,3.2.4,MacIntel,60,,,1,0,340,17,1,339,ratio12_6_18_5.png,,,,,,,,,,,,
,,,,,,,,,,,,Less than half,Most,Few,Half,Many,All,Some,None,More than half,-0.005,0.36875,1,0,0,QQQ4,,,,,,,,English,2020-06-16_15h39.45.001,Experiment_English,3.2.4,MacIntel,60,,,1,0,340,193,1,339,ratio23_6_15_9.png,,,,,,,,,,,,
,,,,,,,,,,,,None,All,Many,Few,More than half,Most,Less than half,Half,Some,-0.14625,0.04125,1,0,0,QQQ5,,,,,,,,English,2020-06-16_15h39.45.001,Experiment_English,3.2.4,MacIntel,60,,,1,0,340,295,1,339,ratio43_8_14_11.png,,,,,,,,,,,,
,,,,,,,,,,,,Few,Most,More than half,Less than half,Some,Half,All,Many,None,-0.02125,0.04375,1,0,0,QQQ5,,,,,,,,English,2020-06-16_15h39.45.001,Experiment_English,3.2.4,MacIntel,60,,,1,0,340,115,1,339,ratio14_4_20_1.png,,,,,,,,,,,,
,,,,,,,,,,,,Few,Half,None,All,Most,Some,More than half,Many,Less than half,0.11875,-0.27,1,0,0,QQQ6,,,,,,,,English,2020-06-16_15h39.45.001,Experiment_English,3.2.4,MacIntel,60,,,1,0,340,96,1,339,ratio13_5_20_1.png,,,,,,,,,,,,
,,,,,,,,,,,,All,Some,Many,None,Half,Less than half,Few,Most,More than half,-0.4525,-0.04875,1,0,0,QQQ8,,,,,,,,English,2020-06-16_15h39.45.001,Experiment_English,3.2.4,MacIntel,60,,,1,0,340,266,1,339,ratio41_8_10_2.png,,,,,,,,,,,,
,,,,,,,,,,,,Less than half,Most,Many,Some,Half,None,More than half,Few,All,-0.0425,-0.0325,1,0,0,QQQ5,,,,,,,,English,2020-06-16_15h39.45.001,Experiment_English,3.2.4,MacIntel,60,,,1,0,340,243,1,339,ratio34_3_7_8.png,,,,,,,,,,,,
,,,,,,,,,,,,None,Less than half,All,Most,Some,Many,Few,More than half,Half,0.51875,0.25,1,0,0,QQQ1,,,,,,,,English,2020-06-16_15h39.45.001,Experiment_English,3.2.4,MacIntel,60,,,1,0,340,68,1,339,ratio0Y_0_11_3.png,,,,,,,,,,,,
,,,,,,,,,,,,Half,All,None,Many,Some,Few,Most,More than half,Less than half,-0.41625,-0.2425,1,0,0,QQQ9,,,,,,,,English,2020-06-16_15h39.45.001,Experiment_English,3.2.4,MacIntel,60,,,1,0,340,8,1,339,ratio12_3_9_4.png,,,,,,,,,,,,
,,,,,,,,,,,,None,All,More than half,Half,Less than half,Some,Many,Most,Few,-0.35125,-0.30125,1,0,0,QQQ9,,,,,,,,English,2020-06-16_15h39.45.001,Experiment_English,3.2.4,MacIntel,60,,,1,0,340,329,1,339,ratio91_9_10_20.png,,,,,,,,,,,,
,,,,,,,,,,,,All,Many,Half,Few,More than half,Most,Some,None,Less than half,-0.00875,0.28125,1,0,0,QQQ4,,,,,,,,English,2020-06-16_15h39.45.001,Experiment_English,3.2.4,MacIntel,60,,,1,0,340,107,1,339,ratio14_2_10_5.png,,,,,,,,,,,,
,,,,,,,,,,,,More than half,Few,Many,Some,None,Less than half,Most,All,Half,0.5825,0.29125,1,0,0,QQQ1,,,,,,,,English,2020-06-16_15h39.45.001,Experiment_English,3.2.4,MacIntel,60,,,1,0,340,224,1,339,ratio32_3_5_10.png,,,,,,,,,,,,
,,,,,,,,,,,,Many,Some,Less than half,More than half,Most,None,Few,All,Half,0.38125,-0.23,1,0,0,QQQ3,,,,,,,,English,2020-06-16_15h39.45.001,Experiment_English,3.2.4,MacIntel,60,,,1,0,340,190,1,339,ratio23_6_15_3.png,,,,,,,,,,,,
,,,,,,,,,,,,Half,Many,Few,More than half,Less than half,Some,None,All,Most,0.01,0.21875,1,0,0,QQQ4,,,,,,,,English,2020-06-16_15h39.45.001,Experiment_English,3.2.4,MacIntel,60,,,1,0,340,231,1,339,ratio32_9_15_2.png,,,,,,,,,,,,
,,,,,,,,,,,,Few,Many,Less than half,Half,More than half,All,Most,None,Some,-0.46125,0.235,1,0,0,QQQ7,,,,,,,,English,2020-06-16_15h39.45.001,Experiment_English,3.2.4,MacIntel,60,,,1,0,340,275,1,339,ratio41_16_20_2.png,,,,,,,,,,,,
,,,,,,,,,,,,More than half,All,Half,Many,Most,Less than half,Some,Few,None,-0.4925,-0.015,1,0,0,QQQ8,,,,,,,,English,2020-06-16_15h39.45.001,Experiment_English,3.2.4,MacIntel,60,,,1,0,340,80,1,339,ratio13_1_4_3.png,,,,,,,,,,,,
,,,,,,,,,,,,Few,Some,Less than half,All,Half,Most,More than half,None,Many,0.02125,0.245,1,0,0,QQQ4,,,,,,,,English,2020-06-16_15h39.45.001,Experiment_English,3.2.4,MacIntel,60,,,1,0,340,55,1,339,ratioX0_16_16_3.png,,,,,,,,,,,,
,,,,,,,,,,,,None,Less than half,Some,Many,More than half,Most,Half,All,Few,-0.00375,-0.2875,1,0,0,QQQ6,,,,,,,,English,2020-06-16_15h39.45.001,Experiment_English,3.2.4,MacIntel,60,,,1,0,340,307,1,339,ratio51_10_12_1.png,,,,,,,,,,,,
,,,,,,,,,,,,Many,All,None,Most,Some,Less than half,Half,Few,More than half,-0.5525,-0.00375,1,0,0,QQQ8,,,,,,,,English,2020-06-16_15h39.45.001,Experiment_English,3.2.4,MacIntel,60,,,1,0,340,110,1,339,ratio14_3_15_2.png,,,,,,,,,,,,
,,,,,,,,,,,,Most,Some,All,Many,Few,None,Less than half,Half,More than half,-0.485,-0.22625,1,0,0,QQQ9,,,,,,,,English,2020-06-16_15h39.45.001,Experiment_English,3.2.4,MacIntel,60,,,1,0,340,179,1,339,ratio21_12_18_8.png,,,,,,,,,,,,
,,,,,,,,,,,,Half,None,All,Few,More than half,Some,Less than half,Many,Most,-0.39875,0.0825,1,0,0,QQQ8,,,,,,,,English,2020-06-16_15h39.45.001,Experiment_English,3.2.4,MacIntel,60,,,1,0,340,139,1,339,ratio15_3_18_20.png,,,,,,,,,,,,
,,,,,,,,,,,,More than half,None,Most,Some,Half,All,Less than half,Many,Few,-0.0475,-0.35625,1,0,0,QQQ6,,,,,,,,English,2020-06-16_15h39.45.001,Experiment_English,3.2.4,MacIntel,60,,,1,0,340,57,1,339,ratioX0_18_18_1.png,,,,,,,,,,,,
,,,,,,,,,,,,All,None,Less than half,More than half,Many,Most,Half,Some,Few,-0.40625,-0.34625,1,0,0,QQQ9,,,,,,,,English,2020-06-16_15h39.45.001,Experiment_English,3.2.4,MacIntel,60,,,1,0,340,126,1,339,ratio15_2_12_1.png,,,,,,,,,,,,
,,,,,,,,,,,,Most,More than half,None,Many,Less than half,Half,Some,Few,All,0.5175,0.28625,1,0,0,QQQ1,,,,,,,,English,2020-06-16_15h39.45.001,Experiment_English,3.2.4,MacIntel,60,,,1,0,340,335,1,339,ratio91_18_20_11.png,,,,,,,,,,,,
,,,,,,,,,,,,Many,Half,All,More than half,Some,Less than half,None,Most,Few,-0.54625,-0.325,1,0,0,QQQ9,,,,,,,,English,2020-06-16_15h39.45.001,Experiment_English,3.2.4,MacIntel,60,,,1,0,340,159,1,339,ratio19_2_20_20.png,,,,,,,,,,,,
,,,,,,,,,,,,Few,More than half,Less than half,Half,Many,All,None,Some,Most,0.48375,-0.29,1,0,0,QQQ3,,,,,,,,English,2020-06-16_15h39.45.001,Experiment_English,3.2.4,MacIntel,60,,,1,0,340,251,1,339,ratio34_6_14_2.png,0.42125,-0.35125,1,0,0,continue_button_pause,1,0,1,0,1,0
,,,,,,,,,,,,,,,,,,,,,,,,,,,,,,,,,,English,2020-06-16_15h39.45.001,Experiment_English,3.2.4,MacIntel,60,,,1,0,340,251,1,339,ratio34_6_14_2.png,,,,,,,,,,,,
,,,,,,,,,,,,Half,Many,None,All,More than half,Less than half,Most,Few,Some,-0.4325,0.305,1,0,0,QQQ7,,,,,,,,English,2020-06-16_15h39.45.001,Experiment_English,3.2.4,MacIntel,60,,,1,0,340,216,1,339,ratio31_15_20_3.png,,,,,,,,,,,,
,,,,,,,,,,,,All,Many,Some,Most,Half,More than half,Less than half,Few,None,-0.44625,0.2125,1,0,0,QQQ7,,,,,,,,English,2020-06-16_15h39.45.001,Experiment_English,3.2.4,MacIntel,60,,,1,0,340,182,1,339,ratio23_2_5_7.png,,,,,,,,,,,,
,,,,,,,,,,,,Most,Less than half,Few,All,Many,More than half,Half,None,Some,0.515,-0.03125,1,0,0,QQQ2,,,,,,,,English,2020-06-16_15h39.45.001,Experiment_English,3.2.4,MacIntel,60,,,1,0,340,3,1,339,ratio12_2_6_3.png,,,,,,,,,,,,
,,,,,,,,,,,,Less than half,Many,Some,Most,More than half,None,Few,Half,All,-0.48,0.30375,1,0,0,QQQ7,,,,,,,,English,2020-06-16_15h39.45.001,Experiment_English,3.2.4,MacIntel,60,,,1,0,340,138,1,339,ratio15_3_18_17.png,,,,,,,,,,,,
,,,,,,,,,,,,Most,More than half,Less than half,None,Few,Half,Many,Some,All,0.0475,-0.065,1,0,0,QQQ5,,,,,,,,English,2020-06-16_15h39.45.001,Experiment_English,3.2.4,MacIntel,60,,,1,0,340,124,1,339,ratio15_1_6_16.png,,,,,,,,,,,,
,,,,,,,,,,,,Many,Few,Less than half,None,Half,All,More than half,Most,Some,-0.4,-0.01125,1,0,0,QQQ8,,,,,,,,English,2020-06-16_15h39.45.001,Experiment_English,3.2.4,MacIntel,60,,,1,0,340,261,1,339,ratio41_4_5_3.png,,,,,,,,,,,,
,,,,,,,,,,,,Less than half,Many,All,Few,None,Half,Most,More than half,Some,-0.44625,0.29125,1,0,0,QQQ7,,,,,,,,English,2020-06-16_15h39.45.001,Experiment_English,3.2.4,MacIntel,60,,,1,0,340,260,1,339,ratio41_4_5_2.png,,,,,,,,,,,,
,,,,,,,,,,,,Few,None,More than half,Most,Less than half,Half,Many,All,Some,0.4325,0.0375,1,0,0,QQQ2,,,,,,,,English,2020-06-16_15h39.45.001,Experiment_English,3.2.4,MacIntel,60,,,1,0,340,73,1,339,ratio0Y_0_14_7.png,,,,,,,,,,,,
,,,,,,,,,,,,Some,Most,More than half,Half,None,All,Many,Few,Less than half,-0.42125,-0.01125,1,0,0,QQQ8,,,,,,,,English,2020-06-16_15h39.45.001,Experiment_English,3.2.4,MacIntel,60,,,1,0,340,142,1,339,ratio19_1_10_6.png,,,,,,,,,,,,
,,,,,,,,,,,,Most,Many,Half,Less than half,Some,None,All,More than half,Few,0.01,0.31375,1,0,0,QQQ4,,,,,,,,English,2020-06-16_15h39.45.001,Experiment_English,3.2.4,MacIntel,60,,,1,0,340,194,1,339,ratio23_6_15_10.png,,,,,,,,,,,,
,,,,,,,,,,,,Less than half,More than half,Most,None,All,Few,Half,Some,Many,-0.03,0.2475,1,0,0,QQQ4,,,,,,,,English,2020-06-16_15h39.45.001,Experiment_English,3.2.4,MacIntel,60,,,1,0,340,64,1,339,ratio0Y_0_7_1.png,,,,,,,,,,,,
,,,,,,,,,,,,More than half,None,All,Most,Less than half,Few,Many,Half,Some,-0.03,0.2475,1,0,0,QQQ4,,,,,,,,English,2020-06-16_15h39.45.001,Experiment_English,3.2.4,MacIntel,60,,,1,0,340,310,1,339,ratio51_10_12_12.png,,,,,,,,,,,,
,,,,,,,,,,,,More than half,Half,Less than half,Some,Many,Most,Few,None,All,0.47375,-0.2425,1,0,0,QQQ3,,,,,,,,English,2020-06-16_15h39.45.001,Experiment_English,3.2.4,MacIntel,60,,,1,0,340,81,1,339,ratio13_1_4_5.png,,,,,,,,,,,,
,,,,,,,,,,,,None,All,Some,Half,More than half,Less than half,Most,Few,Many,-0.4725,-0.005,1,0,0,QQQ8,,,,,,,,English,2020-06-16_15h39.45.001,Experiment_English,3.2.4,MacIntel,60,,,1,0,340,150,1,339,ratio19_2_20_1.png,,,,,,,,,,,,
,,,,,,,,,,,,Most,Many,Less than half,More than half,Few,Some,None,All,Half,0.5175,-0.26875,1,0,0,QQQ3,,,,,,,,English,2020-06-16_15h39.45.001,Experiment_English,3.2.4,MacIntel,60,,,1,0,340,253,1,339,ratio34_6_14_5.png,,,,,,,,,,,,
,,,,,,,,,,,,All,More than half,Some,None,Most,Few,Many,Less than half,Half,0.01625,-0.36875,1,0,0,QQQ6,,,,,,,,English,2020-06-16_15h39.45.001,Experiment_English,3.2.4,MacIntel,60,,,1,0,340,132,1,339,ratio15_2_12_16.png,,,,,,,,,,,,
,,,,,,,,,,,,More than half,Many,Most,Few,Some,All,Half,None,Less than half,0.02875,0.2075,1,0,0,QQQ4,,,,,,,,English,2020-06-16_15h39.45.001,Experiment_English,3.2.4,MacIntel,60,,,1,0,340,136,1,339,ratio15_3_18_8.png,,,,,,,,,,,,
,,,,,,,,,,,,Most,More than half,Some,All,Less than half,Many,Half,None,Few,-0.405,0.32375,1,0,0,QQQ7,,,,,,,,English,2020-06-16_15h39.45.001,Experiment_English,3.2.4,MacIntel,60,,,1,0,340,189,1,339,ratio23_4_10_8.png,,,,,,,,,,,,
,,,,,,,,,,,,Some,Less than half,More than half,Many,None,Few,All,Half,Most,0.4975,-0.33625,1,0,0,QQQ3,,,,,,,,English,2020-06-16_15h39.45.001,Experiment_English,3.2.4,MacIntel,60,,,1,0,340,203,1,339,ratio31_3_4_9.png,,,,,,,,,,,,
,,,,,,,,,,,,Most,Few,All,Many,Less than half,Half,None,More than half,Some,0.57375,0.29375,1,0,0,QQQ1,,,,,,,,English,2020-06-16_15h39.45.001,Experiment_English,3.2.4,MacIntel,60,,,1,0,340,330,1,339,ratio91_18_20_2.png,,,,,,,,,,,,
,,,,,,,,,,,,Half,Few,More than half,Some,All,Most,Less than half,Many,None,0.45625,0.25875,1,0,0,QQQ1,,,,,,,,English,2020-06-16_15h39.45.001,Experiment_English,3.2.4,MacIntel,60,,,1,0,340,197,1,339,ratio23_8_20_6.png,,,,,,,,,,,,
,,,,,,,,,,,,Some,Many,Less than half,More than half,Half,None,All,Most,Few,-0.40875,0.0075,1,0,0,QQQ8,,,,,,,,English,2020-06-16_15h39.45.001,Experiment_English,3.2.4,MacIntel,60,,,1,0,340,312,1,339,ratio51_10_12_16.png,,,,,,,,,,,,
,,,,,,,,,,,,Most,Less than half,Half,More than half,Few,None,All,Many,Some,0.46625,0.35875,1,0,0,QQQ1,,,,,,,,English,2020-06-16_15h39.45.001,Experiment_English,3.2.4,MacIntel,60,,,1,0,340,265,1,339,ratio41_8_10_1.png,,,,,,,,,,,,
,,,,,,,,,,,,Most,All,None,Less than half,Some,Few,More than half,Half,Many,-0.42,-0.005,1,0,0,QQQ8,,,,,,,,English,2020-06-16_15h39.45.001,Experiment_English,3.2.4,MacIntel,60,,,1,0,340,112,1,339,ratio14_3_15_4.png,,,,,,,,,,,,
,,,,,,,,,,,,Half,Most,More than half,All,Many,Some,Less than half,None,Few,0.41375,0.00875,1,0,0,QQQ2,,,,,,,,English,2020-06-16_15h39.45.001,Experiment_English,3.2.4,MacIntel,60,,,1,0,340,321,1,339,ratio91_9_10_2.png,,,,,,,,,,,,
,,,,,,,,,,,,All,Many,Most,More than half,Some,Less than half,None,Few,Half,-0.38,0.03125,1,0,0,QQQ8,,,,,,,,English,2020-06-16_15h39.45.001,Experiment_English,3.2.4,MacIntel,60,,,1,0,340,125,1,339,ratio15_1_6_19.png,,,,,,,,,,,,
,,,,,,,,,,,,Many,Some,Half,None,Most,More than half,All,Few,Less than half,0.395,-0.22,1,0,0,QQQ3,,,,,,,,English,2020-06-16_15h39.45.001,Experiment_English,3.2.4,MacIntel,60,,,1,0,340,172,1,339,ratio21_8_12_6.png,,,,,,,,,,,,
,,,,,,,,,,,,More than half,None,Half,Many,Less than half,All,Some,Few,Most,0.0025,-0.2575,1,0,0,QQQ6,,,,,,,,English,2020-06-16_15h39.45.001,Experiment_English,3.2.4,MacIntel,60,,,1,0,340,46,1,339,ratioX0_9_9_3.png,,,,,,,,,,,,
,,,,,,,,,,,,Few,Half,Many,All,Less than half,Some,None,More than half,Most,-0.4025,-0.255,1,0,0,QQQ9,,,,,,,,English,2020-06-16_15h39.45.001,Experiment_English,3.2.4,MacIntel,60,,,1,0,340,326,1,339,ratio91_9_10_10.png,,,,,,,,,,,,
,,,,,,,,,,,,Most,All,Less than half,None,More than half,Many,Few,Some,Half,-0.07125,0.005,1,0,0,QQQ5,,,,,,,,English,2020-06-16_15h39.45.001,Experiment_English,3.2.4,MacIntel,60,,,1,0,340,25,1,339,ratio11_4_8_10.png,,,,,,,,,,,,
,,,,,,,,,,,,Some,Less than half,Many,More than half,Half,Most,All,None,Few,-0.43625,-0.215,1,0,0,QQQ9,,,,,,,,English,2020-06-16_15h39.45.001,Experiment_English,3.2.4,MacIntel,60,,,1,0,340,120,1,339,ratio15_1_6_1.png,,,,,,,,,,,,
,,,,,,,,,,,,Few,Some,Most,None,Half,More than half,Less than half,All,Many,0.5025,0.29375,1,0,0,QQQ1,,,,,,,,English,2020-06-16_15h39.45.001,Experiment_English,3.2.4,MacIntel,60,,,1,0,340,146,1,339,ratio19_1_10_17.png,,,,,,,,,,,,
,,,,,,,,,,,,More than half,Most,None,Some,All,Few,Many,Less than half,Half,0.45625,0.23,1,0,0,QQQ1,,,,,,,,English,2020-06-16_15h39.45.001,Experiment_English,3.2.4,MacIntel,60,,,1,0,340,298,1,339,ratio43_8_14_14.png,,,,,,,,,,,,
,,,,,,,,,,,,Half,Less than half,None,Few,All,Some,Most,Many,More than half,0.05875,0.02,1,0,0,QQQ5,,,,,,,,English,2020-06-16_15h39.45.001,Experiment_English,3.2.4,MacIntel,60,,,1,0,340,42,1,339,ratioX0_5_5_5.png,,,,,,,,,,,,
