continue_mouse.x,continue_mouse.y,continue_mouse.leftButton,continue_mouse.midButton,continue_mouse.rightButton,continue_mouse.clicked_name,continue_mouse_2.x,continue_mouse_2.y,continue_mouse_2.leftButton,continue_mouse_2.midButton,continue_mouse_2.rightButton,continue_mouse_2.clicked_name,Q1,Q2,Q3,Q4,Q5,Q6,Q7,Q8,Q9,select_answer.x,select_answer.y,select_answer.leftButton,select_answer.midButton,select_answer.rightButton,select_answer.clicked_name,trial.thisRepN,trial.thisTrialN,trial.thisN,trial.thisIndex,trial.ran,trial.order,trials,Native tongue*,date,expName,psychopyVersion,OS,frameRate,key_resp.keys,key_resp.rt,Actual_Experiment.thisRepN,Actual_Experiment.thisTrialN,Actual_Experiment.thisN,Actual_Experiment.thisIndex,Actual_Experiment.ran,Actual_Experiment.order,Pic,mouse_pause.x,mouse_pause.y,mouse_pause.leftButton,mouse_pause.midButton,mouse_pause.rightButton,mouse_pause.clicked_name,pause.thisRepN,pause.thisTrialN,pause.thisN,pause.thisIndex,pause.ran,pause.order
0.330230035,-0.423046875,1,0,0,continue_button,0.369943576,-0.419921875,1,0,0,continue_button_2,Some,Half,Many,More than half,Most,None,All,Few,Less than half,0.453454861,-0.007782118,1,0,0,QQQ2,1,0,16,5,1,15,ratio32_6_10_2.png,English,2020-07-02_11h00.03.315,Experiment_English,3.2.4,MacIntel,60,,,,,,,,,,,,,,,,,,,,,
,,,,,,,,,,,,Most,None,Few,More than half,Less than half,Many,Half,All,Some,-0.479348958,0.331553819,1,0,0,QQQ7,1,0,16,7,1,15,ratio23_2_5_8.png,English,2020-07-02_11h00.03.315,Experiment_English,3.2.4,MacIntel,60,,,,,,,,,,,,,,,,,,,,,
,,,,,,,,,,,,Few,Most,Some,All,None,More than half,Less than half,Many,Half,0.429809028,0.004409722,1,0,0,QQQ2,1,0,16,3,1,15,ratio41_8_10_8.png,English,2020-07-02_11h00.03.315,Experiment_English,3.2.4,MacIntel,60,,,,,,,,,,,,,,,,,,,,,
,,,,,,,,,,,,Many,Less than half,None,Few,Most,More than half,All,Some,Half,-0.001644965,-0.249327257,1,0,0,QQQ6,1,0,16,8,1,15,ratio21_12_18_3.png,English,2020-07-02_11h00.03.315,Experiment_English,3.2.4,MacIntel,60,,,,,,,,,,,,,,,,,,,,,
,,,,,,,,,,,,Some,Many,More than half,Most,Few,Less than half,None,Half,All,-0.061905382,0.315716146,1,0,0,QQQ4,1,0,16,1,1,15,ratio51_5_6_8.png,English,2020-07-02_11h00.03.315,Experiment_English,3.2.4,MacIntel,60,,,,,,,,,,,,,,,,,,,,,
,,,,,,,,,,,,Few,Most,Less than half,All,Many,More than half,Some,None,Half,0.065421007,-0.31124566,1,0,0,QQQ6,,,,,,,,English,2020-07-02_11h00.03.315,Experiment_English,3.2.4,MacIntel,60,b,103.3809998,1,0,340,34,1,339,ratio11_8_16_8.png,,,,,,,,,,,,
,,,,,,,,,,,,Few,Less than half,None,More than half,Many,Most,Half,Some,All,0.049830729,-0.276154514,1,0,0,QQQ6,,,,,,,,English,2020-07-02_11h00.03.315,Experiment_English,3.2.4,MacIntel,60,,,1,0,340,168,1,339,ratio21_6_9_3.png,,,,,,,,,,,,
,,,,,,,,,,,,Most,Less than half,All,Half,Many,More than half,Some,None,Few,-0.050125868,-0.290742188,1,0,0,QQQ6,,,,,,,,English,2020-07-02_11h00.03.315,Experiment_English,3.2.4,MacIntel,60,,,1,0,340,182,1,339,ratio23_2_5_7.png,,,,,,,,,,,,
,,,,,,,,,,,,Half,Some,Many,None,Few,More than half,Less than half,Most,All,-0.390360243,-0.024136285,1,0,0,QQQ8,,,,,,,,English,2020-07-02_11h00.03.315,Experiment_English,3.2.4,MacIntel,60,,,1,0,340,275,1,339,ratio41_16_20_2.png,,,,,,,,,,,,
,,,,,,,,,,,,Some,Few,Many,None,Most,All,Less than half,More than half,Half,-0.071588542,-0.038250868,1,0,0,QQQ5,,,,,,,,English,2020-07-02_11h00.03.315,Experiment_English,3.2.4,MacIntel,60,,,1,0,340,335,1,339,ratio91_18_20_11.png,,,,,,,,,,,,
,,,,,,,,,,,,None,Half,Most,Less than half,Some,Many,All,More than half,Few,0.404587674,-0.293333333,1,0,0,QQQ3,,,,,,,,English,2020-07-02_11h00.03.315,Experiment_English,3.2.4,MacIntel,60,,,1,0,340,204,1,339,ratio31_6_8_1.png,,,,,,,,,,,,
,,,,,,,,,,,,More than half,All,None,Few,Less than half,Some,Half,Most,Many,0.086289062,-0.053862847,1,0,0,QQQ5,,,,,,,,English,2020-07-02_11h00.03.315,Experiment_English,3.2.4,MacIntel,60,,,1,0,340,181,1,339,ratio23_2_5_6.png,,,,,,,,,,,,
,,,,,,,,,,,,Less than half,Most,Many,Few,More than half,All,Half,Some,None,-0.383333333,0.001380208,1,0,0,QQQ8,,,,,,,,English,2020-07-02_11h00.03.315,Experiment_English,3.2.4,MacIntel,60,,,1,0,340,27,1,339,ratio11_5_10_7.png,,,,,,,,,,,,
,,,,,,,,,,,,Many,Few,More than half,None,All,Less than half,Some,Half,Most,-0.447452257,-0.257821181,1,0,0,QQQ9,,,,,,,,English,2020-07-02_11h00.03.315,Experiment_English,3.2.4,MacIntel,60,,,1,0,340,279,1,339,ratio41_16_20_10.png,,,,,,,,,,,,
,,,,,,,,,,,,Less than half,Few,None,Most,Many,All,Half,More than half,Some,-0.011740451,0.297313368,1,0,0,QQQ4,,,,,,,,English,2020-07-02_11h00.03.315,Experiment_English,3.2.4,MacIntel,60,,,1,0,340,173,1,339,ratio21_8_12_9.png,,,,,,,,,,,,
,,,,,,,,,,,,All,None,Half,Most,More than half,Few,Many,Less than half,Some,0.422139757,0.300425347,1,0,0,QQQ1,,,,,,,,English,2020-07-02_11h00.03.315,Experiment_English,3.2.4,MacIntel,60,,,1,0,340,55,1,339,ratioX0_16_16_3.png,,,,,,,,,,,,
,,,,,,,,,,,,Few,Half,More than half,Most,Less than half,All,Some,None,Many,0.106306424,0.287039931,1,0,0,QQQ4,,,,,,,,English,2020-07-02_11h00.03.315,Experiment_English,3.2.4,MacIntel,60,,,1,0,340,320,1,339,ratio91_9_10_1.png,,,,,,,,,,,,
,,,,,,,,,,,,Half,Few,Less than half,More than half,Some,Most,None,Many,All,0.010824653,-0.322547743,1,0,0,QQQ6,,,,,,,,English,2020-07-02_11h00.03.315,Experiment_English,3.2.4,MacIntel,60,,,1,0,340,265,1,339,ratio41_8_10_1.png,,,,,,,,,,,,
,,,,,,,,,,,,Some,Most,None,Many,More than half,Few,Half,Less than half,All,0.454943576,-0.009153646,1,0,0,QQQ2,,,,,,,,English,2020-07-02_11h00.03.315,Experiment_English,3.2.4,MacIntel,60,,,1,0,340,225,1,339,ratio32_6_10_4.png,,,,,,,,,,,,
,,,,,,,,,,,,Few,Half,Many,Some,Most,Less than half,All,More than half,None,0.085386285,-0.009817708,1,0,0,QQQ5,,,,,,,,English,2020-07-02_11h00.03.315,Experiment_English,3.2.4,MacIntel,60,,,1,0,340,337,1,339,ratio91_18_20_16.png,,,,,,,,,,,,
,,,,,,,,,,,,Some,Half,Most,Few,More than half,Less than half,All,None,Many,0.506319444,-0.327486979,1,0,0,QQQ3,,,,,,,,English,2020-07-02_11h00.03.315,Experiment_English,3.2.4,MacIntel,60,,,1,0,340,302,1,339,ratio51_5_6_5.png,,,,,,,,,,,,
,,,,,,,,,,,,None,Less than half,All,Some,Half,More than half,Few,Many,Most,0.074782986,-0.036341146,1,0,0,QQQ5,,,,,,,,English,2020-07-02_11h00.03.315,Experiment_English,3.2.4,MacIntel,60,,,1,0,340,20,1,339,ratio11_2_4_3.png,,,,,,,,,,,,
,,,,,,,,,,,,Many,None,More than half,Some,Most,Less than half,All,Few,Half,-0.475850694,0.30499566,1,0,0,QQQ7,,,,,,,,English,2020-07-02_11h00.03.315,Experiment_English,3.2.4,MacIntel,60,,,1,0,340,69,1,339,ratio0Y_0_11_6.png,,,,,,,,,,,,
,,,,,,,,,,,,Less than half,None,Few,Half,More than half,Some,Most,All,Many,0.438025174,0.005030382,0,0,1,QQQ2,,,,,,,,English,2020-07-02_11h00.03.315,Experiment_English,3.2.4,MacIntel,60,,,1,0,340,62,1,339,ratio0Y_0_5_4.png,,,,,,,,,,,,
,,,,,,,,,,,,Few,Many,None,Less than half,All,More than half,Half,Some,Most,0.047322049,-0.326059028,1,0,1,QQQ6,,,,,,,,English,2020-07-02_11h00.03.315,Experiment_English,3.2.4,MacIntel,60,,,1,0,340,175,1,339,ratio21_10_15_2.png,,,,,,,,,,,,
,,,,,,,,,,,,All,Many,Some,Half,Few,More than half,Most,Less than half,None,-0.429631076,-0.02984375,1,0,1,QQQ8,,,,,,,,English,2020-07-02_11h00.03.315,Experiment_English,3.2.4,MacIntel,60,,,1,0,340,296,1,339,ratio43_8_14_12.png,,,,,,,,,,,,
,,,,,,,,,,,,Less than half,Half,Few,All,Some,Many,None,More than half,Most,-0.476271701,-0.253320312,1,0,1,QQQ9,,,,,,,,English,2020-07-02_11h00.03.315,Experiment_English,3.2.4,MacIntel,60,,,1,0,340,321,1,339,ratio91_9_10_2.png,,,,,,,,,,,,
,,,,,,,,,,,,Many,None,Few,Most,Half,All,Some,Less than half,More than half,-0.405056424,-0.021657986,1,0,1,QQQ8,,,,,,,,English,2020-07-02_11h00.03.315,Experiment_English,3.2.4,MacIntel,60,,,1,0,340,189,1,339,ratio23_4_10_8.png,,,,,,,,,,,,
,,,,,,,,,,,,Less than half,Half,None,Some,All,Few,Many,Most,More than half,0.468823785,-0.249205729,1,0,1,QQQ3,,,,,,,,English,2020-07-02_11h00.03.315,Experiment_English,3.2.4,MacIntel,60,,,1,0,340,60,1,339,ratio0Y_0_3_5.png,,,,,,,,,,,,
,,,,,,,,,,,,Few,All,Most,None,Less than half,More than half,Some,Half,Many,-0.45203559,0.006844618,1,0,1,QQQ8,,,,,,,,English,2020-07-02_11h00.03.315,Experiment_English,3.2.4,MacIntel,60,,,1,0,340,287,1,339,ratio43_4_7_17.png,,,,,,,,,,,,
,,,,,,,,,,,,Most,More than half,All,Many,Few,Some,None,Half,Less than half,0.432999132,0.238398438,1,0,1,QQQ1,,,,,,,,English,2020-07-02_11h00.03.315,Experiment_English,3.2.4,MacIntel,60,,,1,0,340,272,1,339,ratio41_12_15_7.png,,,,,,,,,,,,
,,,,,,,,,,,,None,All,Few,More than half,Most,Many,Half,Some,Less than half,0.538224826,-0.283515625,1,0,1,QQQ3,,,,,,,,English,2020-07-02_11h00.03.315,Experiment_English,3.2.4,MacIntel,60,,,1,0,340,137,1,339,ratio15_3_18_16.png,,,,,,,,,,,,
,,,,,,,,,,,,Some,Most,None,Half,Many,More than half,Few,Less than half,All,0.502144097,-0.054179687,1,0,1,QQQ2,,,,,,,,English,2020-07-02_11h00.03.315,Experiment_English,3.2.4,MacIntel,60,,,1,0,340,325,1,339,ratio91_9_10_8.png,,,,,,,,,,,,
,,,,,,,,,,,,More than half,All,Some,None,Many,Less than half,Few,Most,Half,0.49953125,-0.044474826,1,0,1,QQQ2,,,,,,,,English,2020-07-02_11h00.03.315,Experiment_English,3.2.4,MacIntel,60,,,1,0,340,44,1,339,ratioX0_7_7_5.png,,,,,,,,,,,,
,,,,,,,,,,,,More than half,Some,None,Few,Most,Many,Less than half,Half,All,-0.38171875,0.270373264,1,0,1,QQQ7,,,,,,,,English,2020-07-02_11h00.03.315,Experiment_English,3.2.4,MacIntel,60,,,1,0,340,106,1,339,ratio14_2_10_2.png,,,,,,,,,,,,
,,,,,,,,,,,,None,Few,Less than half,Some,Most,Half,Many,All,More than half,0.004275174,-0.021145833,1,0,1,QQQ5,,,,,,,,English,2020-07-02_11h00.03.315,Experiment_English,3.2.4,MacIntel,60,,,1,0,340,215,1,339,ratio31_12_16_8.png,,,,,,,,,,,,
,,,,,,,,,,,,Many,Few,More than half,Most,None,Some,All,Less than half,Half,0.567782118,-0.291501736,1,0,1,QQQ3,,,,,,,,English,2020-07-02_11h00.03.315,Experiment_English,3.2.4,MacIntel,60,,,1,0,340,284,1,339,ratio43_4_7_11.png,,,,,,,,,,,,
,,,,,,,,,,,,Half,More than half,Few,Most,All,None,Some,Many,Less than half,0.437473958,-0.044704861,1,0,1,QQQ2,,,,,,,,English,2020-07-02_11h00.03.315,Experiment_English,3.2.4,MacIntel,60,,,1,0,340,163,1,339,ratio21_4_6_1.png,,,,,,,,,,,,
,,,,,,,,,,,,Half,All,Few,Many,Less than half,More than half,Some,Most,None,-0.40500434,0.001519097,1,0,1,QQQ8,,,,,,,,English,2020-07-02_11h00.03.315,Experiment_English,3.2.4,MacIntel,60,,,1,0,340,262,1,339,ratio41_4_5_4.png,0.369440104,-0.390082465,1,0,1,continue_button_pause,1,0,1,0,1,0
,,,,,,,,,,,,,,,,,,,,,,,,,,,,,,,,,,English,2020-07-02_11h00.03.315,Experiment_English,3.2.4,MacIntel,60,,,1,0,340,262,1,339,ratio41_4_5_4.png,,,,,,,,,,,,
,,,,,,,,,,,,None,Half,All,Most,Few,Less than half,Some,More than half,Many,0.032543403,-0.270755208,1,0,1,QQQ6,,,,,,,,English,2020-07-02_11h00.03.315,Experiment_English,3.2.4,MacIntel,60,,,1,0,340,25,1,339,ratio11_4_8_10.png,,,,,,,,,,,,
,,,,,,,,,,,,Less than half,None,Half,All,Most,More than half,Many,Some,Few,0.01780816,-0.061653646,1,0,1,QQQ5,,,,,,,,English,2020-07-02_11h00.03.315,Experiment_English,3.2.4,MacIntel,60,,,1,0,340,271,1,339,ratio41_12_15_6.png,,,,,,,,,,,,
,,,,,,,,,,,,None,Less than half,All,Some,Half,Many,Most,More than half,Few,-0.406037326,-0.288372396,1,0,1,QQQ9,,,,,,,,English,2020-07-02_11h00.03.315,Experiment_English,3.2.4,MacIntel,60,,,1,0,340,141,1,339,ratio19_1_10_2.png,,,,,,,,,,,,
,,,,,,,,,,,,Half,Few,Less than half,None,More than half,All,Many,Most,Some,0.450321181,-0.330980903,1,0,1,QQQ3,,,,,,,,English,2020-07-02_11h00.03.315,Experiment_English,3.2.4,MacIntel,60,,,1,0,340,195,1,339,ratio23_8_20_1.png,,,,,,,,,,,,
,,,,,,,,,,,,Many,Half,Few,None,Less than half,All,Some,Most,More than half,0.005885417,0.051176215,1,0,1,QQQ5,,,,,,,,English,2020-07-02_11h00.03.315,Experiment_English,3.2.4,MacIntel,60,,,1,0,340,252,1,339,ratio34_6_14_3.png,,,,,,,,,,,,
,,,,,,,,,,,,More than half,All,Most,None,Many,Some,Half,Few,Less than half,0.42281684,-0.287022569,1,0,1,QQQ3,,,,,,,,English,2020-07-02_11h00.03.315,Experiment_English,3.2.4,MacIntel,60,,,1,0,340,214,1,339,ratio31_12_16_5.png,,,,,,,,,,,,
,,,,,,,,,,,,Half,Few,All,None,Many,Less than half,More than half,Most,Some,0.496388889,-0.042317708,1,0,1,QQQ2,,,,,,,,English,2020-07-02_11h00.03.315,Experiment_English,3.2.4,MacIntel,60,,,1,0,340,145,1,339,ratio19_1_10_15.png,,,,,,,,,,,,
,,,,,,,,,,,,Few,Many,More than half,None,Half,Most,All,Some,Less than half,0.412539062,0.287083333,1,0,1,QQQ1,,,,,,,,English,2020-07-02_11h00.03.315,Experiment_English,3.2.4,MacIntel,60,,,1,0,340,80,1,339,ratio13_1_4_3.png,,,,,,,,,,,,
,,,,,,,,,,,,Many,Less than half,Most,Half,More than half,None,Few,All,Some,-0.388168403,0.301310764,1,0,1,QQQ7,,,,,,,,English,2020-07-02_11h00.03.315,Experiment_English,3.2.4,MacIntel,60,,,1,0,340,146,1,339,ratio19_1_10_17.png,,,,,,,,,,,,
,,,,,,,,,,,,Less than half,More than half,Most,None,All,Many,Few,Half,Some,0.422070312,-0.293038194,1,0,1,QQQ3,,,,,,,,English,2020-07-02_11h00.03.315,Experiment_English,3.2.4,MacIntel,60,,,1,0,340,293,1,339,ratio43_8_14_7.png,,,,,,,,,,,,
,,,,,,,,,,,,Some,All,Few,None,Many,Most,Half,More than half,Less than half,-0.019769965,-0.27421441,1,0,1,QQQ6,,,,,,,,English,2020-07-02_11h00.03.315,Experiment_English,3.2.4,MacIntel,60,,,1,0,340,229,1,339,ratio32_6_10_9.png,,,,,,,,,,,,
,,,,,,,,,,,,Many,More than half,Less than half,None,Some,Few,Most,All,Half,0.4228125,-0.028828125,1,0,1,QQQ2,,,,,,,,English,2020-07-02_11h00.03.315,Experiment_English,3.2.4,MacIntel,60,,,1,0,340,232,1,339,ratio32_9_15_8.png,,,,,,,,,,,,
,,,,,,,,,,,,Most,All,Few,Many,None,Less than half,Some,Half,More than half,0.147326389,0.009765625,1,0,1,QQQ5,,,,,,,,English,2020-07-02_11h00.03.315,Experiment_English,3.2.4,MacIntel,60,,,1,0,340,72,1,339,ratio0Y_0_13_4.png,,,,,,,,,,,,
,,,,,,,,,,,,Less than half,Many,Some,Half,None,All,More than half,Most,Few,0.398763021,0.289605035,1,0,1,QQQ1,,,,,,,,English,2020-07-02_11h00.03.315,Experiment_English,3.2.4,MacIntel,60,,,1,0,340,2,1,339,ratio12_1_3_10.png,,,,,,,,,,,,
,,,,,,,,,,,,More than half,Less than half,Some,Many,Few,None,Half,Most,All,0.477274306,0.031853299,1,0,1,QQQ2,,,,,,,,English,2020-07-02_11h00.03.315,Experiment_English,3.2.4,MacIntel,60,,,1,0,340,250,1,339,ratio34_6_14_1.png,,,,,,,,,,,,
,,,,,,,,,,,,None,Most,Some,More than half,Many,Half,Few,Less than half,All,-0.385616319,0.02312066,1,0,1,QQQ8,,,,,,,,English,2020-07-02_11h00.03.315,Experiment_English,3.2.4,MacIntel,60,,,1,0,340,240,1,339,ratio34_3_7_4.png,,,,,,,,,,,,
,,,,,,,,,,,,Many,Less than half,More than half,None,Most,Few,Some,All,Half,-0.419210069,-0.264752604,1,0,1,QQQ9,,,,,,,,English,2020-07-02_11h00.03.315,Experiment_English,3.2.4,MacIntel,60,,,1,0,340,21,1,339,ratio11_2_4_10.png,,,,,,,,,,,,
,,,,,,,,,,,,Half,Some,Less than half,All,Many,More than half,None,Few,Most,-0.004587674,-0.2996875,1,0,1,QQQ6,,,,,,,,English,2020-07-02_11h00.03.315,Experiment_English,3.2.4,MacIntel,60,,,1,0,340,205,1,339,ratio31_6_8_2.png,,,,,,,,,,,,
,,,,,,,,,,,,None,Most,Half,More than half,Many,All,Less than half,Few,Some,-0.390086806,-0.023728299,1,0,1,QQQ8,,,,,,,,English,2020-07-02_11h00.03.315,Experiment_English,3.2.4,MacIntel,60,,,1,0,340,142,1,339,ratio19_1_10_6.png,,,,,,,,,,,,
,,,,,,,,,,,,Many,More than half,None,Some,All,Half,Few,Less than half,Most,-0.432265625,0.224487847,1,0,1,QQQ7,,,,,,,,English,2020-07-02_11h00.03.315,Experiment_English,3.2.4,MacIntel,60,,,1,0,340,102,1,339,ratio14_1_5_8.png,,,,,,,,,,,,
,,,,,,,,,,,,Few,More than half,Less than half,Half,None,Some,Many,All,Most,0.494023437,-0.323914931,1,0,1,QQQ3,,,,,,,,English,2020-07-02_11h00.03.315,Experiment_English,3.2.4,MacIntel,60,,,1,0,340,254,1,339,ratio34_6_14_9.png,,,,,,,,,,,,
,,,,,,,,,,,,Less than half,Few,None,More than half,All,Many,Some,Half,Most,0.479375,0.251423611,1,0,1,QQQ1,,,,,,,,English,2020-07-02_11h00.03.315,Experiment_English,3.2.4,MacIntel,60,,,1,0,340,194,1,339,ratio23_6_15_10.png,,,,,,,,,,,,
,,,,,,,,,,,,Few,Less than half,None,All,More than half,Many,Most,Some,Half,0.108424479,0.040685764,1,0,1,QQQ5,,,,,,,,English,2020-07-02_11h00.03.315,Experiment_English,3.2.4,MacIntel,60,,,1,0,340,228,1,339,ratio32_6_10_7.png,,,,,,,,,,,,
,,,,,,,,,,,,Some,None,More than half,Many,Half,All,Less than half,Few,Most,-0.403094618,-0.242829861,1,0,1,QQQ9,,,,,,,,English,2020-07-02_11h00.03.315,Experiment_English,3.2.4,MacIntel,60,,,1,0,340,323,1,339,ratio91_9_10_5.png,,,,,,,,,,,,
,,,,,,,,,,,,Many,All,Some,Most,None,More than half,Few,Less than half,Half,0.000130208,0.271922743,1,0,1,QQQ4,,,,,,,,English,2020-07-02_11h00.03.315,Experiment_English,3.2.4,MacIntel,60,,,1,0,340,314,1,339,ratio51_15_18_4.png,,,,,,,,,,,,
,,,,,,,,,,,,Some,None,Most,Less than half,Half,More than half,All,Many,Few,0.447747396,-0.250221354,1,0,1,QQQ3,,,,,,,,English,2020-07-02_11h00.03.315,Experiment_English,3.2.4,MacIntel,60,,,1,0,340,338,1,339,ratio91_18_20_18.png,,,,,,,,,,,,
,,,,,,,,,,,,Half,Most,Some,All,Many,Less than half,More than half,Few,None,-0.444435764,0.319791667,1,0,1,QQQ7,,,,,,,,English,2020-07-02_11h00.03.315,Experiment_English,3.2.4,MacIntel,60,,,1,0,340,231,1,339,ratio32_9_15_2.png,,,,,,,,,,,,
,,,,,,,,,,,,All,More than half,Less than half,None,Half,Some,Most,Many,Few,0.420303819,-0.266310764,1,0,1,QQQ3,,,,,,,,English,2020-07-02_11h00.03.315,Experiment_English,3.2.4,MacIntel,60,,,1,0,340,256,1,339,ratio34_6_14_11.png,,,,,,,,,,,,
,,,,,,,,,,,,All,Less than half,Some,Half,Few,Most,Many,None,More than half,0.447677951,0.006493056,1,0,1,QQQ2,,,,,,,,English,2020-07-02_11h00.03.315,Experiment_English,3.2.4,MacIntel,60,,,1,0,340,244,1,339,ratio34_3_7_9.png,,,,,,,,,,,,
,,,,,,,,,,,,Some,Half,None,Most,Many,All,More than half,Less than half,Few,-0.379309896,-0.251875,1,0,1,QQQ9,,,,,,,,English,2020-07-02_11h00.03.315,Experiment_English,3.2.4,MacIntel,60,,,1,0,340,143,1,339,ratio19_1_10_9.png,,,,,,,,,,,,
,,,,,,,,,,,,Most,Few,More than half,All,None,Some,Half,Less than half,Many,0.526857639,0.294557292,1,0,1,QQQ1,,,,,,,,English,2020-07-02_11h00.03.315,Experiment_English,3.2.4,MacIntel,60,,,1,0,340,312,1,339,ratio51_10_12_16.png,,,,,,,,,,,,
,,,,,,,,,,,,Less than half,Many,More than half,None,All,Most,Half,Few,Some,-0.448736979,0.023007812,1,0,1,QQQ8,,,,,,,,English,2020-07-02_11h00.03.315,Experiment_English,3.2.4,MacIntel,60,,,1,0,340,149,1,339,ratio19_1_10_20.png,,,,,,,,,,,,
,,,,,,,,,,,,All,Many,Half,None,More than half,Some,Less than half,Most,Few,0.009097222,-0.029930556,1,0,1,QQQ5,,,,,,,,English,2020-07-02_11h00.03.315,Experiment_English,3.2.4,MacIntel,60,,,1,0,340,294,1,339,ratio43_8_14_9.png,,,,,,,,,,,,
,,,,,,,,,,,,Most,More than half,None,Few,Some,All,Many,Less than half,Half,-0.375555556,-0.002061632,1,0,1,QQQ8,,,,,,,,English,2020-07-02_11h00.03.315,Experiment_English,3.2.4,MacIntel,60,,,1,0,340,105,1,339,ratio14_2_10_1.png,0.357764757,-0.384392361,1,0,1,continue_button_pause,1,0,1,0,1,0
,,,,,,,,,,,,,,,,,,,,,,,,,,,,,,,,,,English,2020-07-02_11h00.03.315,Experiment_English,3.2.4,MacIntel,60,,,1,0,340,105,1,339,ratio14_2_10_1.png,,,,,,,,,,,,
,,,,,,,,,,,,All,Half,Less than half,None,Many,More than half,Most,Few,Some,-0.381727431,0.272013889,1,0,1,QQQ7,,,,,,,,English,2020-07-02_11h00.03.315,Experiment_English,3.2.4,MacIntel,60,,,1,0,340,277,1,339,ratio41_16_20_8.png,,,,,,,,,,,,
,,,,,,,,,,,,Some,Half,More than half,Few,None,All,Many,Most,Less than half,0.460368924,-0.291579861,1,0,1,QQQ3,,,,,,,,English,2020-07-02_11h00.03.315,Experiment_English,3.2.4,MacIntel,60,,,1,0,340,291,1,339,ratio43_8_14_5.png,,,,,,,,,,,,
,,,,,,,,,,,,Many,None,Most,Some,All,Less than half,Few,Half,More than half,-0.421202257,-0.279743924,1,0,1,QQQ9,,,,,,,,English,2020-07-02_11h00.03.315,Experiment_English,3.2.4,MacIntel,60,,,1,0,340,255,1,339,ratio34_6_14_10.png,,,,,,,,,,,,
,,,,,,,,,,,,All,Some,Many,Few,Half,None,More than half,Less than half,Most,-0.402022569,-0.043164063,1,0,1,QQQ8,,,,,,,,English,2020-07-02_11h00.03.315,Experiment_English,3.2.4,MacIntel,60,,,1,0,340,135,1,339,ratio15_3_18_7.png,,,,,,,,,,,,
,,,,,,,,,,,,Half,Few,Many,All,Some,More than half,None,Less than half,Most,-0.079114583,-0.278072917,1,0,1,QQQ6,,,,,,,,English,2020-07-02_11h00.03.315,Experiment_English,3.2.4,MacIntel,60,,,1,0,340,270,1,339,ratio41_12_15_3.png,,,,,,,,,,,,
,,,,,,,,,,,,None,More than half,Most,Less than half,All,Some,Half,Few,Many,0.434205729,-0.024852431,1,0,1,QQQ2,,,,,,,,English,2020-07-02_11h00.03.315,Experiment_English,3.2.4,MacIntel,60,,,1,0,340,211,1,339,ratio31_9_12_10.png,,,,,,,,,,,,
,,,,,,,,,,,,Some,More than half,Many,Half,All,None,Few,Less than half,Most,0.420073785,-0.02375,1,0,1,QQQ2,,,,,,,,English,2020-07-02_11h00.03.315,Experiment_English,3.2.4,MacIntel,60,,,1,0,340,243,1,339,ratio34_3_7_8.png,,,,,,,,,,,,
,,,,,,,,,,,,None,More than half,Most,Some,Less than half,Few,Many,Half,All,-0.408059896,0.039561632,1,0,1,QQQ8,,,,,,,,English,2020-07-02_11h00.03.315,Experiment_English,3.2.4,MacIntel,60,,,1,0,340,257,1,339,ratio34_6_14_12.png,,,,,,,,,,,,
,,,,,,,,,,,,Many,Less than half,More than half,Few,Some,Most,None,All,Half,-0.090946181,0.258463542,1,0,1,QQQ4,,,,,,,,English,2020-07-02_11h00.03.315,Experiment_English,3.2.4,MacIntel,60,,,1,0,340,152,1,339,ratio19_2_20_6.png,,,,,,,,,,,,
,,,,,,,,,,,,Few,None,Many,Half,More than half,Most,Some,Less than half,All,-0.047374132,0.247747396,1,0,1,QQQ4,,,,,,,,English,2020-07-02_11h00.03.315,Experiment_English,3.2.4,MacIntel,60,,,1,0,340,35,1,339,ratio11_8_16_10.png,,,,,,,,,,,,
,,,,,,,,,,,,Some,All,None,Half,Less than half,Most,Few,Many,More than half,-0.385169271,0.334075521,1,0,1,QQQ7,,,,,,,,English,2020-07-02_11h00.03.315,Experiment_English,3.2.4,MacIntel,60,,,1,0,340,151,1,339,ratio19_2_20_4.png,,,,,,,,,,,,
,,,,,,,,,,,,All,Some,More than half,Many,None,Half,Most,Few,Less than half,0.499878472,-0.332226562,1,0,1,QQQ3,,,,,,,,English,2020-07-02_11h00.03.315,Experiment_English,3.2.4,MacIntel,60,,,1,0,340,234,1,339,ratio32_9_15_10.png,,,,,,,,,,,,
,,,,,,,,,,,,Many,More than half,Most,Few,All,None,Some,Half,Less than half,0.061961806,-0.051449653,1,0,1,QQQ5,,,,,,,,English,2020-07-02_11h00.03.315,Experiment_English,3.2.4,MacIntel,60,,,1,0,340,51,1,339,ratioX0_12_12_9.png,,,,,,,,,,,,
,,,,,,,,,,,,Most,Less than half,None,Half,Many,All,Some,Few,More than half,0.404765625,0.222894965,1,0,1,QQQ1,,,,,,,,English,2020-07-02_11h00.03.315,Experiment_English,3.2.4,MacIntel,60,,,1,0,340,330,1,339,ratio91_18_20_2.png,,,,,,,,,,,,
,,,,,,,,,,,,Less than half,None,All,More than half,Most,Some,Half,Many,Few,0.043559028,0.26875434,1,0,1,QQQ4,,,,,,,,English,2020-07-02_11h00.03.315,Experiment_English,3.2.4,MacIntel,60,,,1,0,340,167,1,339,ratio21_6_9_2.png,,,,,,,,,,,,
,,,,,,,,,,,,All,None,Few,Half,More than half,Some,Less than half,Most,Many,-0.467912326,0.30734809,1,0,1,QQQ7,,,,,,,,English,2020-07-02_11h00.03.315,Experiment_English,3.2.4,MacIntel,60,,,1,0,340,253,1,339,ratio34_6_14_5.png,,,,,,,,,,,,
,,,,,,,,,,,,Many,More than half,Some,Less than half,Most,None,Few,All,Half,-0.439296875,0.012595486,1,0,1,QQQ8,,,,,,,,English,2020-07-02_11h00.03.315,Experiment_English,3.2.4,MacIntel,60,,,1,0,340,78,1,339,ratio0Y_0_19_1.png,,,,,,,,,,,,
,,,,,,,,,,,,More than half,None,Many,Few,Most,Some,Less than half,All,Half,0.457981771,-0.04203125,1,0,1,QQQ2,,,,,,,,English,2020-07-02_11h00.03.315,Experiment_English,3.2.4,MacIntel,60,,,1,0,340,67,1,339,ratio0Y_0_10_10.png,,,,,,,,,,,,
,,,,,,,,,,,,Half,Most,None,Some,All,Less than half,Many,More than half,Few,-0.012395833,-0.306219618,1,0,1,QQQ6,,,,,,,,English,2020-07-02_11h00.03.315,Experiment_English,3.2.4,MacIntel,60,,,1,0,340,196,1,339,ratio23_8_20_5.png,,,,,,,,,,,,
,,,,,,,,,,,,More than half,All,Half,Many,Few,Some,Most,None,Less than half,0.012868924,-0.063420139,1,0,1,QQQ5,,,,,,,,English,2020-07-02_11h00.03.315,Experiment_English,3.2.4,MacIntel,60,,,1,0,340,83,1,339,ratio13_1_4_10.png,,,,,,,,,,,,
,,,,,,,,,,,,All,Half,None,Most,Few,More than half,Many,Some,Less than half,0.485963542,-0.274726562,1,0,1,QQQ3,,,,,,,,English,2020-07-02_11h00.03.315,Experiment_English,3.2.4,MacIntel,60,,,1,0,340,77,1,339,ratio0Y_0_18_3.png,,,,,,,,,,,,
,,,,,,,,,,,,Less than half,Most,Many,Few,None,All,Some,Half,More than half,0.530503472,-0.043793403,1,0,1,QQQ2,,,,,,,,English,2020-07-02_11h00.03.315,Experiment_English,3.2.4,MacIntel,60,,,1,0,340,210,1,339,ratio31_9_12_9.png,,,,,,,,,,,,
,,,,,,,,,,,,Half,Less than half,Most,Some,All,More than half,Few,Many,None,0.379874132,0.31219184,1,0,1,QQQ1,,,,,,,,English,2020-07-02_11h00.03.315,Experiment_English,3.2.4,MacIntel,60,,,1,0,340,22,1,339,ratio11_3_6_6.png,,,,,,,,,,,,
,,,,,,,,,,,,Half,Most,Few,Less than half,Many,More than half,Some,None,All,0.078116319,0.334539931,1,0,1,QQQ4,,,,,,,,English,2020-07-02_11h00.03.315,Experiment_English,3.2.4,MacIntel,60,,,1,0,340,184,1,339,ratio23_2_5_10.png,,,,,,,,,,,,
,,,,,,,,,,,,More than half,Few,Many,All,Most,Some,Less than half,Half,None,0.466783854,-0.022131076,1,0,1,QQQ2,,,,,,,,English,2020-07-02_11h00.03.315,Experiment_English,3.2.4,MacIntel,60,,,1,0,340,132,1,339,ratio15_2_12_16.png,,,,,,,,,,,,
,,,,,,,,,,,,Less than half,More than half,Few,None,Many,Most,Half,All,Some,0.434361979,-0.015598958,1,0,1,QQQ2,,,,,,,,English,2020-07-02_11h00.03.315,Experiment_English,3.2.4,MacIntel,60,,,1,0,340,299,1,339,ratio43_8_14_17.png,,,,,,,,,,,,
,,,,,,,,,,,,Few,Half,None,Many,Less than half,All,Most,More than half,Some,0.083719618,-0.03000434,1,0,1,QQQ5,,,,,,,,English,2020-07-02_11h00.03.315,Experiment_English,3.2.4,MacIntel,60,,,1,0,340,115,1,339,ratio14_4_20_1.png,,,,,,,,,,,,
,,,,,,,,,,,,Less than half,Half,More than half,Some,All,None,Most,Many,Few,0.078528646,-0.309257813,1,0,1,QQQ6,,,,,,,,English,2020-07-02_11h00.03.315,Experiment_English,3.2.4,MacIntel,60,,,1,0,340,74,1,339,ratio0Y_0_15_10.png,,,,,,,,,,,,
,,,,,,,,,,,,Some,Many,Half,Most,Few,All,More than half,None,Less than half,0.063485243,0.282269965,1,0,1,QQQ4,,,,,,,,English,2020-07-02_11h00.03.315,Experiment_English,3.2.4,MacIntel,60,,,1,0,340,305,1,339,ratio51_5_6_14.png,,,,,,,,,,,,
,,,,,,,,,,,,Less than half,All,More than half,Few,Many,Most,Some,Half,None,0.046063368,-0.330143229,1,0,1,QQQ6,,,,,,,,English,2020-07-02_11h00.03.315,Experiment_English,3.2.4,MacIntel,60,,,1,0,340,274,1,339,ratio41_12_15_9.png,,,,,,,,,,,,
,,,,,,,,,,,,All,More than half,None,Most,Some,Half,Many,Few,Less than half,-0.064032118,0.280924479,1,0,1,QQQ4,,,,,,,,English,2020-07-02_11h00.03.315,Experiment_English,3.2.4,MacIntel,60,,,1,0,340,267,1,339,ratio41_8_10_4.png,,,,,,,,,,,,
,,,,,,,,,,,,Less than half,Many,None,Half,Some,More than half,Most,Few,All,-0.386649306,0.051684028,1,0,1,QQQ8,,,,,,,,English,2020-07-02_11h00.03.315,Experiment_English,3.2.4,MacIntel,60,,,1,0,340,322,1,339,ratio91_9_10_3.png,,,,,,,,,,,,
,,,,,,,,,,,,None,Few,Half,More than half,All,Many,Most,Some,Less than half,-0.054014757,0.2896875,1,0,1,QQQ4,,,,,,,,English,2020-07-02_11h00.03.315,Experiment_English,3.2.4,MacIntel,60,,,1,0,340,288,1,339,ratio43_4_7_18.png,,,,,,,,,,,,
,,,,,,,,,,,,Half,Less than half,Few,Many,Most,All,None,Some,More than half,0.436575521,0.030321181,1,0,1,QQQ2,,,,,,,,English,2020-07-02_11h00.03.315,Experiment_English,3.2.4,MacIntel,60,,,1,0,340,99,1,339,ratio13_5_20_4.png,0.411953125,-0.386367187,1,0,1,continue_button_pause,1,0,1,0,1,0
,,,,,,,,,,,,,,,,,,,,,,,,,,,,,,,,,,English,2020-07-02_11h00.03.315,Experiment_English,3.2.4,MacIntel,60,,,1,0,340,99,1,339,ratio13_5_20_4.png,,,,,,,,,,,,
,,,,,,,,,,,,Many,Most,More than half,All,Some,None,Few,Less than half,Half,0.416805556,-0.021627604,1,0,1,QQQ2,,,,,,,,English,2020-07-02_11h00.03.315,Experiment_English,3.2.4,MacIntel,60,,,1,0,340,260,1,339,ratio41_4_5_2.png,,,,,,,,,,,,
,,,,,,,,,,,,All,Few,None,Half,Many,Most,Less than half,More than half,Some,-0.381458333,0.272868924,1,0,1,QQQ7,,,,,,,,English,2020-07-02_11h00.03.315,Experiment_English,3.2.4,MacIntel,60,,,1,0,340,3,1,339,ratio12_2_6_3.png,,,,,,,,,,,,
,,,,,,,,,,,,Most,Many,Some,Half,Less than half,More than half,All,Few,None,-0.055538194,-0.028663194,1,0,1,QQQ5,,,,,,,,English,2020-07-02_11h00.03.315,Experiment_English,3.2.4,MacIntel,60,,,1,0,340,197,1,339,ratio23_8_20_6.png,,,,,,,,,,,,
,,,,,,,,,,,,More than half,Few,None,Many,All,Half,Some,Less than half,Most,-0.487517361,-0.264097222,1,0,1,QQQ9,,,,,,,,English,2020-07-02_11h00.03.315,Experiment_English,3.2.4,MacIntel,60,,,1,0,340,300,1,339,ratio51_5_6_1.png,,,,,,,,,,,,
,,,,,,,,,,,,None,Few,Less than half,More than half,Many,Most,Half,Some,All,0.444249132,-0.035577257,1,0,1,QQQ2,,,,,,,,English,2020-07-02_11h00.03.315,Experiment_English,3.2.4,MacIntel,60,,,1,0,340,1,1,339,ratio12_1_3_7.png,,,,,,,,,,,,
,,,,,,,,,,,,Some,All,Most,Many,Few,Half,More than half,Less than half,None,0.559123264,-0.321111111,1,0,1,QQQ3,,,,,,,,English,2020-07-02_11h00.03.315,Experiment_English,3.2.4,MacIntel,60,,,1,0,340,269,1,339,ratio41_8_10_6.png,,,,,,,,,,,,
,,,,,,,,,,,,More than half,Half,Some,Many,All,Most,Few,None,Less than half,-0.379735243,0.237617187,1,0,1,QQQ7,,,,,,,,English,2020-07-02_11h00.03.315,Experiment_English,3.2.4,MacIntel,60,,,1,0,340,100,1,339,ratio14_1_5_3.png,,,,,,,,,,,,
,,,,,,,,,,,,All,Half,Less than half,None,More than half,Many,Most,Some,Few,-0.427582465,-0.307491319,1,0,1,QQQ9,,,,,,,,English,2020-07-02_11h00.03.315,Experiment_English,3.2.4,MacIntel,60,,,1,0,340,121,1,339,ratio15_1_6_4.png,,,,,,,,,,,,
,,,,,,,,,,,,Less than half,Few,None,All,Most,Half,Some,Many,More than half,0.40297309,0.241532118,1,0,1,QQQ1,,,,,,,,English,2020-07-02_11h00.03.315,Experiment_English,3.2.4,MacIntel,60,,,1,0,340,246,1,339,ratio34_3_7_11.png,,,,,,,,,,,,
,,,,,,,,,,,,Many,None,Less than half,Half,Few,More than half,Most,All,Some,0.423546007,-0.277955729,1,0,1,QQQ3,,,,,,,,English,2020-07-02_11h00.03.315,Experiment_English,3.2.4,MacIntel,60,,,1,0,340,191,1,339,ratio23_6_15_7.png,,,,,,,,,,,,
,,,,,,,,,,,,More than half,None,Most,Less than half,Some,Half,Many,Few,All,-0.447947049,-0.03328125,1,0,1,QQQ8,,,,,,,,English,2020-07-02_11h00.03.315,Experiment_English,3.2.4,MacIntel,60,,,1,0,340,124,1,339,ratio15_1_6_16.png,,,,,,,,,,,,
,,,,,,,,,,,,All,Half,Few,Many,Some,Most,More than half,Less than half,None,-0.054852431,-0.340095486,1,0,1,QQQ6,,,,,,,,English,2020-07-02_11h00.03.315,Experiment_English,3.2.4,MacIntel,60,,,1,0,340,334,1,339,ratio91_18_20_9.png,,,,,,,,,,,,
,,,,,,,,,,,,Few,Most,Half,More than half,Many,All,Some,Less than half,None,0.424301215,0.258953993,1,0,1,QQQ1,,,,,,,,English,2020-07-02_11h00.03.315,Experiment_English,3.2.4,MacIntel,60,,,1,0,340,103,1,339,ratio14_1_5_9.png,,,,,,,,,,,,
,,,,,,,,,,,,Few,More than half,All,Some,None,Half,Less than half,Most,Many,-0.365737847,0.007686632,1,0,1,QQQ8,,,,,,,,English,2020-07-02_11h00.03.315,Experiment_English,3.2.4,MacIntel,60,,,1,0,340,306,1,339,ratio51_5_6_18.png,,,,,,,,,,,,
,,,,,,,,,,,,Less than half,All,Some,Many,Half,None,More than half,Most,Few,-0.486345486,-0.29968316,1,0,1,QQQ9,,,,,,,,English,2020-07-02_11h00.03.315,Experiment_English,3.2.4,MacIntel,60,,,1,0,340,157,1,339,ratio19_2_20_16.png,,,,,,,,,,,,
,,,,,,,,,,,,Less than half,None,Some,Many,Few,More than half,All,Most,Half,0.388424479,-0.035082465,1,0,1,QQQ2,,,,,,,,English,2020-07-02_11h00.03.315,Experiment_English,3.2.4,MacIntel,60,,,1,0,340,66,1,339,ratio0Y_0_9_8.png,,,,,,,,,,,,
,,,,,,,,,,,,Some,Many,Less than half,All,Few,More than half,None,Half,Most,-0.428506944,-0.282942708,1,0,1,QQQ9,,,,,,,,English,2020-07-02_11h00.03.315,Experiment_English,3.2.4,MacIntel,60,,,1,0,340,206,1,339,ratio31_6_8_6.png,,,,,,,,,,,,
,,,,,,,,,,,,More than half,All,None,Many,Some,Less than half,Most,Half,Few,0.512756076,0.328064236,1,0,1,QQQ1,,,,,,,,English,2020-07-02_11h00.03.315,Experiment_English,3.2.4,MacIntel,60,,,1,0,340,224,1,339,ratio32_3_5_10.png,,,,,,,,,,,,
,,,,,,,,,,,,Many,Some,None,Most,Few,More than half,All,Half,Less than half,0.013789062,-0.27921875,1,0,1,QQQ6,,,,,,,,English,2020-07-02_11h00.03.315,Experiment_English,3.2.4,MacIntel,60,,,1,0,340,298,1,339,ratio43_8_14_14.png,,,,,,,,,,,,
,,,,,,,,,,,,Many,Most,Some,All,None,Half,Less than half,More than half,Few,-0.482131076,0.008693576,1,0,1,QQQ8,,,,,,,,English,2020-07-02_11h00.03.315,Experiment_English,3.2.4,MacIntel,60,,,1,0,340,233,1,339,ratio32_9_15_9.png,,,,,,,,,,,,
,,,,,,,,,,,,Few,Many,Half,Most,Less than half,Some,None,All,More than half,-0.06687934,0.286731771,1,0,1,QQQ4,,,,,,,,English,2020-07-02_11h00.03.315,Experiment_English,3.2.4,MacIntel,60,,,1,0,340,307,1,339,ratio51_10_12_1.png,,,,,,,,,,,,
,,,,,,,,,,,,Many,More than half,All,Few,Some,Most,Less than half,None,Half,0.440642361,0.015494792,1,0,1,QQQ2,,,,,,,,English,2020-07-02_11h00.03.315,Experiment_English,3.2.4,MacIntel,60,,,1,0,340,15,1,339,ratio12_5_15_5.png,,,,,,,,,,,,
,,,,,,,,,,,,Half,Few,None,Many,Some,Most,Less than half,More than half,All,0.049457465,-0.325685764,1,0,1,QQQ6,,,,,,,,English,2020-07-02_11h00.03.315,Experiment_English,3.2.4,MacIntel,60,,,1,0,340,332,1,339,ratio91_18_20_4.png,,,,,,,,,,,,
,,,,,,,,,,,,Some,Few,More than half,Most,All,Half,Many,Less than half,None,-0.426046007,-0.302482639,1,0,1,QQQ9,,,,,,,,English,2020-07-02_11h00.03.315,Experiment_English,3.2.4,MacIntel,60,,,1,0,340,79,1,339,ratio0Y_0_20_4.png,,,,,,,,,,,,
,,,,,,,,,,,,Few,Most,All,None,Many,Less than half,Some,More than half,Half,0.444661458,-0.341883681,1,0,1,QQQ3,,,,,,,,English,2020-07-02_11h00.03.315,Experiment_English,3.2.4,MacIntel,60,,,1,0,340,41,1,339,ratioX0_4_4_9.png,,,,,,,,,,,,
,,,,,,,,,,,,Few,Many,All,More than half,Some,Half,None,Less than half,Most,0.494882812,0.235112847,1,0,1,QQQ1,,,,,,,,English,2020-07-02_11h00.03.315,Experiment_English,3.2.4,MacIntel,60,,,1,0,340,101,1,339,ratio14_1_5_7.png,,,,,,,,,,,,
,,,,,,,,,,,,Half,None,More than half,All,Few,Some,Many,Most,Less than half,-0.445434028,-0.249053819,1,0,1,QQQ9,,,,,,,,English,2020-07-02_11h00.03.315,Experiment_English,3.2.4,MacIntel,60,,,1,0,340,88,1,339,ratio13_3_12_5.png,,,,,,,,,,,,
,,,,,,,,,,,,Most,Few,Some,More than half,Half,None,Less than half,All,Many,0.429943576,0.294717882,1,0,1,QQQ1,,,,,,,,English,2020-07-02_11h00.03.315,Experiment_English,3.2.4,MacIntel,60,,,1,0,340,219,1,339,ratio31_15_20_10.png,,,,,,,,,,,,
,,,,,,,,,,,,Some,None,All,Few,Most,Many,More than half,Less than half,Half,0.060217014,0.268363715,1,0,1,QQQ4,,,,,,,,English,2020-07-02_11h00.03.315,Experiment_English,3.2.4,MacIntel,60,,,1,0,340,147,1,339,ratio19_1_10_18.png,,,,,,,,,,,,
,,,,,,,,,,,,Many,Some,Few,More than half,None,Most,All,Half,Less than half,0.05640625,-0.004830729,1,0,1,QQQ5,,,,,,,,English,2020-07-02_11h00.03.315,Experiment_English,3.2.4,MacIntel,60,,,1,0,340,75,1,339,ratio0Y_0_16_10.png,,,,,,,,,,,,
,,,,,,,,,,,,All,Some,None,Less than half,Few,Half,Most,More than half,Many,0.042434896,0.239244792,1,0,1,QQQ4,,,,,,,,English,2020-07-02_11h00.03.315,Experiment_English,3.2.4,MacIntel,60,,,1,0,340,8,1,339,ratio12_3_9_4.png,,,,,,,,,,,,
,,,,,,,,,,,,Less than half,All,Some,Half,Most,None,Few,More than half,Many,-0.367860243,0.266640625,1,0,1,QQQ7,,,,,,,,English,2020-07-02_11h00.03.315,Experiment_English,3.2.4,MacIntel,60,,,1,0,340,120,1,339,ratio15_1_6_1.png,,,,,,,,,,,,
,,,,,,,,,,,,None,All,Some,Half,Less than half,Most,Few,More than half,Many,-0.409735243,-0.005859375,1,0,1,QQQ8,,,,,,,,English,2020-07-02_11h00.03.315,Experiment_English,3.2.4,MacIntel,60,,,1,0,340,292,1,339,ratio43_8_14_6.png,,,,,,,,,,,,
,,,,,,,,,,,,Most,Less than half,None,Many,Some,More than half,Half,Few,All,0.496992188,0.011584201,1,0,1,QQQ2,,,,,,,,English,2020-07-02_11h00.03.315,Experiment_English,3.2.4,MacIntel,60,,,1,0,340,186,1,339,ratio23_4_10_2.png,0.386202257,-0.383945313,1,0,1,continue_button_pause,1,0,1,0,1,0
,,,,,,,,,,,,,,,,,,,,,,,,,,,,,,,,,,English,2020-07-02_11h00.03.315,Experiment_English,3.2.4,MacIntel,60,,,1,0,340,186,1,339,ratio23_4_10_2.png,,,,,,,,,,,,
,,,,,,,,,,,,Most,Some,Many,Less than half,More than half,None,All,Half,Few,-0.027782118,0.231440972,1,0,1,QQQ4,,,,,,,,English,2020-07-02_11h00.03.315,Experiment_English,3.2.4,MacIntel,60,,,1,0,340,208,1,339,ratio31_9_12_3.png,,,,,,,,,,,,
,,,,,,,,,,,,Most,Few,Many,All,None,Less than half,More than half,Some,Half,-0.399674479,0.254782986,1,0,1,QQQ7,,,,,,,,English,2020-07-02_11h00.03.315,Experiment_English,3.2.4,MacIntel,60,,,1,0,340,217,1,339,ratio31_15_20_5.png,,,,,,,,,,,,
,,,,,,,,,,,,Some,More than half,Less than half,Many,All,Half,Most,None,Few,0.465928819,-0.243619792,1,0,1,QQQ3,,,,,,,,English,2020-07-02_11h00.03.315,Experiment_English,3.2.4,MacIntel,60,,,1,0,340,114,1,339,ratio14_3_15_10.png,,,,,,,,,,,,
,,,,,,,,,,,,More than half,Less than half,Some,Most,All,None,Half,Few,Many,0.073428819,-0.024665799,1,0,1,QQQ5,,,,,,,,English,2020-07-02_11h00.03.315,Experiment_English,3.2.4,MacIntel,60,,,1,0,340,49,1,339,ratioX0_11_11_2.png,,,,,,,,,,,,
,,,,,,,,,,,,Few,Half,Many,More than half,None,All,Most,Less than half,Some,0.073428819,-0.024665799,1,0,1,QQQ5,,,,,,,,English,2020-07-02_11h00.03.315,Experiment_English,3.2.4,MacIntel,60,,,1,0,340,73,1,339,ratio0Y_0_14_7.png,,,,,,,,,,,,
,,,,,,,,,,,,All,More than half,Some,Less than half,Few,Half,None,Many,Most,-0.417356771,-0.312795139,1,0,1,QQQ9,,,,,,,,English,2020-07-02_11h00.03.315,Experiment_English,3.2.4,MacIntel,60,,,1,0,340,319,1,339,ratio51_15_18_20.png,,,,,,,,,,,,
,,,,,,,,,,,,All,Most,Many,Some,More than half,Half,Less than half,None,Few,0.427309028,0.320828993,1,0,1,QQQ1,,,,,,,,English,2020-07-02_11h00.03.315,Experiment_English,3.2.4,MacIntel,60,,,1,0,340,59,1,339,ratioX0_20_20_9.png,,,,,,,,,,,,
,,,,,,,,,,,,Many,Few,None,Half,More than half,Some,Less than half,All,Most,-0.486063368,-0.312226563,1,0,1,QQQ9,,,,,,,,English,2020-07-02_11h00.03.315,Experiment_English,3.2.4,MacIntel,60,,,1,0,340,207,1,339,ratio31_6_8_9.png,,,,,,,,,,,,
,,,,,,,,,,,,All,Few,Some,Half,None,Most,Many,More than half,Less than half,-0.414856771,-0.352591146,1,0,1,QQQ9,,,,,,,,English,2020-07-02_11h00.03.315,Experiment_English,3.2.4,MacIntel,60,,,1,0,340,237,1,339,ratio32_12_20_5.png,,,,,,,,,,,,
,,,,,,,,,,,,Less than half,All,More than half,Few,None,Half,Most,Some,Many,0.097144097,0.237126736,1,0,1,QQQ4,,,,,,,,English,2020-07-02_11h00.03.315,Experiment_English,3.2.4,MacIntel,60,,,1,0,340,85,1,339,ratio13_2_8_5.png,,,,,,,,,,,,
,,,,,,,,,,,,All,Many,Some,Most,Less than half,Few,More than half,None,Half,0.052274306,0.273888889,1,0,1,QQQ4,,,,,,,,English,2020-07-02_11h00.03.315,Experiment_English,3.2.4,MacIntel,60,,,1,0,340,266,1,339,ratio41_8_10_2.png,,,,,,,,,,,,
,,,,,,,,,,,,Half,Few,Less than half,Many,Some,Most,None,All,More than half,-0.400377604,-0.264487847,1,0,1,QQQ9,,,,,,,,English,2020-07-02_11h00.03.315,Experiment_English,3.2.4,MacIntel,60,,,1,0,340,178,1,339,ratio21_12_18_2.png,,,,,,,,,,,,
,,,,,,,,,,,,More than half,Some,Many,None,Most,Less than half,Half,All,Few,0.014631076,0.026853299,1,0,1,QQQ5,,,,,,,,English,2020-07-02_11h00.03.315,Experiment_English,3.2.4,MacIntel,60,,,1,0,340,263,1,339,ratio41_4_5_5.png,,,,,,,,,,,,
,,,,,,,,,,,,Some,Less than half,Many,Most,All,Half,None,More than half,Few,-0.380533854,-0.322773437,1,0,1,QQQ9,,,,,,,,English,2020-07-02_11h00.03.315,Experiment_English,3.2.4,MacIntel,60,,,1,0,340,153,1,339,ratio19_2_20_8.png,,,,,,,,,,,,
,,,,,,,,,,,,All,Few,Half,None,Many,Less than half,Most,More than half,Some,0.06499566,-0.250325521,1,0,1,QQQ6,,,,,,,,English,2020-07-02_11h00.03.315,Experiment_English,3.2.4,MacIntel,60,,,1,0,340,89,1,339,ratio13_3_12_6.png,,,,,,,,,,,,
,,,,,,,,,,,,None,Many,Half,Less than half,Few,Most,Some,All,More than half,0.088559028,0.364136285,1,0,1,QQQ4,,,,,,,,English,2020-07-02_11h00.03.315,Experiment_English,3.2.4,MacIntel,60,,,1,0,340,91,1,339,ratio13_3_12_10.png,,,,,,,,,,,,
,,,,,,,,,,,,All,Some,Few,Most,Half,None,Many,Less than half,More than half,-0.378450521,-0.236966146,1,0,1,QQQ9,,,,,,,,English,2020-07-02_11h00.03.315,Experiment_English,3.2.4,MacIntel,60,,,1,0,340,285,1,339,ratio43_4_7_14.png,,,,,,,,,,,,
,,,,,,,,,,,,More than half,Most,All,Less than half,Half,None,Many,Some,Few,-0.036844618,0.272356771,1,0,1,QQQ4,,,,,,,,English,2020-07-02_11h00.03.315,Experiment_English,3.2.4,MacIntel,60,,,1,0,340,98,1,339,ratio13_5_20_3.png,,,,,,,,,,,,
,,,,,,,,,,,,More than half,Less than half,Many,Some,None,Most,Half,All,Few,-0.363363715,-0.263741319,1,0,1,QQQ9,,,,,,,,English,2020-07-02_11h00.03.315,Experiment_English,3.2.4,MacIntel,60,,,1,0,340,107,1,339,ratio14_2_10_5.png,,,,,,,,,,,,
,,,,,,,,,,,,None,Many,Less than half,All,Few,Half,Most,Some,More than half,-0.415859375,0.25530816,1,0,1,QQQ7,,,,,,,,English,2020-07-02_11h00.03.315,Experiment_English,3.2.4,MacIntel,60,,,1,0,340,200,1,339,ratio31_3_4_4.png,,,,,,,,,,,,
,,,,,,,,,,,,Less than half,Most,More than half,Many,Some,Half,None,All,Few,-0.408307292,-0.280716146,1,0,1,QQQ9,,,,,,,,English,2020-07-02_11h00.03.315,Experiment_English,3.2.4,MacIntel,60,,,1,0,340,104,1,339,ratio14_1_5_10.png,,,,,,,,,,,,
,,,,,,,,,,,,More than half,Few,Some,Half,Most,Many,None,All,Less than half,-0.444179687,-0.303893229,1,0,1,QQQ9,,,,,,,,English,2020-07-02_11h00.03.315,Experiment_English,3.2.4,MacIntel,60,,,1,0,340,5,1,339,ratio12_2_6_9.png,,,,,,,,,,,,
,,,,,,,,,,,,Less than half,More than half,All,None,Many,Most,Half,Few,Some,0.431475694,0.310069444,1,0,1,QQQ1,,,,,,,,English,2020-07-02_11h00.03.315,Experiment_English,3.2.4,MacIntel,60,,,1,0,340,4,1,339,ratio12_2_6_5.png,,,,,,,,,,,,
,,,,,,,,,,,,Some,Many,Less than half,Half,None,More than half,All,Most,Few,0.479544271,-0.314210069,1,0,1,QQQ3,,,,,,,,English,2020-07-02_11h00.03.315,Experiment_English,3.2.4,MacIntel,60,,,1,0,340,84,1,339,ratio13_2_8_1.png,,,,,,,,,,,,
,,,,,,,,,,,,Many,All,Few,Most,Some,None,More than half,Half,Less than half,-0.016809896,-0.317981771,1,0,1,QQQ6,,,,,,,,English,2020-07-02_11h00.03.315,Experiment_English,3.2.4,MacIntel,60,,,1,0,340,71,1,339,ratio0Y_0_12_10.png,,,,,,,,,,,,
,,,,,,,,,,,,Many,None,Some,Few,All,Half,More than half,Less than half,Most,-0.375828993,-0.323641493,1,0,1,QQQ9,,,,,,,,English,2020-07-02_11h00.03.315,Experiment_English,3.2.4,MacIntel,60,,,1,0,340,301,1,339,ratio51_5_6_4.png,,,,,,,,,,,,
,,,,,,,,,,,,Less than half,Half,Some,All,More than half,Many,Most,Few,None,-0.419427083,-0.099184028,1,0,1,QQQ8,,,,,,,,English,2020-07-02_11h00.03.315,Experiment_English,3.2.4,MacIntel,60,,,1,0,340,148,1,339,ratio19_1_10_19.png,,,,,,,,,,,,
,,,,,,,,,,,,All,None,Many,Most,Less than half,Some,Few,Half,More than half,0.116393229,0.25125434,1,0,1,QQQ4,,,,,,,,English,2020-07-02_11h00.03.315,Experiment_English,3.2.4,MacIntel,60,,,1,0,340,336,1,339,ratio91_18_20_12.png,,,,,,,,,,,,
,,,,,,,,,,,,All,Many,Few,Less than half,Some,Most,Half,None,More than half,0.074796007,0.328880208,1,0,1,QQQ4,,,,,,,,English,2020-07-02_11h00.03.315,Experiment_English,3.2.4,MacIntel,60,,,1,0,340,242,1,339,ratio34_3_7_6.png,,,,,,,,,,,,
,,,,,,,,,,,,Few,Most,Less than half,All,Many,More than half,Half,Some,None,0.511458333,-0.007078993,1,0,1,QQQ2,,,,,,,,English,2020-07-02_11h00.03.315,Experiment_English,3.2.4,MacIntel,60,,,1,0,340,161,1,339,ratio21_2_3_8.png,,,,,,,,,,,,
,,,,,,,,,,,,More than half,Half,All,Few,Most,Many,Less than half,Some,None,-0.081206597,0.282669271,1,0,1,QQQ4,,,,,,,,English,2020-07-02_11h00.03.315,Experiment_English,3.2.4,MacIntel,60,,,1,0,340,131,1,339,ratio15_2_12_14.png,,,,,,,,,,,,
,,,,,,,,,,,,Half,Some,Most,All,More than half,Few,Less than half,Many,None,-0.391423611,0.278658854,1,0,1,QQQ7,,,,,,,,English,2020-07-02_11h00.03.315,Experiment_English,3.2.4,MacIntel,60,,,1,0,340,188,1,339,ratio23_4_10_6.png,,,,,,,,,,,,
,,,,,,,,,,,,Less than half,All,More than half,Half,Many,None,Some,Few,Most,-0.473142361,0.059201389,1,0,1,QQQ8,,,,,,,,English,2020-07-02_11h00.03.315,Experiment_English,3.2.4,MacIntel,60,,,1,0,340,139,1,339,ratio15_3_18_20.png,,,,,,,,,,,,
,,,,,,,,,,,,None,More than half,Many,All,Half,Most,Less than half,Few,Some,-0.444635417,0.238385417,1,0,1,QQQ7,,,,,,,,English,2020-07-02_11h00.03.315,Experiment_English,3.2.4,MacIntel,60,,,1,0,340,10,1,339,ratio12_4_12_4.png,0.350056424,-0.394040799,1,0,1,continue_button_pause,1,0,1,0,1,0
,,,,,,,,,,,,,,,,,,,,,,,,,,,,,,,,,,English,2020-07-02_11h00.03.315,Experiment_English,3.2.4,MacIntel,60,,,1,0,340,10,1,339,ratio12_4_12_4.png,,,,,,,,,,,,
,,,,,,,,,,,,None,All,Few,Some,More than half,Many,Most,Less than half,Half,0.434197049,-0.285833333,1,0,1,QQQ3,,,,,,,,English,2020-07-02_11h00.03.315,Experiment_English,3.2.4,MacIntel,60,,,1,0,340,81,1,339,ratio13_1_4_5.png,,,,,,,,,,,,
,,,,,,,,,,,,Less than half,Many,Half,None,More than half,Most,All,Some,Few,0.057769097,-0.035577257,1,0,1,QQQ5,,,,,,,,English,2020-07-02_11h00.03.315,Experiment_English,3.2.4,MacIntel,60,,,1,0,340,177,1,339,ratio21_12_18_1.png,,,,,,,,,,,,
,,,,,,,,,,,,None,Few,Half,More than half,All,Most,Less than half,Many,Some,0.381866319,0.053328993,1,0,1,QQQ2,,,,,,,,English,2020-07-02_11h00.03.315,Experiment_English,3.2.4,MacIntel,60,,,1,0,340,108,1,339,ratio14_2_10_6.png,,,,,,,,,,,,
,,,,,,,,,,,,More than half,Many,Few,Less than half,Most,Half,All,Some,None,-0.039184028,0.01515625,1,0,1,QQQ5,,,,,,,,English,2020-07-02_11h00.03.315,Experiment_English,3.2.4,MacIntel,60,,,1,0,340,303,1,339,ratio51_5_6_6.png,,,,,,,,,,,,
,,,,,,,,,,,,Less than half,Many,Some,All,More than half,None,Half,Few,Most,0.422096354,0.255425347,1,0,1,QQQ1,,,,,,,,English,2020-07-02_11h00.03.315,Experiment_English,3.2.4,MacIntel,60,,,1,0,340,39,1,339,ratio11_10_20_6.png,,,,,,,,,,,,
,,,,,,,,,,,,Many,Most,Some,Less than half,Few,Half,More than half,None,All,0.134045139,-0.030047743,1,0,1,QQQ5,,,,,,,,English,2020-07-02_11h00.03.315,Experiment_English,3.2.4,MacIntel,60,,,1,0,340,65,1,339,ratio0Y_0_8_4.png,,,,,,,,,,,,
,,,,,,,,,,,,More than half,Some,Less than half,Most,Few,All,Half,Many,None,0.053450521,0.226219618,1,0,1,QQQ4,,,,,,,,English,2020-07-02_11h00.03.315,Experiment_English,3.2.4,MacIntel,60,,,1,0,340,316,1,339,ratio51_15_18_11.png,,,,,,,,,,,,
,,,,,,,,,,,,More than half,All,Few,None,Some,Most,Many,Less than half,Half,0.430364583,-0.255026042,1,0,1,QQQ3,,,,,,,,English,2020-07-02_11h00.03.315,Experiment_English,3.2.4,MacIntel,60,,,1,0,340,136,1,339,ratio15_3_18_8.png,,,,,,,,,,,,
,,,,,,,,,,,,Many,All,More than half,Less than half,Some,None,Most,Few,Half,-0.441914062,0.27718316,1,0,1,QQQ7,,,,,,,,English,2020-07-02_11h00.03.315,Experiment_English,3.2.4,MacIntel,60,,,1,0,340,310,1,339,ratio51_10_12_12.png,,,,,,,,,,,,
,,,,,,,,,,,,Few,Many,Most,Some,Half,None,Less than half,More than half,All,-0.017790799,-0.285186632,1,0,1,QQQ6,,,,,,,,English,2020-07-02_11h00.03.315,Experiment_English,3.2.4,MacIntel,60,,,1,0,340,76,1,339,ratio0Y_0_17_10.png,,,,,,,,,,,,
,,,,,,,,,,,,All,Less than half,Half,Few,None,More than half,Most,Some,Many,0.023780382,0.264283854,1,0,1,QQQ4,,,,,,,,English,2020-07-02_11h00.03.315,Experiment_English,3.2.4,MacIntel,60,,,1,0,340,144,1,339,ratio19_1_10_11.png,,,,,,,,,,,,
,,,,,,,,,,,,Many,More than half,Half,None,Some,Most,Few,Less than half,All,0.108159722,-0.28483941,1,0,1,QQQ6,,,,,,,,English,2020-07-02_11h00.03.315,Experiment_English,3.2.4,MacIntel,60,,,1,0,340,261,1,339,ratio41_4_5_3.png,,,,,,,,,,,,
,,,,,,,,,,,,None,Less than half,Few,Some,All,More than half,Many,Half,Most,0.492573785,-0.032938368,1,0,1,QQQ2,,,,,,,,English,2020-07-02_11h00.03.315,Experiment_English,3.2.4,MacIntel,60,,,1,0,340,16,1,339,ratio12_5_15_6.png,,,,,,,,,,,,
,,,,,,,,,,,,Few,Most,Half,Some,Less than half,Many,More than half,All,None,0.060642361,-0.028689236,1,0,1,QQQ5,,,,,,,,English,2020-07-02_11h00.03.315,Experiment_English,3.2.4,MacIntel,60,,,1,0,340,282,1,339,ratio43_4_7_7.png,,,,,,,,,,,,
,,,,,,,,,,,,Few,Some,Most,More than half,All,Less than half,Many,Half,None,0.100607639,-0.337083333,1,0,1,QQQ6,,,,,,,,English,2020-07-02_11h00.03.315,Experiment_English,3.2.4,MacIntel,60,,,1,0,340,116,1,339,ratio14_4_20_3.png,,,,,,,,,,,,
,,,,,,,,,,,,All,Few,None,More than half,Many,Less than half,Some,Half,Most,0.023151042,0.254236111,1,0,1,QQQ4,,,,,,,,English,2020-07-02_11h00.03.315,Experiment_English,3.2.4,MacIntel,60,,,1,0,340,280,1,339,ratio43_4_7_2.png,,,,,,,,,,,,
,,,,,,,,,,,,None,Few,All,Less than half,Half,Some,Many,Most,More than half,0.037894965,0.008424479,1,0,1,QQQ5,,,,,,,,English,2020-07-02_11h00.03.315,Experiment_English,3.2.4,MacIntel,60,,,1,0,340,32,1,339,ratio11_7_14_5.png,,,,,,,,,,,,
,,,,,,,,,,,,More than half,Few,Some,Half,None,Most,All,Less than half,Many,-0.389574653,0.005546875,1,0,1,QQQ8,,,,,,,,English,2020-07-02_11h00.03.315,Experiment_English,3.2.4,MacIntel,60,,,1,0,340,185,1,339,ratio23_4_10_1.png,,,,,,,,,,,,
,,,,,,,,,,,,Few,Some,Half,Most,Less than half,More than half,Many,None,All,0.383784722,0.273472222,1,0,1,QQQ1,,,,,,,,English,2020-07-02_11h00.03.315,Experiment_English,3.2.4,MacIntel,60,,,1,0,340,140,1,339,ratio19_1_10_1.png,,,,,,,,,,,,
,,,,,,,,,,,,None,Half,Many,Most,Few,All,Some,More than half,Less than half,-0.036284722,0.324188368,1,0,1,QQQ4,,,,,,,,English,2020-07-02_11h00.03.315,Experiment_English,3.2.4,MacIntel,60,,,1,0,340,309,1,339,ratio51_10_12_10.png,,,,,,,,,,,,
,,,,,,,,,,,,None,Some,Most,All,Many,More than half,Half,Few,Less than half,0.464288194,-0.289548611,1,0,1,QQQ3,,,,,,,,English,2020-07-02_11h00.03.315,Experiment_English,3.2.4,MacIntel,60,,,1,0,340,304,1,339,ratio51_5_6_13.png,,,,,,,,,,,,
,,,,,,,,,,,,More than half,Half,None,Most,Few,Some,Many,Less than half,All,-0.429327257,-0.292630208,1,0,1,QQQ9,,,,,,,,English,2020-07-02_11h00.03.315,Experiment_English,3.2.4,MacIntel,60,,,1,0,340,54,1,339,ratioX0_15_15_5.png,,,,,,,,,,,,
,,,,,,,,,,,,Many,Half,None,Some,Few,Most,Less than half,More than half,All,-0.05812934,-0.012725694,1,0,1,QQQ5,,,,,,,,English,2020-07-02_11h00.03.315,Experiment_English,3.2.4,MacIntel,60,,,1,0,340,138,1,339,ratio15_3_18_17.png,,,,,,,,,,,,
,,,,,,,,,,,,Half,All,None,Some,Few,Most,More than half,Less than half,Many,-0.393645833,0.311779514,1,0,1,QQQ7,,,,,,,,English,2020-07-02_11h00.03.315,Experiment_English,3.2.4,MacIntel,60,,,1,0,340,209,1,339,ratio31_9_12_6.png,,,,,,,,,,,,
,,,,,,,,,,,,All,Less than half,Some,More than half,Half,None,Most,Few,Many,-0.110872396,0.337278646,1,0,1,QQQ4,,,,,,,,English,2020-07-02_11h00.03.315,Experiment_English,3.2.4,MacIntel,60,,,1,0,340,273,1,339,ratio41_12_15_8.png,,,,,,,,,,,,
,,,,,,,,,,,,Many,Most,Half,Some,More than half,Few,All,None,Less than half,-0.116358507,-0.021527778,1,0,1,QQQ5,,,,,,,,English,2020-07-02_11h00.03.315,Experiment_English,3.2.4,MacIntel,60,,,1,0,340,222,1,339,ratio32_3_5_4.png,,,,,,,,,,,,
,,,,,,,,,,,,None,Less than half,Half,More than half,Most,Some,Few,All,Many,-0.432243924,-0.000364583,1,0,1,QQQ8,,,,,,,,English,2020-07-02_11h00.03.315,Experiment_English,3.2.4,MacIntel,60,,,1,0,340,43,1,339,ratioX0_6_6_9.png,,,,,,,,,,,,
,,,,,,,,,,,,Half,Some,Few,More than half,Most,Less than half,Many,All,None,-0.06875434,0.03766059,1,0,1,QQQ5,,,,,,,,English,2020-07-02_11h00.03.315,Experiment_English,3.2.4,MacIntel,60,,,1,0,340,311,1,339,ratio51_10_12_14.png,,,,,,,,,,,,
,,,,,,,,,,,,Many,All,Few,More than half,None,Half,Less than half,Most,Some,-0.045872396,-0.016011285,1,0,1,QQQ5,,,,,,,,English,2020-07-02_11h00.03.315,Experiment_English,3.2.4,MacIntel,60,,,1,0,340,113,1,339,ratio14_3_15_8.png,,,,,,,,,,,,
,,,,,,,,,,,,More than half,Most,None,Half,Some,Less than half,All,Few,Many,0.455746528,0.289318576,1,0,1,QQQ1,,,,,,,,English,2020-07-02_11h00.03.315,Experiment_English,3.2.4,MacIntel,60,,,1,0,340,220,1,339,ratio32_3_5_1.png,,,,,,,,,,,,
,,,,,,,,,,,,Many,Some,Less than half,Half,Few,Most,All,More than half,None,0.447061632,-0.292122396,1,0,1,QQQ3,,,,,,,,English,2020-07-02_11h00.03.315,Experiment_English,3.2.4,MacIntel,60,,,1,0,340,112,1,339,ratio14_3_15_4.png,,,,,,,,,,,,
,,,,,,,,,,,,Less than half,Few,Most,Some,More than half,Many,Half,All,None,0.05233941,-0.061605903,1,0,1,QQQ5,,,,,,,,English,2020-07-02_11h00.03.315,Experiment_English,3.2.4,MacIntel,60,,,1,0,340,295,1,339,ratio43_8_14_11.png,,,,,,,,,,,,
,,,,,,,,,,,,Half,Most,Less than half,None,Many,Some,Few,More than half,All,-0.413302951,-0.276514757,1,0,1,QQQ9,,,,,,,,English,2020-07-02_11h00.03.315,Experiment_English,3.2.4,MacIntel,60,,,1,0,340,50,1,339,ratioX0_12_12_3.png,,,,,,,,,,,,
,,,,,,,,,,,,Less than half,Most,Some,Half,More than half,None,Few,Many,All,0.525863715,0.322217882,1,0,1,QQQ1,,,,,,,,English,2020-07-02_11h00.03.315,Experiment_English,3.2.4,MacIntel,60,,,1,0,340,12,1,339,ratio12_4_12_10.png,0.352204861,-0.398033854,1,0,1,continue_button_pause,1,0,1,0,1,0
,,,,,,,,,,,,,,,,,,,,,,,,,,,,,,,,,,English,2020-07-02_11h00.03.315,Experiment_English,3.2.4,MacIntel,60,,,1,0,340,12,1,339,ratio12_4_12_10.png,,,,,,,,,,,,
,,,,,,,,,,,,Half,Some,None,Less than half,Few,More than half,All,Many,Most,0.088797743,-0.289978299,1,0,1,QQQ6,,,,,,,,English,2020-07-02_11h00.03.315,Experiment_English,3.2.4,MacIntel,60,,,1,0,340,212,1,339,ratio31_12_16_1.png,,,,,,,,,,,,
,,,,,,,,,,,,More than half,Most,None,Many,Half,Some,Few,Less than half,All,0.419401042,-0.049084201,1,0,1,QQQ2,,,,,,,,English,2020-07-02_11h00.03.315,Experiment_English,3.2.4,MacIntel,60,,,1,0,340,264,1,339,ratio41_4_5_6.png,,,,,,,,,,,,
,,,,,,,,,,,,Half,Few,Many,All,Most,None,Some,Less than half,More than half,0.110651042,-0.029700521,1,0,1,QQQ5,,,,,,,,English,2020-07-02_11h00.03.315,Experiment_English,3.2.4,MacIntel,60,,,1,0,340,324,1,339,ratio91_9_10_7.png,,,,,,,,,,,,
,,,,,,,,,,,,Half,None,Many,Few,Less than half,Some,All,More than half,Most,-0.02625,0.33156684,1,0,1,QQQ4,,,,,,,,English,2020-07-02_11h00.03.315,Experiment_English,3.2.4,MacIntel,60,,,1,0,340,154,1,339,ratio19_2_20_11.png,,,,,,,,,,,,
,,,,,,,,,,,,Less than half,None,More than half,Half,Some,Most,Many,Few,All,0.38796441,0.342916667,1,0,1,QQQ1,,,,,,,,English,2020-07-02_11h00.03.315,Experiment_English,3.2.4,MacIntel,60,,,1,0,340,258,1,339,ratio34_6_14_14.png,,,,,,,,,,,,
,,,,,,,,,,,,Some,More than half,None,Less than half,All,Half,Most,Few,Many,0.077452257,0.038932292,1,0,1,QQQ5,,,,,,,,English,2020-07-02_11h00.03.315,Experiment_English,3.2.4,MacIntel,60,,,1,0,340,58,1,339,ratioX0_19_19_4.png,,,,,,,,,,,,
,,,,,,,,,,,,All,None,Some,Half,Most,Less than half,More than half,Few,Many,0.480060764,0.042860243,1,0,1,QQQ2,,,,,,,,English,2020-07-02_11h00.03.315,Experiment_English,3.2.4,MacIntel,60,,,1,0,340,61,1,339,ratio0Y_0_4_7.png,,,,,,,,,,,,
,,,,,,,,,,,,Many,Less than half,Most,Some,Few,Half,More than half,All,None,0.42499566,-0.024822049,1,0,1,QQQ2,,,,,,,,English,2020-07-02_11h00.03.315,Experiment_English,3.2.4,MacIntel,60,,,1,0,340,9,1,339,ratio12_3_9_5.png,,,,,,,,,,,,
,,,,,,,,,,,,All,None,Half,Few,Most,Less than half,More than half,Many,Some,0.024253472,-0.096263021,1,0,1,QQQ5,,,,,,,,English,2020-07-02_11h00.03.315,Experiment_English,3.2.4,MacIntel,60,,,1,0,340,328,1,339,ratio91_9_10_15.png,,,,,,,,,,,,
,,,,,,,,,,,,None,Less than half,Few,Half,More than half,Some,Many,All,Most,-0.527894965,-0.32218316,1,0,1,QQQ9,,,,,,,,English,2020-07-02_11h00.03.315,Experiment_English,3.2.4,MacIntel,60,,,1,0,340,327,1,339,ratio91_9_10_11.png,,,,,,,,,,,,
,,,,,,,,,,,,All,More than half,None,Many,Most,Less than half,Few,Half,Some,0.381241319,0.22344184,1,0,1,QQQ1,,,,,,,,English,2020-07-02_11h00.03.315,Experiment_English,3.2.4,MacIntel,60,,,1,0,340,40,1,339,ratioX0_3_3_5.png,,,,,,,,,,,,
,,,,,,,,,,,,Many,Half,Some,All,Few,None,More than half,Less than half,Most,-0.353389757,0.287947049,1,0,1,QQQ7,,,,,,,,English,2020-07-02_11h00.03.315,Experiment_English,3.2.4,MacIntel,60,,,1,0,340,297,1,339,ratio43_8_14_13.png,,,,,,,,,,,,
,,,,,,,,,,,,Most,None,Less than half,More than half,All,Some,Half,Many,Few,0.390138889,-0.232309028,1,0,1,QQQ3,,,,,,,,English,2020-07-02_11h00.03.315,Experiment_English,3.2.4,MacIntel,60,,,1,0,340,94,1,339,ratio13_4_16_8.png,,,,,,,,,,,,
,,,,,,,,,,,,Few,Less than half,More than half,All,Half,None,Most,Many,Some,0.120169271,-0.072222222,1,0,1,QQQ5,,,,,,,,English,2020-07-02_11h00.03.315,Experiment_English,3.2.4,MacIntel,60,,,1,0,340,251,1,339,ratio34_6_14_2.png,,,,,,,,,,,,
,,,,,,,,,,,,All,Some,Less than half,Half,More than half,Many,None,Most,Few,0.111176215,-0.069144965,1,0,1,QQQ5,,,,,,,,English,2020-07-02_11h00.03.315,Experiment_English,3.2.4,MacIntel,60,,,1,0,340,170,1,339,ratio21_6_9_8.png,,,,,,,,,,,,
,,,,,,,,,,,,More than half,Half,None,Most,Few,Less than half,Some,All,Many,0.459301215,-0.051618924,1,0,1,QQQ2,,,,,,,,English,2020-07-02_11h00.03.315,Experiment_English,3.2.4,MacIntel,60,,,1,0,340,290,1,339,ratio43_8_14_3.png,,,,,,,,,,,,
,,,,,,,,,,,,Some,Most,Many,All,More than half,None,Less than half,Half,Few,-0.368450521,0.292686632,1,0,1,QQQ7,,,,,,,,English,2020-07-02_11h00.03.315,Experiment_English,3.2.4,MacIntel,60,,,1,0,340,241,1,339,ratio34_3_7_5.png,,,,,,,,,,,,
,,,,,,,,,,,,Less than half,Many,Few,Half,All,Some,More than half,None,Most,-0.424852431,0.269505208,1,0,1,QQQ7,,,,,,,,English,2020-07-02_11h00.03.315,Experiment_English,3.2.4,MacIntel,60,,,1,0,340,226,1,339,ratio32_6_10_5.png,,,,,,,,,,,,
,,,,,,,,,,,,Less than half,Half,Some,All,None,Many,More than half,Few,Most,0.510807292,0.345295139,1,0,1,QQQ1,,,,,,,,English,2020-07-02_11h00.03.315,Experiment_English,3.2.4,MacIntel,60,,,1,0,340,249,1,339,ratio34_3_7_20.png,,,,,,,,,,,,
,,,,,,,,,,,,Many,Some,Most,None,More than half,Few,All,Less than half,Half,0.519118924,-0.256727431,1,0,1,QQQ3,,,,,,,,English,2020-07-02_11h00.03.315,Experiment_English,3.2.4,MacIntel,60,,,1,0,340,331,1,339,ratio91_18_20_3.png,,,,,,,,,,,,
,,,,,,,,,,,,Most,All,Some,Half,Less than half,Few,None,More than half,Many,0.043385417,0.240907118,1,0,1,QQQ4,,,,,,,,English,2020-07-02_11h00.03.315,Experiment_English,3.2.4,MacIntel,60,,,1,0,340,235,1,339,ratio32_12_20_1.png,,,,,,,,,,,,
,,,,,,,,,,,,Less than half,More than half,Many,Few,Some,None,All,Most,Half,0.415203993,0.038350694,1,0,1,QQQ2,,,,,,,,English,2020-07-02_11h00.03.315,Experiment_English,3.2.4,MacIntel,60,,,1,0,340,227,1,339,ratio32_6_10_6.png,,,,,,,,,,,,
,,,,,,,,,,,,Some,Half,Most,All,Few,None,More than half,Less than half,Many,-0.386106771,0.265859375,1,0,1,QQQ7,,,,,,,,English,2020-07-02_11h00.03.315,Experiment_English,3.2.4,MacIntel,60,,,1,0,340,203,1,339,ratio31_3_4_9.png,,,,,,,,,,,,
,,,,,,,,,,,,All,Half,Many,Few,None,Less than half,Most,Some,More than half,-0.362105035,0.252942708,1,0,1,QQQ7,,,,,,,,English,2020-07-02_11h00.03.315,Experiment_English,3.2.4,MacIntel,60,,,1,0,340,315,1,339,ratio51_15_18_10.png,,,,,,,,,,,,
,,,,,,,,,,,,Few,Most,All,Half,None,More than half,Many,Some,Less than half,0.036575521,-0.271267361,1,0,1,QQQ6,,,,,,,,English,2020-07-02_11h00.03.315,Experiment_English,3.2.4,MacIntel,60,,,1,0,340,221,1,339,ratio32_3_5_3.png,,,,,,,,,,,,
,,,,,,,,,,,,More than half,Less than half,Half,Most,Few,Many,All,Some,None,0.045364583,-0.064266493,1,0,1,QQQ5,,,,,,,,English,2020-07-02_11h00.03.315,Experiment_English,3.2.4,MacIntel,60,,,1,0,340,110,1,339,ratio14_3_15_2.png,,,,,,,,,,,,
,,,,,,,,,,,,Some,Many,None,Less than half,Few,Half,All,Most,More than half,0.045364583,-0.064266493,1,0,1,QQQ5,,,,,,,,English,2020-07-02_11h00.03.315,Experiment_English,3.2.4,MacIntel,60,,,1,0,340,82,1,339,ratio13_1_4_7.png,,,,,,,,,,,,
,,,,,,,,,,,,Many,Few,Half,Less than half,None,All,More than half,Some,Most,0.370186632,-0.022365451,1,0,1,QQQ2,,,,,,,,English,2020-07-02_11h00.03.315,Experiment_English,3.2.4,MacIntel,60,,,1,0,340,125,1,339,ratio15_1_6_19.png,,,,,,,,,,,,
,,,,,,,,,,,,Most,None,Many,All,Few,Half,Less than half,Some,More than half,0.087630208,-0.028311632,1,0,1,QQQ5,,,,,,,,English,2020-07-02_11h00.03.315,Experiment_English,3.2.4,MacIntel,60,,,1,0,340,129,1,339,ratio15_2_12_9.png,,,,,,,,,,,,
,,,,,,,,,,,,More than half,Few,Half,Most,All,None,Many,Less than half,Some,0.442447917,0.283532986,1,0,1,QQQ1,,,,,,,,English,2020-07-02_11h00.03.315,Experiment_English,3.2.4,MacIntel,60,,,1,0,340,283,1,339,ratio43_4_7_8.png,,,,,,,,,,,,
,,,,,,,,,,,,Less than half,None,More than half,Few,Half,All,Many,Some,Most,0.462178819,-0.280993924,1,0,1,QQQ3,,,,,,,,English,2020-07-02_11h00.03.315,Experiment_English,3.2.4,MacIntel,60,,,1,0,340,33,1,339,ratio11_7_14_8.png,,,,,,,,,,,,
,,,,,,,,,,,,Some,Many,None,All,Few,Less than half,Half,More than half,Most,0.004453125,0.306519097,1,0,1,QQQ4,,,,,,,,English,2020-07-02_11h00.03.315,Experiment_English,3.2.4,MacIntel,60,,,1,0,340,52,1,339,ratioX0_13_13_10.png,,,,,,,,,,,,
,,,,,,,,,,,,Many,Some,Few,Less than half,None,All,More than half,Half,Most,0.472543403,-0.271271701,1,0,1,QQQ3,,,,,,,,English,2020-07-02_11h00.03.315,Experiment_English,3.2.4,MacIntel,60,,,1,0,340,126,1,339,ratio15_2_12_1.png,,,,,,,,,,,,
,,,,,,,,,,,,Half,None,Some,Most,Many,Less than half,Few,More than half,All,-0.348368056,0.010177951,1,0,1,QQQ8,,,,,,,,English,2020-07-02_11h00.03.315,Experiment_English,3.2.4,MacIntel,60,,,1,0,340,281,1,339,ratio43_4_7_4.png,0.305911458,-0.385759549,1,0,1,continue_button_pause,1,0,1,0,1,0
,,,,,,,,,,,,,,,,,,,,,,,,,,,,,,,,,,English,2020-07-02_11h00.03.315,Experiment_English,3.2.4,MacIntel,60,,,1,0,340,281,1,339,ratio43_4_7_4.png,,,,,,,,,,,,
,,,,,,,,,,,,Half,Most,Many,More than half,Some,All,Less than half,Few,None,-0.374787326,-0.038945313,1,0,1,QQQ8,,,,,,,,English,2020-07-02_11h00.03.315,Experiment_English,3.2.4,MacIntel,60,,,1,0,340,95,1,339,ratio13_4_16_10.png,,,,,,,,,,,,
,,,,,,,,,,,,Half,None,Few,Some,Many,Most,All,More than half,Less than half,0.413524306,-0.265381944,1,0,1,QQQ3,,,,,,,,English,2020-07-02_11h00.03.315,Experiment_English,3.2.4,MacIntel,60,,,1,0,340,87,1,339,ratio13_2_8_8.png,,,,,,,,,,,,
,,,,,,,,,,,,Less than half,More than half,Half,Many,All,Few,Most,None,Some,0.439639757,0.272391493,1,0,1,QQQ1,,,,,,,,English,2020-07-02_11h00.03.315,Experiment_English,3.2.4,MacIntel,60,,,1,0,340,119,1,339,ratio14_4_20_10.png,,,,,,,,,,,,
,,,,,,,,,,,,All,Half,Many,Most,Few,Less than half,Some,None,More than half,-0.407092014,-0.260564236,1,0,1,QQQ9,,,,,,,,English,2020-07-02_11h00.03.315,Experiment_English,3.2.4,MacIntel,60,,,1,0,340,216,1,339,ratio31_15_20_3.png,,,,,,,,,,,,
,,,,,,,,,,,,None,Many,Most,Half,More than half,All,Less than half,Some,Few,0.00577691,-0.029878472,1,0,1,QQQ5,,,,,,,,English,2020-07-02_11h00.03.315,Experiment_English,3.2.4,MacIntel,60,,,1,0,340,176,1,339,ratio21_10_15_3.png,,,,,,,,,,,,
,,,,,,,,,,,,All,Many,Less than half,Some,Half,More than half,Most,Few,None,0.471818576,-0.280898437,1,0,1,QQQ3,,,,,,,,English,2020-07-02_11h00.03.315,Experiment_English,3.2.4,MacIntel,60,,,1,0,340,86,1,339,ratio13_2_8_6.png,,,,,,,,,,,,
,,,,,,,,,,,,None,Few,Less than half,More than half,Most,Many,Some,Half,All,0.493242187,-0.04905816,1,0,1,QQQ2,,,,,,,,English,2020-07-02_11h00.03.315,Experiment_English,3.2.4,MacIntel,60,,,1,0,340,159,1,339,ratio19_2_20_20.png,,,,,,,,,,,,
,,,,,,,,,,,,Few,None,Half,Some,Many,More than half,All,Less than half,Most,-0.395963542,-0.050659722,1,0,1,QQQ8,,,,,,,,English,2020-07-02_11h00.03.315,Experiment_English,3.2.4,MacIntel,60,,,1,0,340,118,1,339,ratio14_4_20_8.png,,,,,,,,,,,,
,,,,,,,,,,,,Half,Many,More than half,Less than half,Most,Some,None,All,Few,0.411263021,-0.269900174,1,0,1,QQQ3,,,,,,,,English,2020-07-02_11h00.03.315,Experiment_English,3.2.4,MacIntel,60,,,1,0,340,313,1,339,ratio51_15_18_2.png,,,,,,,,,,,,
,,,,,,,,,,,,More than half,Half,None,All,Most,Less than half,Some,Many,Few,0.07796441,-0.318177083,1,0,1,QQQ6,,,,,,,,English,2020-07-02_11h00.03.315,Experiment_English,3.2.4,MacIntel,60,,,1,0,340,187,1,339,ratio23_4_10_5.png,,,,,,,,,,,,
,,,,,,,,,,,,None,Most,More than half,Half,Some,Many,Few,All,Less than half,-0.389444444,-0.291380208,1,0,1,QQQ9,,,,,,,,English,2020-07-02_11h00.03.315,Experiment_English,3.2.4,MacIntel,60,,,1,0,340,165,1,339,ratio21_4_6_10.png,,,,,,,,,,,,
,,,,,,,,,,,,None,Many,Most,Few,Half,Some,More than half,All,Less than half,-0.045898438,0.02812066,1,0,1,QQQ5,,,,,,,,English,2020-07-02_11h00.03.315,Experiment_English,3.2.4,MacIntel,60,,,1,0,340,36,1,339,ratio11_9_18_1.png,,,,,,,,,,,,
,,,,,,,,,,,,All,More than half,Many,Most,Few,Less than half,None,Half,Some,0.006080729,-0.240399306,1,0,1,QQQ6,,,,,,,,English,2020-07-02_11h00.03.315,Experiment_English,3.2.4,MacIntel,60,,,1,0,340,128,1,339,ratio15_2_12_8.png,,,,,,,,,,,,
,,,,,,,,,,,,Most,More than half,Less than half,Few,None,Half,Some,All,Many,-0.428428819,-0.058810764,1,0,1,QQQ8,,,,,,,,English,2020-07-02_11h00.03.315,Experiment_English,3.2.4,MacIntel,60,,,1,0,340,57,1,339,ratioX0_18_18_1.png,,,,,,,,,,,,
,,,,,,,,,,,,More than half,All,Less than half,Some,Few,Half,Many,None,Most,0.470598958,-0.299075521,1,0,1,QQQ3,,,,,,,,English,2020-07-02_11h00.03.315,Experiment_English,3.2.4,MacIntel,60,,,1,0,340,127,1,339,ratio15_2_12_2.png,,,,,,,,,,,,
,,,,,,,,,,,,All,More than half,Some,None,Less than half,Half,Many,Most,Few,0.090416667,-0.002092014,1,0,1,QQQ5,,,,,,,,English,2020-07-02_11h00.03.315,Experiment_English,3.2.4,MacIntel,60,,,1,0,340,11,1,339,ratio12_4_12_7.png,,,,,,,,,,,,
,,,,,,,,,,,,Most,More than half,Less than half,Many,Half,Some,All,Few,None,0.439804688,-0.262929688,1,0,1,QQQ3,,,,,,,,English,2020-07-02_11h00.03.315,Experiment_English,3.2.4,MacIntel,60,,,1,0,340,92,1,339,ratio13_4_16_3.png,,,,,,,,,,,,
,,,,,,,,,,,,More than half,Less than half,Most,Some,Many,All,Half,Few,None,0.398164063,-0.281280382,1,0,1,QQQ3,,,,,,,,English,2020-07-02_11h00.03.315,Experiment_English,3.2.4,MacIntel,60,,,1,0,340,201,1,339,ratio31_3_4_7.png,,,,,,,,,,,,
,,,,,,,,,,,,More than half,Many,Some,None,All,Most,Less than half,Half,Few,0.045277778,-0.018997396,1,0,1,QQQ5,,,,,,,,English,2020-07-02_11h00.03.315,Experiment_English,3.2.4,MacIntel,60,,,1,0,340,47,1,339,ratioX0_9_9_4.png,,,,,,,,,,,,
,,,,,,,,,,,,Most,Few,More than half,Many,All,Half,Less than half,Some,None,0.458554688,-0.278181424,1,0,1,QQQ3,,,,,,,,English,2020-07-02_11h00.03.315,Experiment_English,3.2.4,MacIntel,60,,,1,0,340,238,1,339,ratio32_12_20_9.png,,,,,,,,,,,,
,,,,,,,,,,,,All,None,Half,Few,Many,Less than half,Most,More than half,Some,0.110590278,0.222491319,1,0,1,QQQ4,,,,,,,,English,2020-07-02_11h00.03.315,Experiment_English,3.2.4,MacIntel,60,,,1,0,340,158,1,339,ratio19_2_20_17.png,,,,,,,,,,,,
,,,,,,,,,,,,Few,None,Many,Less than half,Half,More than half,Some,All,Most,0.110590278,0.222491319,1,0,1,QQQ4,,,,,,,,English,2020-07-02_11h00.03.315,Experiment_English,3.2.4,MacIntel,60,,,1,0,340,190,1,339,ratio23_6_15_3.png,,,,,,,,,,,,
,,,,,,,,,,,,None,All,Some,Less than half,Most,Half,Few,Many,More than half,0.530946181,0.007400174,1,0,1,QQQ2,,,,,,,,English,2020-07-02_11h00.03.315,Experiment_English,3.2.4,MacIntel,60,,,1,0,340,56,1,339,ratioX0_17_17_10.png,,,,,,,,,,,,
,,,,,,,,,,,,Half,Few,More than half,Less than half,None,Some,All,Many,Most,0.409943576,0.009817708,1,0,1,QQQ2,,,,,,,,English,2020-07-02_11h00.03.315,Experiment_English,3.2.4,MacIntel,60,,,1,0,340,130,1,339,ratio15_2_12_12.png,,,,,,,,,,,,
,,,,,,,,,,,,Many,More than half,None,Some,Few,All,Less than half,Most,Half,-0.440108507,0.039522569,1,0,1,QQQ8,,,,,,,,English,2020-07-02_11h00.03.315,Experiment_English,3.2.4,MacIntel,60,,,1,0,340,339,1,339,ratio91_18_20_19.png,,,,,,,,,,,,
,,,,,,,,,,,,Less than half,None,Half,Most,All,Many,Some,More than half,Few,0.529500868,-0.014288194,1,0,1,QQQ2,,,,,,,,English,2020-07-02_11h00.03.315,Experiment_English,3.2.4,MacIntel,60,,,1,0,340,63,1,339,ratio0Y_0_6_8.png,,,,,,,,,,,,
,,,,,,,,,,,,All,Half,More than half,Less than half,Few,Many,None,Most,Some,0.019487847,0.28202691,1,0,1,QQQ4,,,,,,,,English,2020-07-02_11h00.03.315,Experiment_English,3.2.4,MacIntel,60,,,1,0,340,193,1,339,ratio23_6_15_9.png,,,,,,,,,,,,
,,,,,,,,,,,,Less than half,All,None,More than half,Few,Many,Most,Some,Half,0.429622396,0.085182292,1,0,1,QQQ2,,,,,,,,English,2020-07-02_11h00.03.315,Experiment_English,3.2.4,MacIntel,60,,,1,0,340,45,1,339,ratioX0_8_8_3.png,,,,,,,,,,,,
,,,,,,,,,,,,Less than half,All,More than half,Half,Most,None,Few,Many,Some,-0.009965278,0.278554688,1,0,1,QQQ4,,,,,,,,English,2020-07-02_11h00.03.315,Experiment_English,3.2.4,MacIntel,60,,,1,0,340,28,1,339,ratio11_5_10_9.png,,,,,,,,,,,,
,,,,,,,,,,,,Some,All,Many,Most,Less than half,Few,Half,More than half,None,-0.009123264,0.023715278,1,0,1,QQQ5,,,,,,,,English,2020-07-02_11h00.03.315,Experiment_English,3.2.4,MacIntel,60,,,1,0,340,14,1,339,ratio12_5_15_4.png,,,,,,,,,,,,
,,,,,,,,,,,,More than half,Less than half,All,Most,None,Many,Some,Half,Few,0.477039931,0.01358941,1,0,1,QQQ2,,,,,,,,English,2020-07-02_11h00.03.315,Experiment_English,3.2.4,MacIntel,60,,,1,0,340,247,1,339,ratio34_3_7_12.png,,,,,,,,,,,,
,,,,,,,,,,,,Less than half,Many,Few,Half,None,More than half,Some,All,Most,0.498637153,0.32108941,1,0,1,QQQ1,,,,,,,,English,2020-07-02_11h00.03.315,Experiment_English,3.2.4,MacIntel,60,,,1,0,340,93,1,339,ratio13_4_16_7.png,,,,,,,,,,,,
,,,,,,,,,,,,Some,Few,Less than half,Most,All,Many,None,More than half,Half,0.433381076,-0.293541667,1,0,1,QQQ3,,,,,,,,English,2020-07-02_11h00.03.315,Experiment_English,3.2.4,MacIntel,60,,,1,0,340,13,1,339,ratio12_5_15_3.png,,,,,,,,,,,,
,,,,,,,,,,,,Few,All,Many,More than half,None,Most,Some,Half,Less than half,0.455334201,0.240499132,1,0,1,QQQ1,,,,,,,,English,2020-07-02_11h00.03.315,Experiment_English,3.2.4,MacIntel,60,,,1,0,340,0,1,339,ratio12_1_3_3.png,0.322165799,-0.39312934,1,0,1,continue_button_pause,1,0,1,0,1,0
,,,,,,,,,,,,,,,,,,,,,,,,,,,,,,,,,,English,2020-07-02_11h00.03.315,Experiment_English,3.2.4,MacIntel,60,,,1,0,340,0,1,339,ratio12_1_3_3.png,,,,,,,,,,,,
,,,,,,,,,,,,Most,Less than half,Some,Many,All,Half,None,Few,More than half,0.489774306,-0.043541667,1,0,1,QQQ2,,,,,,,,English,2020-07-02_11h00.03.315,Experiment_English,3.2.4,MacIntel,60,,,1,0,340,6,1,339,ratio12_3_9_1.png,,,,,,,,,,,,
,,,,,,,,,,,,Most,Less than half,Some,None,Many,Half,Few,More than half,All,0.064327257,-0.296640625,1,0,1,QQQ6,,,,,,,,English,2020-07-02_11h00.03.315,Experiment_English,3.2.4,MacIntel,60,,,1,0,340,23,1,339,ratio11_3_6_9.png,,,,,,,,,,,,
,,,,,,,,,,,,None,Few,Many,Some,All,Less than half,More than half,Most,Half,-0.436983507,0.265212674,1,0,1,QQQ7,,,,,,,,English,2020-07-02_11h00.03.315,Experiment_English,3.2.4,MacIntel,60,,,1,0,340,213,1,339,ratio31_12_16_2.png,,,,,,,,,,,,
,,,,,,,,,,,,Many,Few,Most,None,All,Half,Less than half,Some,More than half,-0.393936632,0.266154514,1,0,1,QQQ7,,,,,,,,English,2020-07-02_11h00.03.315,Experiment_English,3.2.4,MacIntel,60,,,1,0,340,17,1,339,ratio12_6_18_5.png,,,,,,,,,,,,
,,,,,,,,,,,,Many,Half,Some,Less than half,None,Few,Most,More than half,All,-0.376688368,0.07000434,1,0,1,QQQ8,,,,,,,,English,2020-07-02_11h00.03.315,Experiment_English,3.2.4,MacIntel,60,,,1,0,340,26,1,339,ratio11_5_10_4.png,,,,,,,,,,,,
,,,,,,,,,,,,Most,Few,More than half,None,All,Some,Less than half,Many,Half,-0.390898437,0.260685764,1,0,1,QQQ7,,,,,,,,English,2020-07-02_11h00.03.315,Experiment_English,3.2.4,MacIntel,60,,,1,0,340,192,1,339,ratio23_6_15_8.png,,,,,,,,,,,,
,,,,,,,,,,,,Less than half,None,Some,All,Most,Few,Half,Many,More than half,0.463823785,0.287630208,1,0,1,QQQ1,,,,,,,,English,2020-07-02_11h00.03.315,Experiment_English,3.2.4,MacIntel,60,,,1,0,340,117,1,339,ratio14_4_20_6.png,,,,,,,,,,,,
,,,,,,,,,,,,Most,More than half,Many,Less than half,None,All,Few,Some,Half,0.455134549,0.051662326,1,0,1,QQQ2,,,,,,,,English,2020-07-02_11h00.03.315,Experiment_English,3.2.4,MacIntel,60,,,1,0,340,174,1,339,ratio21_10_15_1.png,,,,,,,,,,,,
,,,,,,,,,,,,None,Few,All,Most,Less than half,Half,Many,Some,More than half,0.412881944,-0.036532118,1,0,1,QQQ2,,,,,,,,English,2020-07-02_11h00.03.315,Experiment_English,3.2.4,MacIntel,60,,,1,0,340,150,1,339,ratio19_2_20_1.png,,,,,,,,,,,,
,,,,,,,,,,,,Most,Many,None,Less than half,All,More than half,Some,Few,Half,0.086914063,-0.252703993,1,0,1,QQQ6,,,,,,,,English,2020-07-02_11h00.03.315,Experiment_English,3.2.4,MacIntel,60,,,1,0,340,171,1,339,ratio21_8_12_4.png,,,,,,,,,,,,
,,,,,,,,,,,,Some,All,Many,Few,Most,Half,None,More than half,Less than half,0.380590278,0.005039063,1,0,1,QQQ2,,,,,,,,English,2020-07-02_11h00.03.315,Experiment_English,3.2.4,MacIntel,60,,,1,0,340,42,1,339,ratioX0_5_5_5.png,,,,,,,,,,,,
,,,,,,,,,,,,Many,Less than half,Some,All,More than half,Most,Few,Half,None,0.123007812,-0.239878472,1,0,1,QQQ6,,,,,,,,English,2020-07-02_11h00.03.315,Experiment_English,3.2.4,MacIntel,60,,,1,0,340,218,1,339,ratio31_15_20_7.png,,,,,,,,,,,,
,,,,,,,,,,,,Some,Few,Most,Many,Less than half,All,None,More than half,Half,0.408194444,0.03687934,1,0,1,QQQ2,,,,,,,,English,2020-07-02_11h00.03.315,Experiment_English,3.2.4,MacIntel,60,,,1,0,340,156,1,339,ratio19_2_20_14.png,,,,,,,,,,,,
,,,,,,,,,,,,Most,Less than half,None,Few,Half,Some,More than half,All,Many,-0.022070313,0.02000434,1,0,1,QQQ5,,,,,,,,English,2020-07-02_11h00.03.315,Experiment_English,3.2.4,MacIntel,60,,,1,0,340,24,1,339,ratio11_4_8_3.png,,,,,,,,,,,,
,,,,,,,,,,,,All,Some,Many,Less than half,More than half,Most,Half,None,Few,-0.009904514,0.257109375,1,0,1,QQQ4,,,,,,,,English,2020-07-02_11h00.03.315,Experiment_English,3.2.4,MacIntel,60,,,1,0,340,248,1,339,ratio34_3_7_19.png,,,,,,,,,,,,
,,,,,,,,,,,,Half,Many,Most,Few,All,Some,Less than half,More than half,None,-0.405199653,-0.244322917,1,0,1,QQQ9,,,,,,,,English,2020-07-02_11h00.03.315,Experiment_English,3.2.4,MacIntel,60,,,1,0,340,70,1,339,ratio0Y_0_12_5.png,,,,,,,,,,,,
,,,,,,,,,,,,Few,Less than half,All,Many,None,Some,Most,Half,More than half,-0.017300347,-0.059813368,1,0,1,QQQ5,,,,,,,,English,2020-07-02_11h00.03.315,Experiment_English,3.2.4,MacIntel,60,,,1,0,340,64,1,339,ratio0Y_0_7_1.png,,,,,,,,,,,,
,,,,,,,,,,,,All,Half,Less than half,Some,None,More than half,Most,Many,Few,-0.414726563,0.273793403,1,0,1,QQQ7,,,,,,,,English,2020-07-02_11h00.03.315,Experiment_English,3.2.4,MacIntel,60,,,1,0,340,268,1,339,ratio41_8_10_5.png,,,,,,,,,,,,
,,,,,,,,,,,,Many,All,Few,Most,Some,Half,None,Less than half,More than half,0.432560764,-0.289861111,1,0,1,QQQ3,,,,,,,,English,2020-07-02_11h00.03.315,Experiment_English,3.2.4,MacIntel,60,,,1,0,340,90,1,339,ratio13_3_12_7.png,,,,,,,,,,,,
,,,,,,,,,,,,None,Half,Less than half,Many,More than half,Few,Most,Some,All,-0.4525,0.341584201,1,0,1,QQQ7,,,,,,,,English,2020-07-02_11h00.03.315,Experiment_English,3.2.4,MacIntel,60,,,1,0,340,160,1,339,ratio21_2_3_2.png,,,,,,,,,,,,
,,,,,,,,,,,,Many,More than half,Some,Few,None,Less than half,All,Half,Most,0.383090278,-0.018776042,1,0,1,QQQ2,,,,,,,,English,2020-07-02_11h00.03.315,Experiment_English,3.2.4,MacIntel,60,,,1,0,340,239,1,339,ratio32_12_20_10.png,,,,,,,,,,,,
,,,,,,,,,,,,Few,Many,All,More than half,Most,None,Half,Less than half,Some,-0.030299479,0.274574653,1,0,1,QQQ4,,,,,,,,English,2020-07-02_11h00.03.315,Experiment_English,3.2.4,MacIntel,60,,,1,0,340,172,1,339,ratio21_8_12_6.png,,,,,,,,,,,,
,,,,,,,,,,,,None,Half,Many,Some,Most,Less than half,More than half,Few,All,0.088042535,-0.265611979,1,0,1,QQQ6,,,,,,,,English,2020-07-02_11h00.03.315,Experiment_English,3.2.4,MacIntel,60,,,1,0,340,97,1,339,ratio13_5_20_2.png,,,,,,,,,,,,
,,,,,,,,,,,,Many,All,Most,Half,Less than half,More than half,Some,Few,None,0.453702257,-0.358411458,1,0,1,QQQ3,,,,,,,,English,2020-07-02_11h00.03.315,Experiment_English,3.2.4,MacIntel,60,,,1,0,340,308,1,339,ratio51_10_12_9.png,,,,,,,,,,,,
,,,,,,,,,,,,Half,Less than half,Most,More than half,Many,Some,All,None,Few,-0.402282986,-0.302000868,1,0,1,QQQ9,,,,,,,,English,2020-07-02_11h00.03.315,Experiment_English,3.2.4,MacIntel,60,,,1,0,340,133,1,339,ratio15_3_18_3.png,,,,,,,,,,,,
,,,,,,,,,,,,More than half,None,Less than half,Half,Most,Many,All,Some,Few,-0.436427951,0.250082465,1,0,1,QQQ7,,,,,,,,English,2020-07-02_11h00.03.315,Experiment_English,3.2.4,MacIntel,60,,,1,0,340,46,1,339,ratioX0_9_9_3.png,,,,,,,,,,,,
,,,,,,,,,,,,Half,Some,None,Most,Few,All,Many,More than half,Less than half,-0.094739583,0.03859809,1,0,1,QQQ5,,,,,,,,English,2020-07-02_11h00.03.315,Experiment_English,3.2.4,MacIntel,60,,,1,0,340,7,1,339,ratio12_3_9_2.png,,,,,,,,,,,,
,,,,,,,,,,,,Less than half,All,Few,Half,Most,Many,More than half,Some,None,0.358789062,0.217456597,1,0,1,QQQ1,,,,,,,,English,2020-07-02_11h00.03.315,Experiment_English,3.2.4,MacIntel,60,,,1,0,340,111,1,339,ratio14_3_15_3.png,,,,,,,,,,,,
,,,,,,,,,,,,None,More than half,Most,Some,All,Many,Few,Half,Less than half,0.503771701,-0.001076389,1,0,1,QQQ2,,,,,,,,English,2020-07-02_11h00.03.315,Experiment_English,3.2.4,MacIntel,60,,,1,0,340,230,1,339,ratio32_9_15_1.png,,,,,,,,,,,,
,,,,,,,,,,,,Less than half,Few,Half,Many,Most,None,Some,More than half,All,-0.426644965,0.011618924,1,0,1,QQQ8,,,,,,,,English,2020-07-02_11h00.03.315,Experiment_English,3.2.4,MacIntel,60,,,1,0,340,169,1,339,ratio21_6_9_7.png,,,,,,,,,,,,
,,,,,,,,,,,,Half,All,Less than half,Few,Some,More than half,None,Most,Many,0.417599826,-0.301453993,1,0,1,QQQ3,,,,,,,,English,2020-07-02_11h00.03.315,Experiment_English,3.2.4,MacIntel,60,,,1,0,340,198,1,339,ratio23_8_20_7.png,,,,,,,,,,,,
,,,,,,,,,,,,Some,None,Less than half,Few,Half,More than half,All,Most,Many,0.417274306,-0.280694444,1,0,1,QQQ3,,,,,,,,English,2020-07-02_11h00.03.315,Experiment_English,3.2.4,MacIntel,60,,,1,0,340,134,1,339,ratio15_3_18_5.png,,,,,,,,,,,,
,,,,,,,,,,,,Many,Less than half,Half,None,Most,All,Few,Some,More than half,-0.374357639,-0.286080729,1,0,1,QQQ9,,,,,,,,English,2020-07-02_11h00.03.315,Experiment_English,3.2.4,MacIntel,60,,,1,0,340,162,1,339,ratio21_2_3_9.png,,,,,,,,,,,,
,,,,,,,,,,,,All,Many,Some,Few,More than half,Most,Less than half,Half,None,-0.502899306,-0.008454861,1,0,1,QQQ8,,,,,,,,English,2020-07-02_11h00.03.315,Experiment_English,3.2.4,MacIntel,60,,,1,0,340,30,1,339,ratio11_6_12_6.png,0.308715278,-0.401197917,1,0,1,continue_button_pause,1,0,1,0,1,0
,,,,,,,,,,,,,,,,,,,,,,,,,,,,,,,,,,English,2020-07-02_11h00.03.315,Experiment_English,3.2.4,MacIntel,60,,,1,0,340,30,1,339,ratio11_6_12_6.png,,,,,,,,,,,,
,,,,,,,,,,,,More than half,Half,Few,Many,Some,Most,Less than half,All,None,0.418606771,-0.019019097,1,0,1,QQQ2,,,,,,,,English,2020-07-02_11h00.03.315,Experiment_English,3.2.4,MacIntel,60,,,1,0,340,29,1,339,ratio11_6_12_1.png,,,,,,,,,,,,
,,,,,,,,,,,,Less than half,None,Some,All,More than half,Half,Most,Few,Many,0.135798611,-0.029036458,1,0,1,QQQ5,,,,,,,,English,2020-07-02_11h00.03.315,Experiment_English,3.2.4,MacIntel,60,,,1,0,340,317,1,339,ratio51_15_18_13.png,,,,,,,,,,,,
,,,,,,,,,,,,Less than half,Few,None,More than half,Many,Most,All,Some,Half,0.484053819,0.2925,1,0,1,QQQ1,,,,,,,,English,2020-07-02_11h00.03.315,Experiment_English,3.2.4,MacIntel,60,,,1,0,340,199,1,339,ratio23_8_20_8.png,,,,,,,,,,,,
,,,,,,,,,,,,Half,Some,Few,More than half,Many,None,Most,All,Less than half,-0.380507812,-0.231827257,1,0,1,QQQ9,,,,,,,,English,2020-07-02_11h00.03.315,Experiment_English,3.2.4,MacIntel,60,,,1,0,340,183,1,339,ratio23_2_5_9.png,,,,,,,,,,,,
,,,,,,,,,,,,More than half,None,Most,Many,All,Half,Few,Some,Less than half,-0.058072917,-0.029539931,1,0,1,QQQ5,,,,,,,,English,2020-07-02_11h00.03.315,Experiment_English,3.2.4,MacIntel,60,,,1,0,340,48,1,339,ratioX0_10_10_1.png,,,,,,,,,,,,
,,,,,,,,,,,,Many,None,Half,Some,Less than half,More than half,Most,Few,All,-0.058072917,-0.029539931,1,0,1,QQQ5,,,,,,,,English,2020-07-02_11h00.03.315,Experiment_English,3.2.4,MacIntel,60,,,1,0,340,19,1,339,ratio12_6_18_9.png,,,,,,,,,,,,
,,,,,,,,,,,,Less than half,Most,All,None,Few,More than half,Some,Many,Half,-0.028294271,-0.25312934,1,0,1,QQQ6,,,,,,,,English,2020-07-02_11h00.03.315,Experiment_English,3.2.4,MacIntel,60,,,1,0,340,289,1,339,ratio43_4_7_20.png,,,,,,,,,,,,
,,,,,,,,,,,,Less than half,Many,Most,Half,Few,Some,None,All,More than half,0.500646701,-0.297643229,1,0,1,QQQ3,,,,,,,,English,2020-07-02_11h00.03.315,Experiment_English,3.2.4,MacIntel,60,,,1,0,340,333,1,339,ratio91_18_20_6.png,,,,,,,,,,,,
,,,,,,,,,,,,Few,Most,More than half,Some,Less than half,Half,All,None,Many,0.465551215,-0.043871528,1,0,1,QQQ2,,,,,,,,English,2020-07-02_11h00.03.315,Experiment_English,3.2.4,MacIntel,60,,,1,0,340,318,1,339,ratio51_15_18_18.png,,,,,,,,,,,,
,,,,,,,,,,,,Some,None,All,Few,Half,Less than half,Many,Most,More than half,0.1390625,-0.270360243,1,0,1,QQQ6,,,,,,,,English,2020-07-02_11h00.03.315,Experiment_English,3.2.4,MacIntel,60,,,1,0,340,96,1,339,ratio13_5_20_1.png,,,,,,,,,,,,
,,,,,,,,,,,,All,Half,Less than half,Most,More than half,Few,None,Some,Many,0.055486111,-0.264288194,1,0,1,QQQ6,,,,,,,,English,2020-07-02_11h00.03.315,Experiment_English,3.2.4,MacIntel,60,,,1,0,340,122,1,339,ratio15_1_6_7.png,,,,,,,,,,,,
,,,,,,,,,,,,More than half,All,Less than half,Few,None,Many,Half,Most,Some,-0.410477431,-0.012126736,1,0,1,QQQ8,,,,,,,,English,2020-07-02_11h00.03.315,Experiment_English,3.2.4,MacIntel,60,,,1,0,340,329,1,339,ratio91_9_10_20.png,,,,,,,,,,,,
,,,,,,,,,,,,All,Many,None,Half,Some,Few,Less than half,Most,More than half,-0.426592882,-0.282834201,1,0,1,QQQ9,,,,,,,,English,2020-07-02_11h00.03.315,Experiment_English,3.2.4,MacIntel,60,,,1,0,340,278,1,339,ratio41_16_20_9.png,,,,,,,,,,,,
,,,,,,,,,,,,All,Half,More than half,Some,Most,Less than half,Few,None,Many,-0.379926215,-0.050703125,1,0,1,QQQ8,,,,,,,,English,2020-07-02_11h00.03.315,Experiment_English,3.2.4,MacIntel,60,,,1,0,340,68,1,339,ratio0Y_0_11_3.png,,,,,,,,,,,,
,,,,,,,,,,,,Many,Less than half,Half,None,More than half,All,Some,Few,Most,0.457052951,0.046471354,1,0,1,QQQ2,,,,,,,,English,2020-07-02_11h00.03.315,Experiment_English,3.2.4,MacIntel,60,,,1,0,340,245,1,339,ratio34_3_7_10.png,,,,,,,,,,,,
,,,,,,,,,,,,None,Some,Half,Most,Many,All,Less than half,More than half,Few,-0.486171875,0.005707465,1,0,1,QQQ8,,,,,,,,English,2020-07-02_11h00.03.315,Experiment_English,3.2.4,MacIntel,60,,,1,0,340,179,1,339,ratio21_12_18_8.png,,,,,,,,,,,,
,,,,,,,,,,,,None,Most,Some,Less than half,More than half,Few,All,Many,Half,0.082708333,0.298506944,1,0,1,QQQ4,,,,,,,,English,2020-07-02_11h00.03.315,Experiment_English,3.2.4,MacIntel,60,,,1,0,340,109,1,339,ratio14_2_10_9.png,,,,,,,,,,,,
,,,,,,,,,,,,Most,Some,All,Many,Few,More than half,Half,None,Less than half,-0.420772569,-0.284496528,1,0,1,QQQ9,,,,,,,,English,2020-07-02_11h00.03.315,Experiment_English,3.2.4,MacIntel,60,,,1,0,340,259,1,339,ratio34_6_14_19.png,,,,,,,,,,,,
,,,,,,,,,,,,Few,Many,Most,Less than half,All,More than half,None,Some,Half,0.01812934,-0.040421007,1,0,1,QQQ5,,,,,,,,English,2020-07-02_11h00.03.315,Experiment_English,3.2.4,MacIntel,60,,,1,0,340,53,1,339,ratioX0_14_14_8.png,,,,,,,,,,,,
,,,,,,,,,,,,More than half,Some,Most,Less than half,Few,All,Many,None,Half,-0.101306424,0.238263889,1,0,1,QQQ4,,,,,,,,English,2020-07-02_11h00.03.315,Experiment_English,3.2.4,MacIntel,60,,,1,0,340,18,1,339,ratio12_6_18_7.png,,,,,,,,,,,,
,,,,,,,,,,,,Some,More than half,Most,Many,Half,Few,All,None,Less than half,0.480794271,-0.282152778,1,0,1,QQQ3,,,,,,,,English,2020-07-02_11h00.03.315,Experiment_English,3.2.4,MacIntel,60,,,1,0,340,202,1,339,ratio31_3_4_8.png,,,,,,,,,,,,
,,,,,,,,,,,,All,Few,Most,Some,None,Half,Less than half,More than half,Many,-0.432999132,0.274830729,1,0,1,QQQ7,,,,,,,,English,2020-07-02_11h00.03.315,Experiment_English,3.2.4,MacIntel,60,,,1,0,340,38,1,339,ratio11_10_20_5.png,,,,,,,,,,,,
,,,,,,,,,,,,Many,More than half,Some,All,Few,Less than half,Most,Half,None,-0.444288194,0.041293403,1,0,1,QQQ8,,,,,,,,English,2020-07-02_11h00.03.315,Experiment_English,3.2.4,MacIntel,60,,,1,0,340,31,1,339,ratio11_6_12_9.png,,,,,,,,,,,,
,,,,,,,,,,,,None,Few,Most,Less than half,Some,More than half,Many,Half,All,0.037000868,-0.290577257,1,0,1,QQQ6,,,,,,,,English,2020-07-02_11h00.03.315,Experiment_English,3.2.4,MacIntel,60,,,1,0,340,223,1,339,ratio32_3_5_5.png,,,,,,,,,,,,
,,,,,,,,,,,,Some,Many,Half,More than half,None,Less than half,Few,All,Most,-0.017309028,0.247838542,1,0,1,QQQ4,,,,,,,,English,2020-07-02_11h00.03.315,Experiment_English,3.2.4,MacIntel,60,,,1,0,340,236,1,339,ratio32_12_20_2.png,,,,,,,,,,,,
,,,,,,,,,,,,Half,Few,Less than half,None,Most,All,Many,More than half,Some,0.487456597,0.011627604,1,0,1,QQQ2,,,,,,,,English,2020-07-02_11h00.03.315,Experiment_English,3.2.4,MacIntel,60,,,1,0,340,155,1,339,ratio19_2_20_13.png,,,,,,,,,,,,
,,,,,,,,,,,,Some,None,All,Half,More than half,Most,Many,Less than half,Few,-0.493502604,-0.021158854,1,0,1,QQQ8,,,,,,,,English,2020-07-02_11h00.03.315,Experiment_English,3.2.4,MacIntel,60,,,1,0,340,180,1,339,ratio23_2_5_4.png,,,,,,,,,,,,
,,,,,,,,,,,,Many,All,Few,Most,More than half,Less than half,None,Half,Some,0.473489583,-0.253064236,1,0,1,QQQ3,,,,,,,,English,2020-07-02_11h00.03.315,Experiment_English,3.2.4,MacIntel,60,,,1,0,340,123,1,339,ratio15_1_6_12.png,,,,,,,,,,,,
,,,,,,,,,,,,None,Some,Many,All,Half,More than half,Less than half,Most,Few,0.110863715,-0.27765191,1,0,1,QQQ6,,,,,,,,English,2020-07-02_11h00.03.315,Experiment_English,3.2.4,MacIntel,60,,,1,0,340,164,1,339,ratio21_4_6_6.png,,,,,,,,,,,,
,,,,,,,,,,,,More than half,Many,Most,All,Some,Few,Half,Less than half,None,-0.495616319,0.255212674,1,0,1,QQQ7,,,,,,,,English,2020-07-02_11h00.03.315,Experiment_English,3.2.4,MacIntel,60,,,1,0,340,37,1,339,ratio11_9_18_8.png,,,,,,,,,,,,
,,,,,,,,,,,,None,Few,More than half,Most,All,Half,Some,Many,Less than half,-0.038146701,0.004340278,1,0,1,QQQ5,,,,,,,,English,2020-07-02_11h00.03.315,Experiment_English,3.2.4,MacIntel,60,,,1,0,340,326,1,339,ratio91_9_10_10.png,,,,,,,,,,,,
,,,,,,,,,,,,Half,Few,All,None,Some,Most,More than half,Less than half,Many,-0.034210069,-0.276167535,1,0,1,QQQ6,,,,,,,,English,2020-07-02_11h00.03.315,Experiment_English,3.2.4,MacIntel,60,,,1,0,340,276,1,339,ratio41_16_20_4.png,,,,,,,,,,,,
,,,,,,,,,,,,Most,Many,All,Some,More than half,Half,Less than half,None,Few,-0.030091146,-0.044986979,1,0,1,QQQ5,,,,,,,,English,2020-07-02_11h00.03.315,Experiment_English,3.2.4,MacIntel,60,,,1,0,340,286,1,339,ratio43_4_7_15.png,,,,,,,,,,,,
,,,,,,,,,,,,Most,Half,Some,More than half,None,Few,Less than half,Many,All,0.023628472,0.252903646,1,0,1,QQQ4,,,,,,,,English,2020-07-02_11h00.03.315,Experiment_English,3.2.4,MacIntel,60,,,1,0,340,166,1,339,ratio21_6_9_1.png,,,,,,,,,,,,
