continue_mouse.x,continue_mouse.y,continue_mouse.leftButton,continue_mouse.midButton,continue_mouse.rightButton,continue_mouse.clicked_name,continue_mouse_2.x,continue_mouse_2.y,continue_mouse_2.leftButton,continue_mouse_2.midButton,continue_mouse_2.rightButton,continue_mouse_2.clicked_name,Q1,Q2,Q3,Q4,Q5,Q6,Q7,Q8,Q9,select_answer.x,select_answer.y,select_answer.leftButton,select_answer.midButton,select_answer.rightButton,select_answer.clicked_name,trial.thisRepN,trial.thisTrialN,trial.thisN,trial.thisIndex,trial.ran,trial.order,trials,Native tongue*,date,expName,psychopyVersion,OS,frameRate,key_resp.keys,key_resp.rt,trial_2.thisRepN,trial_2.thisTrialN,trial_2.thisN,trial_2.thisIndex,trial_2.ran,trial_2.order,continue_mouse_3.x,continue_mouse_3.y,continue_mouse_3.leftButton,continue_mouse_3.midButton,continue_mouse_3.rightButton,continue_mouse_3.clicked_name,insts.thisRepN,insts.thisTrialN,insts.thisN,insts.thisIndex,insts.ran,insts.order,Actual_Experiment.thisRepN,Actual_Experiment.thisTrialN,Actual_Experiment.thisN,Actual_Experiment.thisIndex,Actual_Experiment.ran,Actual_Experiment.order,Pic,mouse_pause.x,mouse_pause.y,mouse_pause.leftButton,mouse_pause.midButton,mouse_pause.rightButton,mouse_pause.clicked_name,pause.thisRepN,pause.thisTrialN,pause.thisN,pause.thisIndex,pause.ran,pause.order
0.34375,-0.424479167,1,0,0,continue_button,0.393229167,-0.421875,1,0,0,continue_button_2,Half,None,Many,More than half,Few,All,Some,Less than half,Most,0.60546875,-0.295572917,1,0,0,QQQ3,1,0,16,3,1,15,ratio41_8_10_8.png,English,2020-07-02_11h05.58.551,Experiment_English,3.2.4,Win32,60,,,,,,,,,,,,,,,,,,,,,,,,,,,,,,,,,,,,,,,
,,,,,,,,,,,,None,Most,Less than half,More than half,Few,Some,Many,All,Half,-0.442708333,-0.325520833,1,0,0,QQQ9,1,0,16,4,1,15,ratio34_3_7_3.png,English,2020-07-02_11h05.58.551,Experiment_English,3.2.4,Win32,60,,,,,,,,,,,,,,,,,,,,,,,,,,,,,,,,,,,,,,,
,,,,,,,,,,,,Most,Less than half,Few,Some,None,Many,Half,More than half,All,0.463541667,-0.294270833,1,0,0,QQQ3,1,0,16,9,1,15,ratio19_1_10_8.png,English,2020-07-02_11h05.58.551,Experiment_English,3.2.4,Win32,60,,,,,,,,,,,,,,,,,,,,,,,,,,,,,,,,,,,,,,,
,,,,,,,,,,,,More than half,All,Many,Some,None,Most,Half,Less than half,Few,-0.506510417,0.048177083,1,0,0,QQQ8,1,0,16,13,1,15,ratio12_5_15_1.png,English,2020-07-02_11h05.58.551,Experiment_English,3.2.4,Win32,60,,,,,,,,,,,,,,,,,,,,,,,,,,,,,,,,,,,,,,,
,,,,,,,,,,,,Many,Half,Some,Most,Less than half,All,None,Few,More than half,-0.444010417,-0.315104167,1,0,0,QQQ9,1,0,16,2,1,15,ratio43_8_14_19.png,English,2020-07-02_11h05.58.551,Experiment_English,3.2.4,Win32,60,,,,,,,,,,,,,,,,,,,,,,,,,,,,,,,,,,,,,,,
,,,,,,,,,,,,Less than half,Some,More than half,Many,Few,Half,All,Most,None,-0.057291667,0.27734375,1,0,0,QQQ4,,,,,,,ratio51_5_6_8.png,English,2020-07-02_11h05.58.551,Experiment_English,3.2.4,Win32,60,a,6.831000328,1,0,16,1,1,15,,,,,,,,,,,,,,,,,,,,,,,,,,,,,,,
,,,,,,,,,,,,Many,None,Less than half,Most,Half,Few,More than half,Some,All,0.053385417,-0.356770833,1,0,0,QQQ6,,,,,,,ratio19_1_10_8.png,English,2020-07-02_11h05.58.551,Experiment_English,3.2.4,Win32,60,,,1,0,16,9,1,15,,,,,,,,,,,,,,,,,,,,,,,,,,,,,,,
,,,,,,,,,,,,Many,Less than half,Some,More than half,Few,None,Most,All,Half,0.627604167,-0.02734375,1,0,0,QQQ2,,,,,,,ratio12_5_15_1.png,English,2020-07-02_11h05.58.551,Experiment_English,3.2.4,Win32,60,,,1,0,16,13,1,15,,,,,,,,,,,,,,,,,,,,,,,,,,,,,,,
,,,,,,,,,,,,Less than half,All,Many,Some,None,Half,More than half,Few,Most,-0.454427083,0.365885417,1,0,0,QQQ7,,,,,,,ratio43_8_14_19.png,English,2020-07-02_11h05.58.551,Experiment_English,3.2.4,Win32,60,,,1,0,16,2,1,15,,,,,,,,,,,,,,,,,,,,,,,,,,,,,,,
,,,,,,,,,,,,All,None,Some,Few,Half,More than half,Less than half,Most,Many,0.397135417,-0.0390625,1,0,0,QQQ2,,,,,,,ratio0Y_0_14_10.png,English,2020-07-02_11h05.58.551,Experiment_English,3.2.4,Win32,60,,,1,0,16,15,1,15,,,,,,,,,,,,,,,,,,,,,,,,,,,,,,,
,,,,,,,,,,,,,,,,,,,,,,,,,,,,,,,,,,English,2020-07-02_11h05.58.551,Experiment_English,3.2.4,Win32,60,,,,,,,,,0.33984375,-0.3984375,1,0,0,continue_button_3,1,0,1,0,1,0,,,,,,,,,,,,,,,,,,,
,,,,,,,,,,,,Some,Less than half,Many,Few,Half,More than half,None,Most,All,0.083333333,0.307291667,1,0,0,QQQ4,,,,,,,,English,2020-07-02_11h05.58.551,Experiment_English,3.2.4,Win32,60,,,,,,,,,,,,,,,,,,,,,1,0,340,101,1,339,ratio14_1_5_7.png,,,,,,,,,,,,
,,,,,,,,,,,,Few,Some,All,Most,Many,More than half,Half,None,Less than half,0.5546875,0.350260417,1,0,0,QQQ1,,,,,,,,English,2020-07-02_11h05.58.551,Experiment_English,3.2.4,Win32,60,,,,,,,,,,,,,,,,,,,,,1,0,340,158,1,339,ratio19_2_20_17.png,,,,,,,,,,,,
,,,,,,,,,,,,Half,Some,Less than half,Most,Few,None,Many,More than half,All,-0.505208333,-0.259114583,1,0,0,QQQ9,,,,,,,,English,2020-07-02_11h05.58.551,Experiment_English,3.2.4,Win32,60,,,,,,,,,,,,,,,,,,,,,1,0,340,53,1,339,ratioX0_14_14_8.png,,,,,,,,,,,,
,,,,,,,,,,,,Many,Half,Most,More than half,All,Less than half,Few,None,Some,0.046875,-0.26171875,1,0,0,QQQ6,,,,,,,,English,2020-07-02_11h05.58.551,Experiment_English,3.2.4,Win32,60,,,,,,,,,,,,,,,,,,,,,1,0,340,190,1,339,ratio23_6_15_3.png,,,,,,,,,,,,
,,,,,,,,,,,,Less than half,All,Some,Many,More than half,None,Few,Half,Most,-0.037760417,0.016927083,1,0,0,QQQ5,,,,,,,,English,2020-07-02_11h05.58.551,Experiment_English,3.2.4,Win32,60,,,,,,,,,,,,,,,,,,,,,1,0,340,281,1,339,ratio43_4_7_4.png,,,,,,,,,,,,
,,,,,,,,,,,,Half,None,Few,All,Some,Many,More than half,Less than half,Most,0.536458333,-0.3125,1,0,0,QQQ3,,,,,,,,English,2020-07-02_11h05.58.551,Experiment_English,3.2.4,Win32,60,,,,,,,,,,,,,,,,,,,,,1,0,340,108,1,339,ratio14_2_10_6.png,,,,,,,,,,,,
,,,,,,,,,,,,Many,Few,More than half,All,Less than half,Half,Some,Most,None,0.4453125,-0.276041667,1,0,0,QQQ3,,,,,,,,English,2020-07-02_11h05.58.551,Experiment_English,3.2.4,Win32,60,,,,,,,,,,,,,,,,,,,,,1,0,340,283,1,339,ratio43_4_7_8.png,,,,,,,,,,,,
,,,,,,,,,,,,Few,Most,All,Less than half,Many,Half,More than half,Some,None,0.59375,-0.305989583,1,0,0,QQQ3,,,,,,,,English,2020-07-02_11h05.58.551,Experiment_English,3.2.4,Win32,60,,,,,,,,,,,,,,,,,,,,,1,0,340,46,1,339,ratioX0_9_9_3.png,,,,,,,,,,,,
,,,,,,,,,,,,Most,Less than half,Many,Half,All,None,Few,Some,More than half,-0.471354167,0.33203125,1,0,0,QQQ7,,,,,,,,English,2020-07-02_11h05.58.551,Experiment_English,3.2.4,Win32,60,,,,,,,,,,,,,,,,,,,,,1,0,340,104,1,339,ratio14_1_5_10.png,,,,,,,,,,,,
,,,,,,,,,,,,More than half,All,Half,Many,Some,Less than half,Most,Few,None,-0.44921875,-0.048177083,1,0,0,QQQ8,,,,,,,,English,2020-07-02_11h05.58.551,Experiment_English,3.2.4,Win32,60,,,,,,,,,,,,,,,,,,,,,1,0,340,141,1,339,ratio19_1_10_2.png,,,,,,,,,,,,
,,,,,,,,,,,,Some,Many,Most,None,Half,More than half,All,Less than half,Few,0.026041667,-0.294270833,1,0,0,QQQ6,,,,,,,,English,2020-07-02_11h05.58.551,Experiment_English,3.2.4,Win32,60,,,,,,,,,,,,,,,,,,,,,1,0,340,227,1,339,ratio32_6_10_6.png,,,,,,,,,,,,
,,,,,,,,,,,,Few,Some,None,Many,Less than half,All,Most,More than half,Half,0.088541667,0.321614583,1,0,0,QQQ4,,,,,,,,English,2020-07-02_11h05.58.551,Experiment_English,3.2.4,Win32,60,,,,,,,,,,,,,,,,,,,,,1,0,340,301,1,339,ratio51_5_6_4.png,,,,,,,,,,,,
,,,,,,,,,,,,More than half,Many,Few,All,Most,None,Some,Half,Less than half,-0.498697917,-0.014322917,1,0,0,QQQ8,,,,,,,,English,2020-07-02_11h05.58.551,Experiment_English,3.2.4,Win32,60,,,,,,,,,,,,,,,,,,,,,1,0,340,93,1,339,ratio13_4_16_7.png,,,,,,,,,,,,
,,,,,,,,,,,,Many,Few,More than half,Less than half,Most,Some,None,Half,All,-0.083333333,0.29296875,1,0,0,QQQ4,,,,,,,,English,2020-07-02_11h05.58.551,Experiment_English,3.2.4,Win32,60,,,,,,,,,,,,,,,,,,,,,1,0,340,197,1,339,ratio23_8_20_6.png,,,,,,,,,,,,
,,,,,,,,,,,,More than half,Few,Most,Some,None,All,Half,Many,Less than half,0.06640625,-0.3125,1,0,0,QQQ6,,,,,,,,English,2020-07-02_11h05.58.551,Experiment_English,3.2.4,Win32,60,,,,,,,,,,,,,,,,,,,,,1,0,340,42,1,339,ratioX0_5_5_5.png,,,,,,,,,,,,
,,,,,,,,,,,,Many,Most,All,Half,Less than half,None,Few,Some,More than half,-0.501302083,0.3359375,1,0,0,QQQ7,,,,,,,,English,2020-07-02_11h05.58.551,Experiment_English,3.2.4,Win32,60,,,,,,,,,,,,,,,,,,,,,1,0,340,248,1,339,ratio34_3_7_19.png,,,,,,,,,,,,
,,,,,,,,,,,,Some,More than half,Many,Less than half,None,All,Most,Half,Few,-0.559895833,0.328125,1,0,0,QQQ7,,,,,,,,English,2020-07-02_11h05.58.551,Experiment_English,3.2.4,Win32,60,,,,,,,,,,,,,,,,,,,,,1,0,340,161,1,339,ratio21_2_3_8.png,,,,,,,,,,,,
,,,,,,,,,,,,More than half,Many,Some,Half,Few,All,Less than half,Most,None,0.061197917,-0.020833333,1,0,0,QQQ5,,,,,,,,English,2020-07-02_11h05.58.551,Experiment_English,3.2.4,Win32,60,,,,,,,,,,,,,,,,,,,,,1,0,340,92,1,339,ratio13_4_16_3.png,,,,,,,,,,,,
,,,,,,,,,,,,Few,All,Less than half,None,Most,Half,More than half,Many,Some,-0.385416667,0.290364583,1,0,0,QQQ7,,,,,,,,English,2020-07-02_11h05.58.551,Experiment_English,3.2.4,Win32,60,,,,,,,,,,,,,,,,,,,,,1,0,340,286,1,339,ratio43_4_7_15.png,,,,,,,,,,,,
,,,,,,,,,,,,More than half,None,Half,Most,Some,Few,All,Less than half,Many,-0.483072917,-0.328125,1,0,0,QQQ9,,,,,,,,English,2020-07-02_11h05.58.551,Experiment_English,3.2.4,Win32,60,,,,,,,,,,,,,,,,,,,,,1,0,340,293,1,339,ratio43_8_14_7.png,,,,,,,,,,,,
,,,,,,,,,,,,Some,Half,More than half,None,Many,Less than half,Most,All,Few,-0.522135417,-0.302083333,1,0,0,QQQ9,,,,,,,,English,2020-07-02_11h05.58.551,Experiment_English,3.2.4,Win32,60,,,,,,,,,,,,,,,,,,,,,1,0,340,126,1,339,ratio15_2_12_1.png,,,,,,,,,,,,
,,,,,,,,,,,,Many,Less than half,All,Half,Most,More than half,None,Some,Few,0.591145833,-0.01953125,1,0,0,QQQ2,,,,,,,,English,2020-07-02_11h05.58.551,Experiment_English,3.2.4,Win32,60,,,,,,,,,,,,,,,,,,,,,1,0,340,333,1,339,ratio91_18_20_6.png,,,,,,,,,,,,
,,,,,,,,,,,,None,Some,All,Less than half,More than half,Few,Half,Most,Many,-0.0078125,0.34765625,1,0,0,QQQ4,,,,,,,,English,2020-07-02_11h05.58.551,Experiment_English,3.2.4,Win32,60,,,,,,,,,,,,,,,,,,,,,1,0,340,31,1,339,ratio11_6_12_9.png,,,,,,,,,,,,
,,,,,,,,,,,,Some,More than half,Half,All,Less than half,Many,None,Few,Most,0.438802083,-0.3125,1,0,0,QQQ3,,,,,,,,English,2020-07-02_11h05.58.551,Experiment_English,3.2.4,Win32,60,,,,,,,,,,,,,,,,,,,,,1,0,340,250,1,339,ratio34_6_14_1.png,,,,,,,,,,,,
,,,,,,,,,,,,All,None,More than half,Half,Many,Some,Few,Less than half,Most,-0.020833333,0.354166667,1,0,0,QQQ4,,,,,,,,English,2020-07-02_11h05.58.551,Experiment_English,3.2.4,Win32,60,,,,,,,,,,,,,,,,,,,,,1,0,340,299,1,339,ratio43_8_14_17.png,,,,,,,,,,,,
,,,,,,,,,,,,Many,More than half,None,Some,All,Few,Half,Most,Less than half,-0.55078125,0.25,1,0,0,QQQ7,,,,,,,,English,2020-07-02_11h05.58.551,Experiment_English,3.2.4,Win32,60,,,,,,,,,,,,,,,,,,,,,1,0,340,247,1,339,ratio34_3_7_12.png,,,,,,,,,,,,
,,,,,,,,,,,,Half,None,Most,Some,Many,Few,All,More than half,Less than half,0.555989583,0.305989583,1,0,0,QQQ1,,,,,,,,English,2020-07-02_11h05.58.551,Experiment_English,3.2.4,Win32,60,,,,,,,,,,,,,,,,,,,,,1,0,340,298,1,339,ratio43_8_14_14.png,,,,,,,,,,,,
,,,,,,,,,,,,Half,None,Less than half,Most,Many,All,More than half,Some,Few,0.440104167,-0.330729167,1,0,0,QQQ3,,,,,,,,English,2020-07-02_11h05.58.551,Experiment_English,3.2.4,Win32,60,,,,,,,,,,,,,,,,,,,,,1,0,340,16,1,339,ratio12_5_15_6.png,,,,,,,,,,,,
,,,,,,,,,,,,Few,Some,All,Most,Less than half,None,Half,More than half,Many,-0.03125,0.3203125,1,0,0,QQQ4,,,,,,,,English,2020-07-02_11h05.58.551,Experiment_English,3.2.4,Win32,60,,,,,,,,,,,,,,,,,,,,,1,0,340,162,1,339,ratio21_2_3_9.png,,,,,,,,,,,,
,,,,,,,,,,,,Few,Most,More than half,None,Many,Some,All,Less than half,Half,0.459635417,-0.010416667,1,0,0,QQQ2,,,,,,,,English,2020-07-02_11h05.58.551,Experiment_English,3.2.4,Win32,60,,,,,,,,,,,,,,,,,,,,,1,0,340,28,1,339,ratio11_5_10_9.png,,,,,,,,,,,,
,,,,,,,,,,,,None,Most,All,Many,Some,More than half,Less than half,Few,Half,0.475260417,0.305989583,1,0,0,QQQ1,,,,,,,,English,2020-07-02_11h05.58.551,Experiment_English,3.2.4,Win32,60,,,,,,,,,,,,,,,,,,,,,1,0,340,76,1,339,ratio0Y_0_17_10.png,,,,,,,,,,,,
,,,,,,,,,,,,All,Most,None,Less than half,More than half,Half,Some,Few,Many,0.489583333,-0.024739583,1,0,0,QQQ2,,,,,,,,English,2020-07-02_11h05.58.551,Experiment_English,3.2.4,Win32,60,,,,,,,,,,,,,,,,,,,,,1,0,340,145,1,339,ratio19_1_10_15.png,,,,,,,,,,,,
,,,,,,,,,,,,Half,Few,Some,More than half,Most,Many,Less than half,None,All,0.5234375,-0.015625,1,0,0,QQQ2,,,,,,,,English,2020-07-02_11h05.58.551,Experiment_English,3.2.4,Win32,60,,,,,,,,,,,,,,,,,,,,,1,0,340,139,1,339,ratio15_3_18_20.png,,,,,,,,,,,,
,,,,,,,,,,,,Most,Less than half,More than half,Half,Many,Some,None,Few,All,0.06640625,0.266927083,1,0,0,QQQ4,,,,,,,,English,2020-07-02_11h05.58.551,Experiment_English,3.2.4,Win32,60,,,,,,,,,,,,,,,,,,,,,1,0,340,38,1,339,ratio11_10_20_5.png,0.326822917,-0.411458333,1,0,0,continue_button_pause,1,0,1,0,1,0
,,,,,,,,,,,,,,,,,,,,,,,,,,,,,,,,,,English,2020-07-02_11h05.58.551,Experiment_English,3.2.4,Win32,60,,,,,,,,,,,,,,,,,,,,,1,0,340,38,1,339,ratio11_10_20_5.png,,,,,,,,,,,,
,,,,,,,,,,,,Few,More than half,Half,Many,None,All,Less than half,Most,Some,-0.35546875,0.305989583,1,0,0,QQQ7,,,,,,,,English,2020-07-02_11h05.58.551,Experiment_English,3.2.4,Win32,60,,,,,,,,,,,,,,,,,,,,,1,0,340,183,1,339,ratio23_2_5_9.png,,,,,,,,,,,,
,,,,,,,,,,,,Half,Some,Few,All,Most,Less than half,More than half,None,Many,0.08984375,0.217447917,1,0,0,QQQ4,,,,,,,,English,2020-07-02_11h05.58.551,Experiment_English,3.2.4,Win32,60,,,,,,,,,,,,,,,,,,,,,1,0,340,57,1,339,ratioX0_18_18_1.png,,,,,,,,,,,,
,,,,,,,,,,,,Most,Half,Less than half,Few,Some,Many,None,All,More than half,0.5078125,0.234375,1,0,0,QQQ1,,,,,,,,English,2020-07-02_11h05.58.551,Experiment_English,3.2.4,Win32,60,,,,,,,,,,,,,,,,,,,,,1,0,340,176,1,339,ratio21_10_15_3.png,,,,,,,,,,,,
,,,,,,,,,,,,Some,More than half,All,None,Few,Half,Less than half,Most,Many,-0.591145833,0.333333333,1,0,0,QQQ7,,,,,,,,English,2020-07-02_11h05.58.551,Experiment_English,3.2.4,Win32,60,,,,,,,,,,,,,,,,,,,,,1,0,340,14,1,339,ratio12_5_15_4.png,,,,,,,,,,,,
,,,,,,,,,,,,Less than half,More than half,Half,Most,Many,All,Few,None,Some,0.0859375,0.294270833,1,0,0,QQQ4,,,,,,,,English,2020-07-02_11h05.58.551,Experiment_English,3.2.4,Win32,60,,,,,,,,,,,,,,,,,,,,,1,0,340,319,1,339,ratio51_15_18_20.png,,,,,,,,,,,,
,,,,,,,,,,,,All,Less than half,Some,Few,None,Many,More than half,Most,Half,0.026041667,-0.07421875,1,0,0,QQQ5,,,,,,,,English,2020-07-02_11h05.58.551,Experiment_English,3.2.4,Win32,60,,,,,,,,,,,,,,,,,,,,,1,0,340,72,1,339,ratio0Y_0_13_4.png,,,,,,,,,,,,
,,,,,,,,,,,,Some,Less than half,Many,Most,Few,More than half,None,Half,All,-0.48828125,-0.013020833,1,0,0,QQQ8,,,,,,,,English,2020-07-02_11h05.58.551,Experiment_English,3.2.4,Win32,60,,,,,,,,,,,,,,,,,,,,,1,0,340,22,1,339,ratio11_3_6_6.png,,,,,,,,,,,,
,,,,,,,,,,,,Less than half,Half,More than half,None,Few,Most,Many,Some,All,-0.033854167,-0.00390625,1,0,0,QQQ5,,,,,,,,English,2020-07-02_11h05.58.551,Experiment_English,3.2.4,Win32,60,,,,,,,,,,,,,,,,,,,,,1,0,340,83,1,339,ratio13_1_4_10.png,,,,,,,,,,,,
,,,,,,,,,,,,Half,More than half,Many,Few,Most,Some,None,All,Less than half,-0.493489583,-0.305989583,1,0,0,QQQ9,,,,,,,,English,2020-07-02_11h05.58.551,Experiment_English,3.2.4,Win32,60,,,,,,,,,,,,,,,,,,,,,1,0,340,188,1,339,ratio23_4_10_6.png,,,,,,,,,,,,
,,,,,,,,,,,,Most,Many,All,Less than half,Some,None,More than half,Few,Half,-0.00390625,-0.356770833,1,0,0,QQQ6,,,,,,,,English,2020-07-02_11h05.58.551,Experiment_English,3.2.4,Win32,60,,,,,,,,,,,,,,,,,,,,,1,0,340,70,1,339,ratio0Y_0_12_5.png,,,,,,,,,,,,
,,,,,,,,,,,,Less than half,Many,All,None,Few,Most,Some,More than half,Half,0.579427083,-0.294270833,1,0,0,QQQ3,,,,,,,,English,2020-07-02_11h05.58.551,Experiment_English,3.2.4,Win32,60,,,,,,,,,,,,,,,,,,,,,1,0,340,45,1,339,ratioX0_8_8_3.png,,,,,,,,,,,,
,,,,,,,,,,,,None,Few,Some,Many,Less than half,More than half,Most,All,Half,0.123697917,-0.001302083,1,0,0,QQQ5,,,,,,,,English,2020-07-02_11h05.58.551,Experiment_English,3.2.4,Win32,60,,,,,,,,,,,,,,,,,,,,,1,0,340,240,1,339,ratio34_3_7_4.png,,,,,,,,,,,,
,,,,,,,,,,,,Most,Many,More than half,None,Some,Half,All,Few,Less than half,0.477864583,0.05078125,1,0,0,QQQ2,,,,,,,,English,2020-07-02_11h05.58.551,Experiment_English,3.2.4,Win32,60,,,,,,,,,,,,,,,,,,,,,1,0,340,207,1,339,ratio31_6_8_9.png,,,,,,,,,,,,
,,,,,,,,,,,,Some,Half,All,Many,Few,Less than half,More than half,None,Most,0,-0.283854167,1,0,0,QQQ6,,,,,,,,English,2020-07-02_11h05.58.551,Experiment_English,3.2.4,Win32,60,,,,,,,,,,,,,,,,,,,,,1,0,340,244,1,339,ratio34_3_7_9.png,,,,,,,,,,,,
,,,,,,,,,,,,Half,Most,Some,Many,More than half,None,Less than half,Few,All,0.513020833,-0.006510417,1,0,0,QQQ2,,,,,,,,English,2020-07-02_11h05.58.551,Experiment_English,3.2.4,Win32,60,,,,,,,,,,,,,,,,,,,,,1,0,340,326,1,339,ratio91_9_10_10.png,,,,,,,,,,,,
,,,,,,,,,,,,None,Some,Half,All,More than half,Most,Few,Less than half,Many,-0.122395833,-0.033854167,1,0,0,QQQ5,,,,,,,,English,2020-07-02_11h05.58.551,Experiment_English,3.2.4,Win32,60,,,,,,,,,,,,,,,,,,,,,1,0,340,32,1,339,ratio11_7_14_5.png,,,,,,,,,,,,
,,,,,,,,,,,,Most,More than half,None,Many,Some,Less than half,Few,Half,All,-0.493489583,0.251302083,1,0,0,QQQ7,,,,,,,,English,2020-07-02_11h05.58.551,Experiment_English,3.2.4,Win32,60,,,,,,,,,,,,,,,,,,,,,1,0,340,114,1,339,ratio14_3_15_10.png,,,,,,,,,,,,
,,,,,,,,,,,,All,Half,Many,Most,Few,Some,None,Less than half,More than half,0.037760417,-0.024739583,1,0,0,QQQ5,,,,,,,,English,2020-07-02_11h05.58.551,Experiment_English,3.2.4,Win32,60,,,,,,,,,,,,,,,,,,,,,1,0,340,117,1,339,ratio14_4_20_6.png,,,,,,,,,,,,
,,,,,,,,,,,,Some,Half,Less than half,None,Most,Few,More than half,Many,All,0.484375,-0.3125,1,0,0,QQQ3,,,,,,,,English,2020-07-02_11h05.58.551,Experiment_English,3.2.4,Win32,60,,,,,,,,,,,,,,,,,,,,,1,0,340,185,1,339,ratio23_4_10_1.png,,,,,,,,,,,,
,,,,,,,,,,,,All,None,Many,Some,Few,Less than half,More than half,Most,Half,-0.572916667,0.315104167,1,0,0,QQQ7,,,,,,,,English,2020-07-02_11h05.58.551,Experiment_English,3.2.4,Win32,60,,,,,,,,,,,,,,,,,,,,,1,0,340,179,1,339,ratio21_12_18_8.png,,,,,,,,,,,,
,,,,,,,,,,,,Few,Most,Half,Some,Less than half,All,More than half,Many,None,-0.427083333,0.32421875,1,0,0,QQQ7,,,,,,,,English,2020-07-02_11h05.58.551,Experiment_English,3.2.4,Win32,60,,,,,,,,,,,,,,,,,,,,,1,0,340,236,1,339,ratio32_12_20_2.png,,,,,,,,,,,,
,,,,,,,,,,,,None,Less than half,Few,Some,More than half,Many,Most,All,Half,-0.037760417,0.313802083,1,0,0,QQQ4,,,,,,,,English,2020-07-02_11h05.58.551,Experiment_English,3.2.4,Win32,60,,,,,,,,,,,,,,,,,,,,,1,0,340,103,1,339,ratio14_1_5_9.png,,,,,,,,,,,,
,,,,,,,,,,,,Some,Less than half,Half,All,Few,Many,None,Most,More than half,-0.60546875,0.265625,1,0,0,QQQ7,,,,,,,,English,2020-07-02_11h05.58.551,Experiment_English,3.2.4,Win32,60,,,,,,,,,,,,,,,,,,,,,1,0,340,65,1,339,ratio0Y_0_8_4.png,,,,,,,,,,,,
,,,,,,,,,,,,None,Few,All,More than half,Half,Most,Less than half,Many,Some,0.016927083,0.016927083,1,0,0,QQQ5,,,,,,,,English,2020-07-02_11h05.58.551,Experiment_English,3.2.4,Win32,60,,,,,,,,,,,,,,,,,,,,,1,0,340,296,1,339,ratio43_8_14_12.png,,,,,,,,,,,,
,,,,,,,,,,,,None,Most,Half,Less than half,Some,Many,Few,All,More than half,0.471354167,0.024739583,1,0,0,QQQ2,,,,,,,,English,2020-07-02_11h05.58.551,Experiment_English,3.2.4,Win32,60,,,,,,,,,,,,,,,,,,,,,1,0,340,213,1,339,ratio31_12_16_2.png,,,,,,,,,,,,
,,,,,,,,,,,,Half,All,Less than half,None,Few,Most,Many,Some,More than half,0.010416667,-0.006510417,1,0,0,QQQ5,,,,,,,,English,2020-07-02_11h05.58.551,Experiment_English,3.2.4,Win32,60,,,,,,,,,,,,,,,,,,,,,1,0,340,9,1,339,ratio12_3_9_5.png,,,,,,,,,,,,
,,,,,,,,,,,,Few,More than half,Many,All,None,Half,Some,Most,Less than half,-0.493489583,-0.009114583,1,0,0,QQQ8,,,,,,,,English,2020-07-02_11h05.58.551,Experiment_English,3.2.4,Win32,60,,,,,,,,,,,,,,,,,,,,,1,0,340,261,1,339,ratio41_4_5_3.png,,,,,,,,,,,,
,,,,,,,,,,,,Half,Less than half,None,Few,Many,Some,All,More than half,Most,-0.104166667,0.278645833,1,0,0,QQQ4,,,,,,,,English,2020-07-02_11h05.58.551,Experiment_English,3.2.4,Win32,60,,,,,,,,,,,,,,,,,,,,,1,0,340,131,1,339,ratio15_2_12_14.png,,,,,,,,,,,,
,,,,,,,,,,,,Less than half,Few,Some,Many,More than half,All,Most,None,Half,-0.548177083,0.020833333,1,0,0,QQQ8,,,,,,,,English,2020-07-02_11h05.58.551,Experiment_English,3.2.4,Win32,60,,,,,,,,,,,,,,,,,,,,,1,0,340,79,1,339,ratio0Y_0_20_4.png,,,,,,,,,,,,
,,,,,,,,,,,,Some,None,All,Few,Many,Less than half,More than half,Most,Half,-0.013020833,0.302083333,1,0,0,QQQ4,,,,,,,,English,2020-07-02_11h05.58.551,Experiment_English,3.2.4,Win32,60,,,,,,,,,,,,,,,,,,,,,1,0,340,106,1,339,ratio14_2_10_2.png,,,,,,,,,,,,
,,,,,,,,,,,,More than half,Few,Half,Some,Many,All,None,Less than half,Most,0.484375,-0.024739583,1,0,0,QQQ2,,,,,,,,English,2020-07-02_11h05.58.551,Experiment_English,3.2.4,Win32,60,,,,,,,,,,,,,,,,,,,,,1,0,340,107,1,339,ratio14_2_10_5.png,,,,,,,,,,,,
,,,,,,,,,,,,Less than half,Many,None,Most,All,Some,Few,More than half,Half,-0.6171875,0.28515625,1,0,0,QQQ7,,,,,,,,English,2020-07-02_11h05.58.551,Experiment_English,3.2.4,Win32,60,,,,,,,,,,,,,,,,,,,,,1,0,340,155,1,339,ratio19_2_20_13.png,,,,,,,,,,,,
,,,,,,,,,,,,None,All,More than half,Few,Half,Many,Less than half,Some,Most,-0.537760417,0.018229167,1,0,0,QQQ8,,,,,,,,English,2020-07-02_11h05.58.551,Experiment_English,3.2.4,Win32,60,,,,,,,,,,,,,,,,,,,,,1,0,340,147,1,339,ratio19_1_10_18.png,,,,,,,,,,,,
,,,,,,,,,,,,Most,Many,None,Half,More than half,Few,Some,Less than half,All,-0.072916667,-0.029947917,1,0,0,QQQ5,,,,,,,,English,2020-07-02_11h05.58.551,Experiment_English,3.2.4,Win32,60,,,,,,,,,,,,,,,,,,,,,1,0,340,34,1,339,ratio11_8_16_8.png,0.3828125,-0.391927083,1,0,0,continue_button_pause,1,0,1,0,1,0
,,,,,,,,,,,,,,,,,,,,,,,,,,,,,,,,,,English,2020-07-02_11h05.58.551,Experiment_English,3.2.4,Win32,60,,,,,,,,,,,,,,,,,,,,,1,0,340,34,1,339,ratio11_8_16_8.png,,,,,,,,,,,,
,,,,,,,,,,,,All,Less than half,Some,Most,Few,None,Half,More than half,Many,-0.48046875,0.303385417,1,0,0,QQQ7,,,,,,,,English,2020-07-02_11h05.58.551,Experiment_English,3.2.4,Win32,60,,,,,,,,,,,,,,,,,,,,,1,0,340,36,1,339,ratio11_9_18_1.png,,,,,,,,,,,,
,,,,,,,,,,,,All,Many,Some,Few,Half,Less than half,More than half,None,Most,0.565104167,0.302083333,1,0,0,QQQ1,,,,,,,,English,2020-07-02_11h05.58.551,Experiment_English,3.2.4,Win32,60,,,,,,,,,,,,,,,,,,,,,1,0,340,49,1,339,ratioX0_11_11_2.png,,,,,,,,,,,,
,,,,,,,,,,,,Many,None,All,Less than half,Half,More than half,Most,Few,Some,-0.020833333,-0.325520833,1,0,0,QQQ6,,,,,,,,English,2020-07-02_11h05.58.551,Experiment_English,3.2.4,Win32,60,,,,,,,,,,,,,,,,,,,,,1,0,340,164,1,339,ratio21_4_6_6.png,,,,,,,,,,,,
,,,,,,,,,,,,All,Most,More than half,Few,Half,None,Many,Less than half,Some,-0.432291667,0.006510417,1,0,0,QQQ8,,,,,,,,English,2020-07-02_11h05.58.551,Experiment_English,3.2.4,Win32,60,,,,,,,,,,,,,,,,,,,,,1,0,340,253,1,339,ratio34_6_14_5.png,,,,,,,,,,,,
,,,,,,,,,,,,Less than half,Most,Many,Half,Few,Some,All,None,More than half,0.459635417,0.002604167,1,0,0,QQQ2,,,,,,,,English,2020-07-02_11h05.58.551,Experiment_English,3.2.4,Win32,60,,,,,,,,,,,,,,,,,,,,,1,0,340,331,1,339,ratio91_18_20_3.png,,,,,,,,,,,,
,,,,,,,,,,,,All,Half,Some,None,More than half,Few,Most,Many,Less than half,-0.388020833,0.311197917,1,0,0,QQQ7,,,,,,,,English,2020-07-02_11h05.58.551,Experiment_English,3.2.4,Win32,60,,,,,,,,,,,,,,,,,,,,,1,0,340,160,1,339,ratio21_2_3_2.png,,,,,,,,,,,,
,,,,,,,,,,,,Less than half,Few,Half,Some,More than half,None,Most,All,Many,0.606770833,-0.07421875,1,0,0,QQQ2,,,,,,,,English,2020-07-02_11h05.58.551,Experiment_English,3.2.4,Win32,60,,,,,,,,,,,,,,,,,,,,,1,0,340,159,1,339,ratio19_2_20_20.png,,,,,,,,,,,,
,,,,,,,,,,,,None,All,More than half,Some,Few,Most,Less than half,Many,Half,0.548177083,-0.014322917,1,0,0,QQQ2,,,,,,,,English,2020-07-02_11h05.58.551,Experiment_English,3.2.4,Win32,60,,,,,,,,,,,,,,,,,,,,,1,0,340,58,1,339,ratioX0_19_19_4.png,,,,,,,,,,,,
,,,,,,,,,,,,All,None,Few,Less than half,Many,Some,More than half,Half,Most,0.546875,-0.33203125,1,0,0,QQQ3,,,,,,,,English,2020-07-02_11h05.58.551,Experiment_English,3.2.4,Win32,60,,,,,,,,,,,,,,,,,,,,,1,0,340,128,1,339,ratio15_2_12_8.png,,,,,,,,,,,,
,,,,,,,,,,,,Many,Most,Less than half,More than half,Half,None,Some,All,Few,-0.4765625,-0.34375,1,0,0,QQQ9,,,,,,,,English,2020-07-02_11h05.58.551,Experiment_English,3.2.4,Win32,60,,,,,,,,,,,,,,,,,,,,,1,0,340,4,1,339,ratio12_2_6_5.png,,,,,,,,,,,,
,,,,,,,,,,,,More than half,Less than half,Half,Many,None,Few,Most,All,Some,0.557291667,0.311197917,1,0,0,QQQ1,,,,,,,,English,2020-07-02_11h05.58.551,Experiment_English,3.2.4,Win32,60,,,,,,,,,,,,,,,,,,,,,1,0,340,224,1,339,ratio32_3_5_10.png,,,,,,,,,,,,
,,,,,,,,,,,,Many,More than half,None,Some,Half,Less than half,Most,All,Few,0.611979167,0.016927083,1,0,0,QQQ2,,,,,,,,English,2020-07-02_11h05.58.551,Experiment_English,3.2.4,Win32,60,,,,,,,,,,,,,,,,,,,,,1,0,340,228,1,339,ratio32_6_10_7.png,,,,,,,,,,,,
,,,,,,,,,,,,All,Some,More than half,Less than half,Most,Many,None,Few,Half,0.584635417,0.328125,1,0,0,QQQ1,,,,,,,,English,2020-07-02_11h05.58.551,Experiment_English,3.2.4,Win32,60,,,,,,,,,,,,,,,,,,,,,1,0,340,59,1,339,ratioX0_20_20_9.png,,,,,,,,,,,,
,,,,,,,,,,,,Half,All,Some,Many,Less than half,None,More than half,Most,Few,-0.442708333,-0.2578125,1,0,0,QQQ9,,,,,,,,English,2020-07-02_11h05.58.551,Experiment_English,3.2.4,Win32,60,,,,,,,,,,,,,,,,,,,,,1,0,340,109,1,339,ratio14_2_10_9.png,,,,,,,,,,,,
,,,,,,,,,,,,None,All,More than half,Many,Few,Most,Some,Half,Less than half,0.484375,-0.287760417,1,0,0,QQQ3,,,,,,,,English,2020-07-02_11h05.58.551,Experiment_English,3.2.4,Win32,60,,,,,,,,,,,,,,,,,,,,,1,0,340,170,1,339,ratio21_6_9_8.png,,,,,,,,,,,,
,,,,,,,,,,,,Less than half,None,All,More than half,Few,Most,Many,Half,Some,0.010416667,0.307291667,1,0,0,QQQ4,,,,,,,,English,2020-07-02_11h05.58.551,Experiment_English,3.2.4,Win32,60,,,,,,,,,,,,,,,,,,,,,1,0,340,166,1,339,ratio21_6_9_1.png,,,,,,,,,,,,
,,,,,,,,,,,,Many,Some,Few,All,More than half,None,Half,Most,Less than half,0.509114583,-0.052083333,1,0,0,QQQ2,,,,,,,,English,2020-07-02_11h05.58.551,Experiment_English,3.2.4,Win32,60,,,,,,,,,,,,,,,,,,,,,1,0,340,121,1,339,ratio15_1_6_4.png,,,,,,,,,,,,
,,,,,,,,,,,,Less than half,None,All,Some,Most,More than half,Half,Few,Many,-0.098958333,0.0234375,1,0,0,QQQ5,,,,,,,,English,2020-07-02_11h05.58.551,Experiment_English,3.2.4,Win32,60,,,,,,,,,,,,,,,,,,,,,1,0,340,268,1,339,ratio41_8_10_5.png,,,,,,,,,,,,
,,,,,,,,,,,,Most,Half,Few,All,Some,Many,Less than half,More than half,None,0.634114583,-0.28515625,1,0,0,QQQ3,,,,,,,,English,2020-07-02_11h05.58.551,Experiment_English,3.2.4,Win32,60,,,,,,,,,,,,,,,,,,,,,1,0,340,157,1,339,ratio19_2_20_16.png,,,,,,,,,,,,
,,,,,,,,,,,,Few,None,More than half,Half,Less than half,Most,All,Some,Many,0.09375,-0.27734375,1,0,0,QQQ6,,,,,,,,English,2020-07-02_11h05.58.551,Experiment_English,3.2.4,Win32,60,,,,,,,,,,,,,,,,,,,,,1,0,340,305,1,339,ratio51_5_6_14.png,,,,,,,,,,,,
,,,,,,,,,,,,More than half,All,None,Some,Many,Half,Most,Less than half,Few,-0.44140625,-0.014322917,1,0,0,QQQ8,,,,,,,,English,2020-07-02_11h05.58.551,Experiment_English,3.2.4,Win32,60,,,,,,,,,,,,,,,,,,,,,1,0,340,187,1,339,ratio23_4_10_5.png,,,,,,,,,,,,
,,,,,,,,,,,,More than half,Most,Many,Few,None,Some,All,Less than half,Half,0.502604167,-0.018229167,1,0,0,QQQ2,,,,,,,,English,2020-07-02_11h05.58.551,Experiment_English,3.2.4,Win32,60,,,,,,,,,,,,,,,,,,,,,1,0,340,260,1,339,ratio41_4_5_2.png,,,,,,,,,,,,
,,,,,,,,,,,,All,None,Some,Many,More than half,Few,Half,Most,Less than half,-0.006510417,-0.3046875,1,0,0,QQQ6,,,,,,,,English,2020-07-02_11h05.58.551,Experiment_English,3.2.4,Win32,60,,,,,,,,,,,,,,,,,,,,,1,0,340,7,1,339,ratio12_3_9_2.png,,,,,,,,,,,,
,,,,,,,,,,,,More than half,None,Half,Few,Most,Less than half,Some,Many,All,0.041666667,0.013020833,1,0,0,QQQ5,,,,,,,,English,2020-07-02_11h05.58.551,Experiment_English,3.2.4,Win32,60,,,,,,,,,,,,,,,,,,,,,1,0,340,214,1,339,ratio31_12_16_5.png,,,,,,,,,,,,
,,,,,,,,,,,,None,Few,Less than half,Many,Most,Half,All,More than half,Some,0.084635417,0.026041667,1,0,0,QQQ5,,,,,,,,English,2020-07-02_11h05.58.551,Experiment_English,3.2.4,Win32,60,,,,,,,,,,,,,,,,,,,,,1,0,340,339,1,339,ratio91_18_20_19.png,,,,,,,,,,,,
,,,,,,,,,,,,None,All,Few,Half,More than half,Less than half,Some,Many,Most,-0.001302083,-0.34765625,1,0,0,QQQ6,,,,,,,,English,2020-07-02_11h05.58.551,Experiment_English,3.2.4,Win32,60,,,,,,,,,,,,,,,,,,,,,1,0,340,186,1,339,ratio23_4_10_2.png,,,,,,,,,,,,
,,,,,,,,,,,,Many,Some,None,Half,All,More than half,Few,Most,Less than half,-0.55859375,0.299479167,1,0,0,QQQ7,,,,,,,,English,2020-07-02_11h05.58.551,Experiment_English,3.2.4,Win32,60,,,,,,,,,,,,,,,,,,,,,1,0,340,203,1,339,ratio31_3_4_9.png,,,,,,,,,,,,
,,,,,,,,,,,,Few,Half,Many,Most,All,Some,More than half,Less than half,None,0.5,0.278645833,1,0,0,QQQ1,,,,,,,,English,2020-07-02_11h05.58.551,Experiment_English,3.2.4,Win32,60,,,,,,,,,,,,,,,,,,,,,1,0,340,137,1,339,ratio15_3_18_16.png,,,,,,,,,,,,
,,,,,,,,,,,,Some,Less than half,Half,None,All,Few,Most,More than half,Many,-0.0078125,-0.303385417,1,0,0,QQQ6,,,,,,,,English,2020-07-02_11h05.58.551,Experiment_English,3.2.4,Win32,60,,,,,,,,,,,,,,,,,,,,,1,0,340,132,1,339,ratio15_2_12_16.png,,,,,,,,,,,,
,,,,,,,,,,,,Few,Most,Some,Many,More than half,All,None,Less than half,Half,-0.442708333,-0.045572917,1,0,0,QQQ8,,,,,,,,English,2020-07-02_11h05.58.551,Experiment_English,3.2.4,Win32,60,,,,,,,,,,,,,,,,,,,,,1,0,340,6,1,339,ratio12_3_9_1.png,,,,,,,,,,,,
,,,,,,,,,,,,Most,More than half,Less than half,None,Few,Some,Many,Half,All,0.154947917,0.27734375,1,0,0,QQQ4,,,,,,,,English,2020-07-02_11h05.58.551,Experiment_English,3.2.4,Win32,60,,,,,,,,,,,,,,,,,,,,,1,0,340,61,1,339,ratio0Y_0_4_7.png,,,,,,,,,,,,
,,,,,,,,,,,,Some,Most,More than half,All,Less than half,Half,Few,Many,None,-0.421875,0.27734375,1,0,0,QQQ7,,,,,,,,English,2020-07-02_11h05.58.551,Experiment_English,3.2.4,Win32,60,,,,,,,,,,,,,,,,,,,,,1,0,340,182,1,339,ratio23_2_5_7.png,,,,,,,,,,,,
,,,,,,,,,,,,More than half,Most,None,Many,Less than half,Half,All,Some,Few,0.43359375,-0.033854167,1,0,0,QQQ2,,,,,,,,English,2020-07-02_11h05.58.551,Experiment_English,3.2.4,Win32,60,,,,,,,,,,,,,,,,,,,,,1,0,340,318,1,339,ratio51_15_18_18.png,,,,,,,,,,,,
,,,,,,,,,,,,Most,Few,More than half,Many,Some,Less than half,None,All,Half,0.013020833,0.002604167,1,0,0,QQQ5,,,,,,,,English,2020-07-02_11h05.58.551,Experiment_English,3.2.4,Win32,60,,,,,,,,,,,,,,,,,,,,,1,0,340,143,1,339,ratio19_1_10_9.png,0.411458333,-0.4296875,1,0,0,continue_button_pause,1,0,1,0,1,0
,,,,,,,,,,,,,,,,,,,,,,,,,,,,,,,,,,English,2020-07-02_11h05.58.551,Experiment_English,3.2.4,Win32,60,,,,,,,,,,,,,,,,,,,,,1,0,340,143,1,339,ratio19_1_10_9.png,,,,,,,,,,,,
,,,,,,,,,,,,More than half,Few,Less than half,Most,Some,Many,None,Half,All,-0.088541667,0.283854167,1,0,0,QQQ4,,,,,,,,English,2020-07-02_11h05.58.551,Experiment_English,3.2.4,Win32,60,,,,,,,,,,,,,,,,,,,,,1,0,340,335,1,339,ratio91_18_20_11.png,,,,,,,,,,,,
,,,,,,,,,,,,Few,None,Most,Many,More than half,Half,Less than half,All,Some,0.615885417,0.3125,1,0,0,QQQ1,,,,,,,,English,2020-07-02_11h05.58.551,Experiment_English,3.2.4,Win32,60,,,,,,,,,,,,,,,,,,,,,1,0,340,129,1,339,ratio15_2_12_9.png,,,,,,,,,,,,
,,,,,,,,,,,,Few,All,Half,None,More than half,Most,Many,Some,Less than half,-0.005208333,-0.309895833,1,0,0,QQQ6,,,,,,,,English,2020-07-02_11h05.58.551,Experiment_English,3.2.4,Win32,60,,,,,,,,,,,,,,,,,,,,,1,0,340,328,1,339,ratio91_9_10_15.png,,,,,,,,,,,,
,,,,,,,,,,,,More than half,Most,Some,Less than half,Many,Half,None,All,Few,0.01953125,0.298177083,1,0,0,QQQ4,,,,,,,,English,2020-07-02_11h05.58.551,Experiment_English,3.2.4,Win32,60,,,,,,,,,,,,,,,,,,,,,1,0,340,17,1,339,ratio12_6_18_5.png,,,,,,,,,,,,
,,,,,,,,,,,,Most,Half,Less than half,More than half,Some,Few,All,None,Many,0.03515625,0.317708333,1,0,0,QQQ4,,,,,,,,English,2020-07-02_11h05.58.551,Experiment_English,3.2.4,Win32,60,,,,,,,,,,,,,,,,,,,,,1,0,340,285,1,339,ratio43_4_7_14.png,,,,,,,,,,,,
,,,,,,,,,,,,Most,All,Few,Some,More than half,Half,Many,Less than half,None,0.014322917,0.360677083,1,0,0,QQQ4,,,,,,,,English,2020-07-02_11h05.58.551,Experiment_English,3.2.4,Win32,60,,,,,,,,,,,,,,,,,,,,,1,0,340,149,1,339,ratio19_1_10_20.png,,,,,,,,,,,,
,,,,,,,,,,,,Many,Less than half,Most,Some,None,More than half,All,Half,Few,-0.458333333,0.252604167,1,0,0,QQQ7,,,,,,,,English,2020-07-02_11h05.58.551,Experiment_English,3.2.4,Win32,60,,,,,,,,,,,,,,,,,,,,,1,0,340,47,1,339,ratioX0_9_9_4.png,,,,,,,,,,,,
,,,,,,,,,,,,Many,Some,All,None,Half,More than half,Less than half,Most,Few,-0.427083333,-0.009114583,1,0,0,QQQ8,,,,,,,,English,2020-07-02_11h05.58.551,Experiment_English,3.2.4,Win32,60,,,,,,,,,,,,,,,,,,,,,1,0,340,336,1,339,ratio91_18_20_12.png,,,,,,,,,,,,
,,,,,,,,,,,,None,All,Few,More than half,Less than half,Many,Most,Some,Half,0.58984375,-0.346354167,1,0,0,QQQ3,,,,,,,,English,2020-07-02_11h05.58.551,Experiment_English,3.2.4,Win32,60,,,,,,,,,,,,,,,,,,,,,1,0,340,91,1,339,ratio13_3_12_10.png,,,,,,,,,,,,
,,,,,,,,,,,,None,Half,Few,Most,Some,Many,Less than half,More than half,All,-0.48046875,0.2890625,1,0,0,QQQ7,,,,,,,,English,2020-07-02_11h05.58.551,Experiment_English,3.2.4,Win32,60,,,,,,,,,,,,,,,,,,,,,1,0,340,259,1,339,ratio34_6_14_19.png,,,,,,,,,,,,
,,,,,,,,,,,,Some,Most,None,All,Less than half,More than half,Many,Few,Half,-0.57421875,0.0234375,1,0,0,QQQ8,,,,,,,,English,2020-07-02_11h05.58.551,Experiment_English,3.2.4,Win32,60,,,,,,,,,,,,,,,,,,,,,1,0,340,150,1,339,ratio19_2_20_1.png,,,,,,,,,,,,
,,,,,,,,,,,,Few,None,Some,All,More than half,Less than half,Half,Most,Many,-0.483072917,0.046875,1,0,0,QQQ8,,,,,,,,English,2020-07-02_11h05.58.551,Experiment_English,3.2.4,Win32,60,,,,,,,,,,,,,,,,,,,,,1,0,340,267,1,339,ratio41_8_10_4.png,,,,,,,,,,,,
,,,,,,,,,,,,Less than half,None,Few,Most,Half,More than half,Many,All,Some,0.587239583,-0.04296875,1,0,0,QQQ2,,,,,,,,English,2020-07-02_11h05.58.551,Experiment_English,3.2.4,Win32,60,,,,,,,,,,,,,,,,,,,,,1,0,340,66,1,339,ratio0Y_0_9_8.png,,,,,,,,,,,,
,,,,,,,,,,,,More than half,None,Some,Less than half,Half,Many,All,Most,Few,-0.51953125,0.0234375,1,0,0,QQQ8,,,,,,,,English,2020-07-02_11h05.58.551,Experiment_English,3.2.4,Win32,60,,,,,,,,,,,,,,,,,,,,,1,0,340,208,1,339,ratio31_9_12_3.png,,,,,,,,,,,,
,,,,,,,,,,,,Most,Some,Half,Many,More than half,None,Less than half,Few,All,0.598958333,-0.065104167,1,0,0,QQQ2,,,,,,,,English,2020-07-02_11h05.58.551,Experiment_English,3.2.4,Win32,60,,,,,,,,,,,,,,,,,,,,,1,0,340,165,1,339,ratio21_4_6_10.png,,,,,,,,,,,,
,,,,,,,,,,,,More than half,Most,Few,All,None,Half,Some,Many,Less than half,-0.5234375,0.2890625,1,0,0,QQQ7,,,,,,,,English,2020-07-02_11h05.58.551,Experiment_English,3.2.4,Win32,60,,,,,,,,,,,,,,,,,,,,,1,0,340,105,1,339,ratio14_2_10_1.png,,,,,,,,,,,,
,,,,,,,,,,,,All,None,Most,Half,More than half,Some,Few,Less than half,Many,0.502604167,-0.263020833,1,0,0,QQQ3,,,,,,,,English,2020-07-02_11h05.58.551,Experiment_English,3.2.4,Win32,60,,,,,,,,,,,,,,,,,,,,,1,0,340,262,1,339,ratio41_4_5_4.png,,,,,,,,,,,,
,,,,,,,,,,,,More than half,None,All,Most,Many,Some,Few,Half,Less than half,-0.63671875,0.361979167,1,0,0,QQQ7,,,,,,,,English,2020-07-02_11h05.58.551,Experiment_English,3.2.4,Win32,60,,,,,,,,,,,,,,,,,,,,,1,0,340,8,1,339,ratio12_3_9_4.png,,,,,,,,,,,,
,,,,,,,,,,,,All,None,More than half,Most,Many,Some,Half,Less than half,Few,0.020833333,0.334635417,1,0,0,QQQ4,,,,,,,,English,2020-07-02_11h05.58.551,Experiment_English,3.2.4,Win32,60,,,,,,,,,,,,,,,,,,,,,1,0,340,177,1,339,ratio21_12_18_1.png,,,,,,,,,,,,
,,,,,,,,,,,,Half,All,Most,Few,Less than half,More than half,Many,None,Some,0.44140625,0.002604167,1,0,0,QQQ2,,,,,,,,English,2020-07-02_11h05.58.551,Experiment_English,3.2.4,Win32,60,,,,,,,,,,,,,,,,,,,,,1,0,340,44,1,339,ratioX0_7_7_5.png,,,,,,,,,,,,
,,,,,,,,,,,,Many,More than half,Half,Most,Less than half,Some,All,None,Few,0.00390625,0.27734375,1,0,0,QQQ4,,,,,,,,English,2020-07-02_11h05.58.551,Experiment_English,3.2.4,Win32,60,,,,,,,,,,,,,,,,,,,,,1,0,340,330,1,339,ratio91_18_20_2.png,,,,,,,,,,,,
,,,,,,,,,,,,None,More than half,Some,Few,Less than half,Most,All,Many,Half,-0.587239583,0.036458333,1,0,0,QQQ8,,,,,,,,English,2020-07-02_11h05.58.551,Experiment_English,3.2.4,Win32,60,,,,,,,,,,,,,,,,,,,,,1,0,340,273,1,339,ratio41_12_15_8.png,,,,,,,,,,,,
,,,,,,,,,,,,Less than half,All,Many,Half,More than half,Most,None,Few,Some,0.075520833,-0.296875,1,0,0,QQQ6,,,,,,,,English,2020-07-02_11h05.58.551,Experiment_English,3.2.4,Win32,60,,,,,,,,,,,,,,,,,,,,,1,0,340,278,1,339,ratio41_16_20_9.png,,,,,,,,,,,,
,,,,,,,,,,,,Most,Less than half,Half,Many,Few,All,More than half,Some,None,0.078125,-0.048177083,1,0,0,QQQ5,,,,,,,,English,2020-07-02_11h05.58.551,Experiment_English,3.2.4,Win32,60,,,,,,,,,,,,,,,,,,,,,1,0,340,148,1,339,ratio19_1_10_19.png,,,,,,,,,,,,
,,,,,,,,,,,,Less than half,Many,Most,Half,All,More than half,Few,None,Some,0.532552083,-0.326822917,1,0,0,QQQ3,,,,,,,,English,2020-07-02_11h05.58.551,Experiment_English,3.2.4,Win32,60,,,,,,,,,,,,,,,,,,,,,1,0,340,323,1,339,ratio91_9_10_5.png,,,,,,,,,,,,
,,,,,,,,,,,,More than half,All,Many,Most,Some,Half,None,Few,Less than half,-0.4609375,-0.032552083,1,0,0,QQQ8,,,,,,,,English,2020-07-02_11h05.58.551,Experiment_English,3.2.4,Win32,60,,,,,,,,,,,,,,,,,,,,,1,0,340,94,1,339,ratio13_4_16_8.png,,,,,,,,,,,,
,,,,,,,,,,,,Half,Less than half,None,Most,Some,Few,More than half,All,Many,0.044270833,0.290364583,1,0,0,QQQ4,,,,,,,,English,2020-07-02_11h05.58.551,Experiment_English,3.2.4,Win32,60,,,,,,,,,,,,,,,,,,,,,1,0,340,337,1,339,ratio91_18_20_16.png,,,,,,,,,,,,
,,,,,,,,,,,,Less than half,More than half,Most,Few,Half,All,Many,None,Some,0.057291667,0.3046875,1,0,0,QQQ4,,,,,,,,English,2020-07-02_11h05.58.551,Experiment_English,3.2.4,Win32,60,,,,,,,,,,,,,,,,,,,,,1,0,340,152,1,339,ratio19_2_20_6.png,,,,,,,,,,,,
,,,,,,,,,,,,All,Less than half,Many,Half,Some,None,More than half,Few,Most,-0.506510417,-0.282552083,1,0,0,QQQ9,,,,,,,,English,2020-07-02_11h05.58.551,Experiment_English,3.2.4,Win32,60,,,,,,,,,,,,,,,,,,,,,1,0,340,320,1,339,ratio91_9_10_1.png,,,,,,,,,,,,
,,,,,,,,,,,,Most,All,Many,Less than half,More than half,Few,Half,None,Some,0.118489583,-0.337239583,1,0,0,QQQ6,,,,,,,,English,2020-07-02_11h05.58.551,Experiment_English,3.2.4,Win32,60,,,,,,,,,,,,,,,,,,,,,1,0,340,113,1,339,ratio14_3_15_8.png,,,,,,,,,,,,
,,,,,,,,,,,,None,Half,Some,All,Less than half,Few,Many,More than half,Most,-0.528645833,-0.299479167,1,0,0,QQQ9,,,,,,,,English,2020-07-02_11h05.58.551,Experiment_English,3.2.4,Win32,60,,,,,,,,,,,,,,,,,,,,,1,0,340,311,1,339,ratio51_10_12_14.png,,,,,,,,,,,,
,,,,,,,,,,,,None,Half,Few,Less than half,Many,All,More than half,Some,Most,0.440104167,0.299479167,1,0,0,QQQ1,,,,,,,,English,2020-07-02_11h05.58.551,Experiment_English,3.2.4,Win32,60,,,,,,,,,,,,,,,,,,,,,1,0,340,69,1,339,ratio0Y_0_11_6.png,,,,,,,,,,,,
,,,,,,,,,,,,Some,Less than half,All,Many,None,Half,Few,More than half,Most,0.60546875,-0.040364583,1,0,0,QQQ2,,,,,,,,English,2020-07-02_11h05.58.551,Experiment_English,3.2.4,Win32,60,,,,,,,,,,,,,,,,,,,,,1,0,340,242,1,339,ratio34_3_7_6.png,,,,,,,,,,,,
,,,,,,,,,,,,Few,All,More than half,None,Many,Less than half,Some,Most,Half,-0.587239583,0.305989583,1,0,0,QQQ7,,,,,,,,English,2020-07-02_11h05.58.551,Experiment_English,3.2.4,Win32,60,,,,,,,,,,,,,,,,,,,,,1,0,340,199,1,339,ratio23_8_20_8.png,0.2890625,-0.411458333,1,0,0,continue_button_pause,1,0,1,0,1,0
,,,,,,,,,,,,,,,,,,,,,,,,,,,,,,,,,,English,2020-07-02_11h05.58.551,Experiment_English,3.2.4,Win32,60,,,,,,,,,,,,,,,,,,,,,1,0,340,199,1,339,ratio23_8_20_8.png,,,,,,,,,,,,
,,,,,,,,,,,,None,Most,Many,All,Less than half,More than half,Half,Some,Few,0.083333333,-0.0078125,1,0,0,QQQ5,,,,,,,,English,2020-07-02_11h05.58.551,Experiment_English,3.2.4,Win32,60,,,,,,,,,,,,,,,,,,,,,1,0,340,198,1,339,ratio23_8_20_7.png,,,,,,,,,,,,
,,,,,,,,,,,,Half,Most,Some,More than half,Less than half,Many,None,All,Few,0.497395833,-0.055989583,1,0,0,QQQ2,,,,,,,,English,2020-07-02_11h05.58.551,Experiment_English,3.2.4,Win32,60,,,,,,,,,,,,,,,,,,,,,1,0,340,276,1,339,ratio41_16_20_4.png,,,,,,,,,,,,
,,,,,,,,,,,,Half,Some,Most,None,Many,Less than half,More than half,Few,All,-0.489583333,0.342447917,1,0,0,QQQ7,,,,,,,,English,2020-07-02_11h05.58.551,Experiment_English,3.2.4,Win32,60,,,,,,,,,,,,,,,,,,,,,1,0,340,163,1,339,ratio21_4_6_1.png,,,,,,,,,,,,
,,,,,,,,,,,,Some,Half,Less than half,All,More than half,Most,Few,None,Many,-0.401041667,0.006510417,1,0,0,QQQ8,,,,,,,,English,2020-07-02_11h05.58.551,Experiment_English,3.2.4,Win32,60,,,,,,,,,,,,,,,,,,,,,1,0,340,74,1,339,ratio0Y_0_15_10.png,,,,,,,,,,,,
,,,,,,,,,,,,Some,More than half,Most,All,Half,Few,None,Less than half,Many,0.575520833,-0.036458333,1,0,0,QQQ2,,,,,,,,English,2020-07-02_11h05.58.551,Experiment_English,3.2.4,Win32,60,,,,,,,,,,,,,,,,,,,,,1,0,340,30,1,339,ratio11_6_12_6.png,,,,,,,,,,,,
,,,,,,,,,,,,More than half,Most,None,Few,Some,Many,Half,Less than half,All,0.4296875,0.024739583,1,0,0,QQQ2,,,,,,,,English,2020-07-02_11h05.58.551,Experiment_English,3.2.4,Win32,60,,,,,,,,,,,,,,,,,,,,,1,0,340,303,1,339,ratio51_5_6_6.png,,,,,,,,,,,,
,,,,,,,,,,,,Most,Few,Some,All,Many,Less than half,Half,None,More than half,-0.037760417,-0.002604167,1,0,0,QQQ5,,,,,,,,English,2020-07-02_11h05.58.551,Experiment_English,3.2.4,Win32,60,,,,,,,,,,,,,,,,,,,,,1,0,340,272,1,339,ratio41_12_15_7.png,,,,,,,,,,,,
,,,,,,,,,,,,Many,Few,Most,Half,Less than half,Some,None,More than half,All,0.05859375,0.268229167,1,0,0,QQQ4,,,,,,,,English,2020-07-02_11h05.58.551,Experiment_English,3.2.4,Win32,60,,,,,,,,,,,,,,,,,,,,,1,0,340,20,1,339,ratio11_2_4_3.png,,,,,,,,,,,,
,,,,,,,,,,,,Most,Less than half,Some,Many,More than half,None,Few,Half,All,-0.572916667,0.010416667,1,0,0,QQQ8,,,,,,,,English,2020-07-02_11h05.58.551,Experiment_English,3.2.4,Win32,60,,,,,,,,,,,,,,,,,,,,,1,0,340,255,1,339,ratio34_6_14_10.png,,,,,,,,,,,,
,,,,,,,,,,,,Most,All,Half,Less than half,Some,Many,Few,None,More than half,0.45703125,-0.049479167,1,0,0,QQQ2,,,,,,,,English,2020-07-02_11h05.58.551,Experiment_English,3.2.4,Win32,60,,,,,,,,,,,,,,,,,,,,,1,0,340,51,1,339,ratioX0_12_12_9.png,,,,,,,,,,,,
,,,,,,,,,,,,Most,Many,Few,All,More than half,Some,Half,Less than half,None,0.4375,0.295572917,1,0,0,QQQ1,,,,,,,,English,2020-07-02_11h05.58.551,Experiment_English,3.2.4,Win32,60,,,,,,,,,,,,,,,,,,,,,1,0,340,175,1,339,ratio21_10_15_2.png,,,,,,,,,,,,
,,,,,,,,,,,,All,Some,Half,More than half,None,Less than half,Many,Few,Most,0.088541667,-0.3125,1,0,0,QQQ6,,,,,,,,English,2020-07-02_11h05.58.551,Experiment_English,3.2.4,Win32,60,,,,,,,,,,,,,,,,,,,,,1,0,340,189,1,339,ratio23_4_10_8.png,,,,,,,,,,,,
,,,,,,,,,,,,None,Some,More than half,All,Many,Most,Few,Less than half,Half,-0.100260417,0.010416667,1,0,0,QQQ5,,,,,,,,English,2020-07-02_11h05.58.551,Experiment_English,3.2.4,Win32,60,,,,,,,,,,,,,,,,,,,,,1,0,340,209,1,339,ratio31_9_12_6.png,,,,,,,,,,,,
,,,,,,,,,,,,Half,All,Some,More than half,Most,Few,None,Less than half,Many,0.028645833,-0.020833333,1,0,0,QQQ5,,,,,,,,English,2020-07-02_11h05.58.551,Experiment_English,3.2.4,Win32,60,,,,,,,,,,,,,,,,,,,,,1,0,340,269,1,339,ratio41_8_10_6.png,,,,,,,,,,,,
,,,,,,,,,,,,Half,More than half,Most,Some,None,Many,Less than half,Few,All,-0.436197917,-0.25390625,1,0,0,QQQ9,,,,,,,,English,2020-07-02_11h05.58.551,Experiment_English,3.2.4,Win32,60,,,,,,,,,,,,,,,,,,,,,1,0,340,43,1,339,ratioX0_6_6_9.png,,,,,,,,,,,,
,,,,,,,,,,,,Half,All,Some,Less than half,None,Most,Few,Many,More than half,-0.526041667,-0.298177083,1,0,0,QQQ9,,,,,,,,English,2020-07-02_11h05.58.551,Experiment_English,3.2.4,Win32,60,,,,,,,,,,,,,,,,,,,,,1,0,340,234,1,339,ratio32_9_15_10.png,,,,,,,,,,,,
,,,,,,,,,,,,None,More than half,Many,Few,Most,All,Half,Some,Less than half,-0.412760417,-0.302083333,1,0,0,QQQ9,,,,,,,,English,2020-07-02_11h05.58.551,Experiment_English,3.2.4,Win32,60,,,,,,,,,,,,,,,,,,,,,1,0,340,180,1,339,ratio23_2_5_4.png,,,,,,,,,,,,
,,,,,,,,,,,,Many,Half,All,More than half,Few,None,Most,Some,Less than half,0.029947917,0.001302083,1,0,0,QQQ5,,,,,,,,English,2020-07-02_11h05.58.551,Experiment_English,3.2.4,Win32,60,,,,,,,,,,,,,,,,,,,,,1,0,340,140,1,339,ratio19_1_10_1.png,,,,,,,,,,,,
,,,,,,,,,,,,More than half,All,Less than half,Half,Many,Few,Some,None,Most,-0.420572917,0.278645833,1,0,0,QQQ7,,,,,,,,English,2020-07-02_11h05.58.551,Experiment_English,3.2.4,Win32,60,,,,,,,,,,,,,,,,,,,,,1,0,340,191,1,339,ratio23_6_15_7.png,,,,,,,,,,,,
,,,,,,,,,,,,Many,Few,Most,Half,All,More than half,Some,Less than half,None,0.029947917,0.026041667,1,0,0,QQQ5,,,,,,,,English,2020-07-02_11h05.58.551,Experiment_English,3.2.4,Win32,60,,,,,,,,,,,,,,,,,,,,,1,0,340,56,1,339,ratioX0_17_17_10.png,,,,,,,,,,,,
,,,,,,,,,,,,Half,Less than half,Some,Few,More than half,Most,All,Many,None,0.046875,0.052083333,1,0,0,QQQ5,,,,,,,,English,2020-07-02_11h05.58.551,Experiment_English,3.2.4,Win32,60,,,,,,,,,,,,,,,,,,,,,1,0,340,222,1,339,ratio32_3_5_4.png,,,,,,,,,,,,
,,,,,,,,,,,,Some,Many,None,Few,All,Half,Less than half,More than half,Most,-0.647135417,0.309895833,1,0,0,QQQ7,,,,,,,,English,2020-07-02_11h05.58.551,Experiment_English,3.2.4,Win32,60,,,,,,,,,,,,,,,,,,,,,1,0,340,192,1,339,ratio23_6_15_8.png,,,,,,,,,,,,
,,,,,,,,,,,,Many,Few,Half,Some,More than half,Most,Less than half,All,None,0.09375,-0.31640625,1,0,0,QQQ6,,,,,,,,English,2020-07-02_11h05.58.551,Experiment_English,3.2.4,Win32,60,,,,,,,,,,,,,,,,,,,,,1,0,340,316,1,339,ratio51_15_18_11.png,,,,,,,,,,,,
,,,,,,,,,,,,Many,None,Some,Less than half,More than half,All,Half,Most,Few,-0.486979167,0.3359375,1,0,0,QQQ7,,,,,,,,English,2020-07-02_11h05.58.551,Experiment_English,3.2.4,Win32,60,,,,,,,,,,,,,,,,,,,,,1,0,340,256,1,339,ratio34_6_14_11.png,,,,,,,,,,,,
,,,,,,,,,,,,Half,Few,More than half,Most,Less than half,Many,Some,All,None,0.541666667,0.298177083,1,0,0,QQQ1,,,,,,,,English,2020-07-02_11h05.58.551,Experiment_English,3.2.4,Win32,60,,,,,,,,,,,,,,,,,,,,,1,0,340,136,1,339,ratio15_3_18_8.png,,,,,,,,,,,,
,,,,,,,,,,,,Less than half,Most,All,More than half,Few,None,Some,Many,Half,0.453125,-0.022135417,1,0,0,QQQ2,,,,,,,,English,2020-07-02_11h05.58.551,Experiment_English,3.2.4,Win32,60,,,,,,,,,,,,,,,,,,,,,1,0,340,325,1,339,ratio91_9_10_8.png,,,,,,,,,,,,
,,,,,,,,,,,,Less than half,Few,All,Some,Many,Half,None,More than half,Most,-0.450520833,-0.33984375,1,0,0,QQQ9,,,,,,,,English,2020-07-02_11h05.58.551,Experiment_English,3.2.4,Win32,60,,,,,,,,,,,,,,,,,,,,,1,0,340,310,1,339,ratio51_10_12_12.png,,,,,,,,,,,,
,,,,,,,,,,,,All,More than half,Half,Less than half,Most,Some,Few,None,Many,-0.47265625,-0.302083333,1,0,0,QQQ9,,,,,,,,English,2020-07-02_11h05.58.551,Experiment_English,3.2.4,Win32,60,,,,,,,,,,,,,,,,,,,,,1,0,340,171,1,339,ratio21_8_12_4.png,,,,,,,,,,,,
,,,,,,,,,,,,Some,Many,More than half,Few,Half,Most,None,All,Less than half,-0.58984375,0.296875,1,0,0,QQQ7,,,,,,,,English,2020-07-02_11h05.58.551,Experiment_English,3.2.4,Win32,60,,,,,,,,,,,,,,,,,,,,,1,0,340,78,1,339,ratio0Y_0_19_1.png,,,,,,,,,,,,
,,,,,,,,,,,,All,Less than half,Few,Half,Some,Many,None,Most,More than half,0.604166667,-0.345052083,1,0,0,QQQ3,,,,,,,,English,2020-07-02_11h05.58.551,Experiment_English,3.2.4,Win32,60,,,,,,,,,,,,,,,,,,,,,1,0,340,89,1,339,ratio13_3_12_6.png,,,,,,,,,,,,
,,,,,,,,,,,,None,Many,Half,More than half,Some,Most,Few,Less than half,All,0.5859375,-0.3359375,1,0,0,QQQ3,,,,,,,,English,2020-07-02_11h05.58.551,Experiment_English,3.2.4,Win32,60,,,,,,,,,,,,,,,,,,,,,1,0,340,25,1,339,ratio11_4_8_10.png,,,,,,,,,,,,
,,,,,,,,,,,,Few,Half,Less than half,Some,Most,None,Many,More than half,All,-0.446614583,0.369791667,1,0,0,QQQ7,,,,,,,,English,2020-07-02_11h05.58.551,Experiment_English,3.2.4,Win32,60,,,,,,,,,,,,,,,,,,,,,1,0,340,216,1,339,ratio31_15_20_3.png,,,,,,,,,,,,
,,,,,,,,,,,,Many,Few,None,Half,Most,Some,Less than half,More than half,All,0.09375,-0.283854167,1,0,0,QQQ6,,,,,,,,English,2020-07-02_11h05.58.551,Experiment_English,3.2.4,Win32,60,,,,,,,,,,,,,,,,,,,,,1,0,340,115,1,339,ratio14_4_20_1.png,,,,,,,,,,,,
,,,,,,,,,,,,All,Most,Many,Half,Some,Less than half,Few,More than half,None,-0.501302083,0.268229167,1,0,0,QQQ7,,,,,,,,English,2020-07-02_11h05.58.551,Experiment_English,3.2.4,Win32,60,,,,,,,,,,,,,,,,,,,,,1,0,340,90,1,339,ratio13_3_12_7.png,0.442708333,-0.427083333,1,0,0,continue_button_pause,1,0,1,0,1,0
,,,,,,,,,,,,,,,,,,,,,,,,,,,,,,,,,,English,2020-07-02_11h05.58.551,Experiment_English,3.2.4,Win32,60,,,,,,,,,,,,,,,,,,,,,1,0,340,90,1,339,ratio13_3_12_7.png,,,,,,,,,,,,
,,,,,,,,,,,,Few,All,Some,Half,Less than half,None,More than half,Many,Most,-0.51953125,0.252604167,1,0,0,QQQ7,,,,,,,,English,2020-07-02_11h05.58.551,Experiment_English,3.2.4,Win32,60,,,,,,,,,,,,,,,,,,,,,1,0,340,290,1,339,ratio43_8_14_3.png,,,,,,,,,,,,
,,,,,,,,,,,,None,Most,Many,Less than half,Few,Some,Half,All,More than half,-0.4609375,-0.311197917,1,0,0,QQQ9,,,,,,,,English,2020-07-02_11h05.58.551,Experiment_English,3.2.4,Win32,60,,,,,,,,,,,,,,,,,,,,,1,0,340,225,1,339,ratio32_6_10_4.png,,,,,,,,,,,,
,,,,,,,,,,,,Half,Few,Many,Less than half,All,More than half,Most,Some,None,-0.524739583,0.315104167,1,0,0,QQQ7,,,,,,,,English,2020-07-02_11h05.58.551,Experiment_English,3.2.4,Win32,60,,,,,,,,,,,,,,,,,,,,,1,0,340,302,1,339,ratio51_5_6_5.png,,,,,,,,,,,,
,,,,,,,,,,,,Most,All,Few,More than half,None,Many,Less than half,Some,Half,0.518229167,-0.296875,1,0,0,QQQ3,,,,,,,,English,2020-07-02_11h05.58.551,Experiment_English,3.2.4,Win32,60,,,,,,,,,,,,,,,,,,,,,1,0,340,110,1,339,ratio14_3_15_2.png,,,,,,,,,,,,
,,,,,,,,,,,,Many,Most,Half,Few,All,None,Less than half,More than half,Some,0.552083333,-0.071614583,1,0,0,QQQ2,,,,,,,,English,2020-07-02_11h05.58.551,Experiment_English,3.2.4,Win32,60,,,,,,,,,,,,,,,,,,,,,1,0,340,206,1,339,ratio31_6_8_6.png,,,,,,,,,,,,
,,,,,,,,,,,,Few,Less than half,All,None,Most,More than half,Some,Half,Many,0.020833333,-0.032552083,1,0,0,QQQ5,,,,,,,,English,2020-07-02_11h05.58.551,Experiment_English,3.2.4,Win32,60,,,,,,,,,,,,,,,,,,,,,1,0,340,334,1,339,ratio91_18_20_9.png,,,,,,,,,,,,
,,,,,,,,,,,,Most,All,Many,Few,Some,More than half,None,Half,Less than half,0.065104167,-0.307291667,1,0,0,QQQ6,,,,,,,,English,2020-07-02_11h05.58.551,Experiment_English,3.2.4,Win32,60,,,,,,,,,,,,,,,,,,,,,1,0,340,172,1,339,ratio21_8_12_6.png,,,,,,,,,,,,
,,,,,,,,,,,,Many,More than half,None,Most,Half,All,Some,Less than half,Few,-0.3671875,-0.294270833,1,0,0,QQQ9,,,,,,,,English,2020-07-02_11h05.58.551,Experiment_English,3.2.4,Win32,60,,,,,,,,,,,,,,,,,,,,,1,0,340,88,1,339,ratio13_3_12_5.png,,,,,,,,,,,,
,,,,,,,,,,,,None,Half,Few,Many,Less than half,Some,All,Most,More than half,-0.40625,-0.001302083,1,0,0,QQQ8,,,,,,,,English,2020-07-02_11h05.58.551,Experiment_English,3.2.4,Win32,60,,,,,,,,,,,,,,,,,,,,,1,0,340,312,1,339,ratio51_10_12_16.png,,,,,,,,,,,,
,,,,,,,,,,,,None,More than half,All,Many,Most,Few,Some,Half,Less than half,0.451822917,0.04296875,1,0,0,QQQ2,,,,,,,,English,2020-07-02_11h05.58.551,Experiment_English,3.2.4,Win32,60,,,,,,,,,,,,,,,,,,,,,1,0,340,284,1,339,ratio43_4_7_11.png,,,,,,,,,,,,
,,,,,,,,,,,,Less than half,None,Some,Few,Half,Most,More than half,Many,All,-0.479166667,-0.046875,1,0,0,QQQ8,,,,,,,,English,2020-07-02_11h05.58.551,Experiment_English,3.2.4,Win32,60,,,,,,,,,,,,,,,,,,,,,1,0,340,174,1,339,ratio21_10_15_1.png,,,,,,,,,,,,
,,,,,,,,,,,,All,Some,Most,More than half,Half,Few,Less than half,None,Many,-0.4765625,0.037760417,1,0,0,QQQ8,,,,,,,,English,2020-07-02_11h05.58.551,Experiment_English,3.2.4,Win32,60,,,,,,,,,,,,,,,,,,,,,1,0,340,63,1,339,ratio0Y_0_6_8.png,,,,,,,,,,,,
,,,,,,,,,,,,More than half,All,Half,Most,Less than half,None,Few,Some,Many,-0.006510417,0.298177083,1,0,0,QQQ4,,,,,,,,English,2020-07-02_11h05.58.551,Experiment_English,3.2.4,Win32,60,,,,,,,,,,,,,,,,,,,,,1,0,340,304,1,339,ratio51_5_6_13.png,,,,,,,,,,,,
,,,,,,,,,,,,Few,Many,All,Less than half,Some,None,More than half,Most,Half,-0.029947917,-0.005208333,1,0,0,QQQ5,,,,,,,,English,2020-07-02_11h05.58.551,Experiment_English,3.2.4,Win32,60,,,,,,,,,,,,,,,,,,,,,1,0,340,80,1,339,ratio13_1_4_3.png,,,,,,,,,,,,
,,,,,,,,,,,,More than half,Few,None,Many,All,Less than half,Some,Half,Most,0.061197917,-0.266927083,1,0,0,QQQ6,,,,,,,,English,2020-07-02_11h05.58.551,Experiment_English,3.2.4,Win32,60,,,,,,,,,,,,,,,,,,,,,1,0,340,11,1,339,ratio12_4_12_7.png,,,,,,,,,,,,
,,,,,,,,,,,,Many,Some,All,More than half,Few,Less than half,Most,None,Half,0.579427083,0.2734375,1,0,0,QQQ1,,,,,,,,English,2020-07-02_11h05.58.551,Experiment_English,3.2.4,Win32,60,,,,,,,,,,,,,,,,,,,,,1,0,340,275,1,339,ratio41_16_20_2.png,,,,,,,,,,,,
,,,,,,,,,,,,More than half,Half,Many,Few,Some,Most,Less than half,All,None,0.598958333,0.26953125,1,0,0,QQQ1,,,,,,,,English,2020-07-02_11h05.58.551,Experiment_English,3.2.4,Win32,60,,,,,,,,,,,,,,,,,,,,,1,0,340,226,1,339,ratio32_6_10_5.png,,,,,,,,,,,,
,,,,,,,,,,,,Less than half,Most,Some,Many,More than half,None,Half,Few,All,0.501302083,0.2578125,1,0,0,QQQ1,,,,,,,,English,2020-07-02_11h05.58.551,Experiment_English,3.2.4,Win32,60,,,,,,,,,,,,,,,,,,,,,1,0,340,181,1,339,ratio23_2_5_6.png,,,,,,,,,,,,
,,,,,,,,,,,,Half,Many,More than half,None,Most,Few,Some,All,Less than half,0.028645833,0.026041667,1,0,0,QQQ5,,,,,,,,English,2020-07-02_11h05.58.551,Experiment_English,3.2.4,Win32,60,,,,,,,,,,,,,,,,,,,,,1,0,340,211,1,339,ratio31_9_12_10.png,,,,,,,,,,,,
,,,,,,,,,,,,Many,More than half,Less than half,Few,Most,Half,None,All,Some,-0.463541667,-0.356770833,1,0,0,QQQ9,,,,,,,,English,2020-07-02_11h05.58.551,Experiment_English,3.2.4,Win32,60,,,,,,,,,,,,,,,,,,,,,1,0,340,102,1,339,ratio14_1_5_8.png,,,,,,,,,,,,
,,,,,,,,,,,,Most,Few,More than half,Less than half,None,Many,Some,All,Half,-0.442708333,0.279947917,1,0,0,QQQ7,,,,,,,,English,2020-07-02_11h05.58.551,Experiment_English,3.2.4,Win32,60,,,,,,,,,,,,,,,,,,,,,1,0,340,123,1,339,ratio15_1_6_12.png,,,,,,,,,,,,
,,,,,,,,,,,,Half,All,Some,More than half,Few,Most,Many,Less than half,None,-0.438802083,-0.325520833,1,0,0,QQQ9,,,,,,,,English,2020-07-02_11h05.58.551,Experiment_English,3.2.4,Win32,60,,,,,,,,,,,,,,,,,,,,,1,0,340,62,1,339,ratio0Y_0_5_4.png,,,,,,,,,,,,
,,,,,,,,,,,,None,Most,Many,Few,More than half,Less than half,Half,Some,All,0.1171875,0.286458333,1,0,0,QQQ4,,,,,,,,English,2020-07-02_11h05.58.551,Experiment_English,3.2.4,Win32,60,,,,,,,,,,,,,,,,,,,,,1,0,340,134,1,339,ratio15_3_18_5.png,,,,,,,,,,,,
,,,,,,,,,,,,Few,More than half,Less than half,Half,Some,None,Most,Many,All,0.5546875,0.286458333,1,0,0,QQQ1,,,,,,,,English,2020-07-02_11h05.58.551,Experiment_English,3.2.4,Win32,60,,,,,,,,,,,,,,,,,,,,,1,0,340,111,1,339,ratio14_3_15_3.png,,,,,,,,,,,,
,,,,,,,,,,,,More than half,Many,Less than half,Half,Most,Some,None,Few,All,0.415364583,-0.26953125,1,0,0,QQQ3,,,,,,,,English,2020-07-02_11h05.58.551,Experiment_English,3.2.4,Win32,60,,,,,,,,,,,,,,,,,,,,,1,0,340,243,1,339,ratio34_3_7_8.png,,,,,,,,,,,,
,,,,,,,,,,,,All,Many,More than half,Most,Less than half,None,Some,Few,Half,-0.41015625,-0.022135417,1,0,0,QQQ8,,,,,,,,English,2020-07-02_11h05.58.551,Experiment_English,3.2.4,Win32,60,,,,,,,,,,,,,,,,,,,,,1,0,340,3,1,339,ratio12_2_6_3.png,,,,,,,,,,,,
,,,,,,,,,,,,Half,Most,Less than half,All,More than half,Many,Some,Few,None,0.390625,0.0078125,1,0,0,QQQ2,,,,,,,,English,2020-07-02_11h05.58.551,Experiment_English,3.2.4,Win32,60,,,,,,,,,,,,,,,,,,,,,1,0,340,315,1,339,ratio51_15_18_10.png,,,,,,,,,,,,
,,,,,,,,,,,,Few,All,None,Many,Most,Some,More than half,Half,Less than half,0.127604167,-0.028645833,1,0,0,QQQ5,,,,,,,,English,2020-07-02_11h05.58.551,Experiment_English,3.2.4,Win32,60,,,,,,,,,,,,,,,,,,,,,1,0,340,307,1,339,ratio51_10_12_1.png,,,,,,,,,,,,
,,,,,,,,,,,,More than half,Few,Most,Some,Half,Less than half,Many,None,All,0.0390625,0.229166667,1,0,0,QQQ4,,,,,,,,English,2020-07-02_11h05.58.551,Experiment_English,3.2.4,Win32,60,,,,,,,,,,,,,,,,,,,,,1,0,340,98,1,339,ratio13_5_20_3.png,,,,,,,,,,,,
,,,,,,,,,,,,Less than half,Some,Most,Few,None,Many,Half,All,More than half,0.127604167,-0.033854167,1,0,0,QQQ5,,,,,,,,English,2020-07-02_11h05.58.551,Experiment_English,3.2.4,Win32,60,,,,,,,,,,,,,,,,,,,,,1,0,340,77,1,339,ratio0Y_0_18_3.png,,,,,,,,,,,,
,,,,,,,,,,,,Most,Few,Less than half,None,All,Half,Some,More than half,Many,0.440104167,0.248697917,1,0,0,QQQ1,,,,,,,,English,2020-07-02_11h05.58.551,Experiment_English,3.2.4,Win32,60,,,,,,,,,,,,,,,,,,,,,1,0,340,238,1,339,ratio32_12_20_9.png,,,,,,,,,,,,
,,,,,,,,,,,,Less than half,Many,More than half,All,Half,None,Most,Some,Few,0.071614583,0.010416667,1,0,0,QQQ5,,,,,,,,English,2020-07-02_11h05.58.551,Experiment_English,3.2.4,Win32,60,,,,,,,,,,,,,,,,,,,,,1,0,340,37,1,339,ratio11_9_18_8.png,,,,,,,,,,,,
,,,,,,,,,,,,Less than half,Half,All,Most,Few,More than half,None,Some,Many,-0.024739583,-0.020833333,1,0,0,QQQ5,,,,,,,,English,2020-07-02_11h05.58.551,Experiment_English,3.2.4,Win32,60,,,,,,,,,,,,,,,,,,,,,1,0,340,85,1,339,ratio13_2_8_5.png,,,,,,,,,,,,
,,,,,,,,,,,,Few,Some,More than half,Most,Half,None,Less than half,Many,All,0.046875,-0.282552083,1,0,0,QQQ6,,,,,,,,English,2020-07-02_11h05.58.551,Experiment_English,3.2.4,Win32,60,,,,,,,,,,,,,,,,,,,,,1,0,340,75,1,339,ratio0Y_0_16_10.png,0.260416667,-0.389322917,1,0,0,continue_button_pause,1,0,1,0,1,0
,,,,,,,,,,,,,,,,,,,,,,,,,,,,,,,,,,English,2020-07-02_11h05.58.551,Experiment_English,3.2.4,Win32,60,,,,,,,,,,,,,,,,,,,,,1,0,340,75,1,339,ratio0Y_0_16_10.png,,,,,,,,,,,,
,,,,,,,,,,,,Few,Less than half,More than half,None,All,Some,Half,Most,Many,0.528645833,-0.0234375,1,0,0,QQQ2,,,,,,,,English,2020-07-02_11h05.58.551,Experiment_English,3.2.4,Win32,60,,,,,,,,,,,,,,,,,,,,,1,0,340,19,1,339,ratio12_6_18_9.png,,,,,,,,,,,,
,,,,,,,,,,,,Less than half,All,Most,Few,Half,More than half,Many,None,Some,0.466145833,-0.26953125,1,0,0,QQQ3,,,,,,,,English,2020-07-02_11h05.58.551,Experiment_English,3.2.4,Win32,60,,,,,,,,,,,,,,,,,,,,,1,0,340,322,1,339,ratio91_9_10_3.png,,,,,,,,,,,,
,,,,,,,,,,,,Most,Few,None,Many,More than half,Less than half,Some,Half,All,0.432291667,0.291666667,1,0,0,QQQ1,,,,,,,,English,2020-07-02_11h05.58.551,Experiment_English,3.2.4,Win32,60,,,,,,,,,,,,,,,,,,,,,1,0,340,263,1,339,ratio41_4_5_5.png,,,,,,,,,,,,
,,,,,,,,,,,,Some,Few,More than half,Many,Half,None,Less than half,All,Most,0.518229167,0.24609375,1,0,0,QQQ1,,,,,,,,English,2020-07-02_11h05.58.551,Experiment_English,3.2.4,Win32,60,,,,,,,,,,,,,,,,,,,,,1,0,340,130,1,339,ratio15_2_12_12.png,,,,,,,,,,,,
,,,,,,,,,,,,More than half,All,Most,Some,None,Less than half,Few,Half,Many,0.462239583,-0.2734375,1,0,0,QQQ3,,,,,,,,English,2020-07-02_11h05.58.551,Experiment_English,3.2.4,Win32,60,,,,,,,,,,,,,,,,,,,,,1,0,340,210,1,339,ratio31_9_12_9.png,,,,,,,,,,,,
,,,,,,,,,,,,More than half,All,Half,Few,Some,Many,None,Less than half,Most,0.080729167,-0.265625,1,0,0,QQQ6,,,,,,,,English,2020-07-02_11h05.58.551,Experiment_English,3.2.4,Win32,60,,,,,,,,,,,,,,,,,,,,,1,0,340,219,1,339,ratio31_15_20_10.png,,,,,,,,,,,,
,,,,,,,,,,,,Some,Less than half,All,Few,Most,Half,More than half,Many,None,-0.458333333,0.303385417,1,0,0,QQQ7,,,,,,,,English,2020-07-02_11h05.58.551,Experiment_English,3.2.4,Win32,60,,,,,,,,,,,,,,,,,,,,,1,0,340,221,1,339,ratio32_3_5_3.png,,,,,,,,,,,,
,,,,,,,,,,,,Few,Some,More than half,None,Half,Most,All,Less than half,Many,-0.48828125,-0.259114583,1,0,0,QQQ9,,,,,,,,English,2020-07-02_11h05.58.551,Experiment_English,3.2.4,Win32,60,,,,,,,,,,,,,,,,,,,,,1,0,340,169,1,339,ratio21_6_9_7.png,,,,,,,,,,,,
,,,,,,,,,,,,Many,Few,Some,All,None,Half,More than half,Most,Less than half,-0.609375,-0.30859375,1,0,0,QQQ9,,,,,,,,English,2020-07-02_11h05.58.551,Experiment_English,3.2.4,Win32,60,,,,,,,,,,,,,,,,,,,,,1,0,340,18,1,339,ratio12_6_18_7.png,,,,,,,,,,,,
,,,,,,,,,,,,Less than half,Half,Few,Some,More than half,None,Most,Many,All,0.046875,-0.322916667,1,0,0,QQQ6,,,,,,,,English,2020-07-02_11h05.58.551,Experiment_English,3.2.4,Win32,60,,,,,,,,,,,,,,,,,,,,,1,0,340,73,1,339,ratio0Y_0_14_7.png,,,,,,,,,,,,
,,,,,,,,,,,,Many,All,Most,Few,Some,More than half,Less than half,None,Half,0.540364583,-0.305989583,1,0,0,QQQ3,,,,,,,,English,2020-07-02_11h05.58.551,Experiment_English,3.2.4,Win32,60,,,,,,,,,,,,,,,,,,,,,1,0,340,327,1,339,ratio91_9_10_11.png,,,,,,,,,,,,
,,,,,,,,,,,,Most,All,Some,Many,None,Half,Few,More than half,Less than half,-0.352864583,0.283854167,1,0,0,QQQ7,,,,,,,,English,2020-07-02_11h05.58.551,Experiment_English,3.2.4,Win32,60,,,,,,,,,,,,,,,,,,,,,1,0,340,127,1,339,ratio15_2_12_2.png,,,,,,,,,,,,
,,,,,,,,,,,,More than half,Most,Half,Some,None,All,Few,Many,Less than half,0.005208333,0.30078125,1,0,0,QQQ4,,,,,,,,English,2020-07-02_11h05.58.551,Experiment_English,3.2.4,Win32,60,,,,,,,,,,,,,,,,,,,,,1,0,340,0,1,339,ratio12_1_3_3.png,,,,,,,,,,,,
,,,,,,,,,,,,None,Many,All,Half,Less than half,Few,More than half,Most,Some,-0.571614583,-0.0078125,1,0,0,QQQ8,,,,,,,,English,2020-07-02_11h05.58.551,Experiment_English,3.2.4,Win32,60,,,,,,,,,,,,,,,,,,,,,1,0,340,313,1,339,ratio51_15_18_2.png,,,,,,,,,,,,
,,,,,,,,,,,,Some,Few,More than half,None,Less than half,All,Many,Most,Half,0.537760417,-0.25,1,0,0,QQQ3,,,,,,,,English,2020-07-02_11h05.58.551,Experiment_English,3.2.4,Win32,60,,,,,,,,,,,,,,,,,,,,,1,0,340,297,1,339,ratio43_8_14_13.png,,,,,,,,,,,,
,,,,,,,,,,,,More than half,All,Many,None,Half,Few,Some,Less than half,Most,0.4921875,0,1,0,0,QQQ2,,,,,,,,English,2020-07-02_11h05.58.551,Experiment_English,3.2.4,Win32,60,,,,,,,,,,,,,,,,,,,,,1,0,340,50,1,339,ratioX0_12_12_3.png,,,,,,,,,,,,
,,,,,,,,,,,,Some,Few,Half,None,More than half,All,Many,Less than half,Most,-0.131510417,0.233072917,1,0,0,QQQ4,,,,,,,,English,2020-07-02_11h05.58.551,Experiment_English,3.2.4,Win32,60,,,,,,,,,,,,,,,,,,,,,1,0,340,60,1,339,ratio0Y_0_3_5.png,,,,,,,,,,,,
,,,,,,,,,,,,Most,More than half,All,Half,Some,Less than half,None,Few,Many,0.009114583,-0.385416667,1,0,0,QQQ6,,,,,,,,English,2020-07-02_11h05.58.551,Experiment_English,3.2.4,Win32,60,,,,,,,,,,,,,,,,,,,,,1,0,340,195,1,339,ratio23_8_20_1.png,,,,,,,,,,,,
,,,,,,,,,,,,Less than half,Some,Many,More than half,Half,All,Few,None,Most,0.428385417,0.25,1,0,0,QQQ1,,,,,,,,English,2020-07-02_11h05.58.551,Experiment_English,3.2.4,Win32,60,,,,,,,,,,,,,,,,,,,,,1,0,340,196,1,339,ratio23_8_20_5.png,,,,,,,,,,,,
,,,,,,,,,,,,None,Many,All,Few,Half,More than half,Some,Less than half,Most,-0.4375,-0.305989583,1,0,0,QQQ9,,,,,,,,English,2020-07-02_11h05.58.551,Experiment_English,3.2.4,Win32,60,,,,,,,,,,,,,,,,,,,,,1,0,340,317,1,339,ratio51_15_18_13.png,,,,,,,,,,,,
,,,,,,,,,,,,More than half,All,Most,Half,Few,None,Some,Many,Less than half,-0.029947917,0.01953125,1,0,0,QQQ5,,,,,,,,English,2020-07-02_11h05.58.551,Experiment_English,3.2.4,Win32,60,,,,,,,,,,,,,,,,,,,,,1,0,340,153,1,339,ratio19_2_20_8.png,,,,,,,,,,,,
,,,,,,,,,,,,Most,Less than half,Few,More than half,Many,None,Some,All,Half,0.532552083,0.311197917,1,0,0,QQQ1,,,,,,,,English,2020-07-02_11h05.58.551,Experiment_English,3.2.4,Win32,60,,,,,,,,,,,,,,,,,,,,,1,0,340,274,1,339,ratio41_12_15_9.png,,,,,,,,,,,,
,,,,,,,,,,,,Less than half,Some,More than half,Many,Few,All,Most,Half,None,-0.065104167,0.236979167,1,0,0,QQQ4,,,,,,,,English,2020-07-02_11h05.58.551,Experiment_English,3.2.4,Win32,60,,,,,,,,,,,,,,,,,,,,,1,0,340,277,1,339,ratio41_16_20_8.png,,,,,,,,,,,,
,,,,,,,,,,,,Half,None,All,Many,Most,More than half,Few,Less than half,Some,-0.54296875,0.24609375,1,0,0,QQQ7,,,,,,,,English,2020-07-02_11h05.58.551,Experiment_English,3.2.4,Win32,60,,,,,,,,,,,,,,,,,,,,,1,0,340,133,1,339,ratio15_3_18_3.png,,,,,,,,,,,,
,,,,,,,,,,,,Most,Few,Half,Less than half,Many,All,None,More than half,Some,-0.454427083,-0.01171875,1,0,0,QQQ8,,,,,,,,English,2020-07-02_11h05.58.551,Experiment_English,3.2.4,Win32,60,,,,,,,,,,,,,,,,,,,,,1,0,340,220,1,339,ratio32_3_5_1.png,,,,,,,,,,,,
,,,,,,,,,,,,Some,Most,None,Few,Half,All,More than half,Many,Less than half,0.5390625,-0.01171875,1,0,0,QQQ2,,,,,,,,English,2020-07-02_11h05.58.551,Experiment_English,3.2.4,Win32,60,,,,,,,,,,,,,,,,,,,,,1,0,340,201,1,339,ratio31_3_4_7.png,,,,,,,,,,,,
,,,,,,,,,,,,None,Few,Many,More than half,Less than half,Half,Some,All,Most,-0.42578125,-0.305989583,1,0,0,QQQ9,,,,,,,,English,2020-07-02_11h05.58.551,Experiment_English,3.2.4,Win32,60,,,,,,,,,,,,,,,,,,,,,1,0,340,332,1,339,ratio91_18_20_4.png,,,,,,,,,,,,
,,,,,,,,,,,,Few,Some,None,Most,Half,Less than half,More than half,All,Many,-0.411458333,0.34765625,1,0,0,QQQ7,,,,,,,,English,2020-07-02_11h05.58.551,Experiment_English,3.2.4,Win32,60,,,,,,,,,,,,,,,,,,,,,1,0,340,26,1,339,ratio11_5_10_4.png,,,,,,,,,,,,
,,,,,,,,,,,,Some,Few,Less than half,Most,Half,Many,All,More than half,None,0.423177083,0.212239583,1,0,0,QQQ1,,,,,,,,English,2020-07-02_11h05.58.551,Experiment_English,3.2.4,Win32,60,,,,,,,,,,,,,,,,,,,,,1,0,340,142,1,339,ratio19_1_10_6.png,,,,,,,,,,,,
,,,,,,,,,,,,Half,All,Many,Most,Some,None,Less than half,Few,More than half,0.432291667,0.35546875,1,0,0,QQQ1,,,,,,,,English,2020-07-02_11h05.58.551,Experiment_English,3.2.4,Win32,60,,,,,,,,,,,,,,,,,,,,,1,0,340,27,1,339,ratio11_5_10_7.png,,,,,,,,,,,,
,,,,,,,,,,,,Many,None,Few,Most,Less than half,Half,All,More than half,Some,0.44921875,-0.328125,1,0,0,QQQ3,,,,,,,,English,2020-07-02_11h05.58.551,Experiment_English,3.2.4,Win32,60,,,,,,,,,,,,,,,,,,,,,1,0,340,1,1,339,ratio12_1_3_7.png,,,,,,,,,,,,
,,,,,,,,,,,,Few,Some,Many,More than half,None,All,Less than half,Most,Half,-0.483072917,-0.264322917,1,0,0,QQQ9,,,,,,,,English,2020-07-02_11h05.58.551,Experiment_English,3.2.4,Win32,60,,,,,,,,,,,,,,,,,,,,,1,0,340,23,1,339,ratio11_3_6_9.png,,,,,,,,,,,,
,,,,,,,,,,,,Most,More than half,Few,Some,All,None,Many,Less than half,Half,0.509114583,0.321614583,1,0,0,QQQ1,,,,,,,,English,2020-07-02_11h05.58.551,Experiment_English,3.2.4,Win32,60,,,,,,,,,,,,,,,,,,,,,1,0,340,264,1,339,ratio41_4_5_6.png,,,,,,,,,,,,
,,,,,,,,,,,,Less than half,Half,All,Many,Some,Few,Most,More than half,None,-0.002604167,0.263020833,1,0,0,QQQ4,,,,,,,,English,2020-07-02_11h05.58.551,Experiment_English,3.2.4,Win32,60,,,,,,,,,,,,,,,,,,,,,1,0,340,295,1,339,ratio43_8_14_11.png,0.375,-0.447916667,1,0,0,continue_button_pause,1,0,1,0,1,0
,,,,,,,,,,,,,,,,,,,,,,,,,,,,,,,,,,English,2020-07-02_11h05.58.551,Experiment_English,3.2.4,Win32,60,,,,,,,,,,,,,,,,,,,,,1,0,340,295,1,339,ratio43_8_14_11.png,,,,,,,,,,,,
,,,,,,,,,,,,Some,Few,Most,All,Many,Half,None,More than half,Less than half,0.057291667,0.27734375,1,0,0,QQQ4,,,,,,,,English,2020-07-02_11h05.58.551,Experiment_English,3.2.4,Win32,60,,,,,,,,,,,,,,,,,,,,,1,0,340,52,1,339,ratioX0_13_13_10.png,,,,,,,,,,,,
,,,,,,,,,,,,Less than half,More than half,Some,All,Many,Most,None,Half,Few,0.016927083,-0.279947917,1,0,0,QQQ6,,,,,,,,English,2020-07-02_11h05.58.551,Experiment_English,3.2.4,Win32,60,,,,,,,,,,,,,,,,,,,,,1,0,340,324,1,339,ratio91_9_10_7.png,,,,,,,,,,,,
,,,,,,,,,,,,Less than half,Some,All,Few,Most,Many,More than half,None,Half,-0.514322917,0.350260417,1,0,0,QQQ7,,,,,,,,English,2020-07-02_11h05.58.551,Experiment_English,3.2.4,Win32,60,,,,,,,,,,,,,,,,,,,,,1,0,340,292,1,339,ratio43_8_14_6.png,,,,,,,,,,,,
,,,,,,,,,,,,Half,More than half,Some,Less than half,Most,Many,Few,All,None,0.052083333,0.3046875,1,0,0,QQQ4,,,,,,,,English,2020-07-02_11h05.58.551,Experiment_English,3.2.4,Win32,60,,,,,,,,,,,,,,,,,,,,,1,0,340,246,1,339,ratio34_3_7_11.png,,,,,,,,,,,,
,,,,,,,,,,,,Many,Some,Half,More than half,Most,All,None,Few,Less than half,0.138020833,0.268229167,1,0,0,QQQ4,,,,,,,,English,2020-07-02_11h05.58.551,Experiment_English,3.2.4,Win32,60,,,,,,,,,,,,,,,,,,,,,1,0,340,288,1,339,ratio43_4_7_18.png,,,,,,,,,,,,
,,,,,,,,,,,,Less than half,More than half,Half,Many,Most,None,All,Some,Few,-0.494791667,-0.018229167,1,0,0,QQQ8,,,,,,,,English,2020-07-02_11h05.58.551,Experiment_English,3.2.4,Win32,60,,,,,,,,,,,,,,,,,,,,,1,0,340,258,1,339,ratio34_6_14_14.png,,,,,,,,,,,,
,,,,,,,,,,,,None,Many,Some,Less than half,Most,Few,Half,All,More than half,0.518229167,-0.282552083,1,0,0,QQQ3,,,,,,,,English,2020-07-02_11h05.58.551,Experiment_English,3.2.4,Win32,60,,,,,,,,,,,,,,,,,,,,,1,0,340,82,1,339,ratio13_1_4_7.png,,,,,,,,,,,,
,,,,,,,,,,,,More than half,Few,Most,Some,All,Many,Less than half,None,Half,-0.411458333,0.361979167,1,0,0,QQQ7,,,,,,,,English,2020-07-02_11h05.58.551,Experiment_English,3.2.4,Win32,60,,,,,,,,,,,,,,,,,,,,,1,0,340,184,1,339,ratio23_2_5_10.png,,,,,,,,,,,,
,,,,,,,,,,,,All,None,More than half,Some,Many,Less than half,Half,Most,Few,-0.598958333,0.075520833,1,0,0,QQQ8,,,,,,,,English,2020-07-02_11h05.58.551,Experiment_English,3.2.4,Win32,60,,,,,,,,,,,,,,,,,,,,,1,0,340,200,1,339,ratio31_3_4_4.png,,,,,,,,,,,,
,,,,,,,,,,,,More than half,Half,Some,None,Many,All,Less than half,Few,Most,-0.01171875,0.020833333,1,0,0,QQQ5,,,,,,,,English,2020-07-02_11h05.58.551,Experiment_English,3.2.4,Win32,60,,,,,,,,,,,,,,,,,,,,,1,0,340,212,1,339,ratio31_12_16_1.png,,,,,,,,,,,,
,,,,,,,,,,,,More than half,Less than half,All,None,Half,Few,Some,Many,Most,-0.497395833,0.36328125,1,0,0,QQQ7,,,,,,,,English,2020-07-02_11h05.58.551,Experiment_English,3.2.4,Win32,60,,,,,,,,,,,,,,,,,,,,,1,0,340,124,1,339,ratio15_1_6_16.png,,,,,,,,,,,,
,,,,,,,,,,,,Half,Few,None,Most,Less than half,More than half,Many,All,Some,-0.048177083,0.28125,1,0,0,QQQ4,,,,,,,,English,2020-07-02_11h05.58.551,Experiment_English,3.2.4,Win32,60,,,,,,,,,,,,,,,,,,,,,1,0,340,309,1,339,ratio51_10_12_10.png,,,,,,,,,,,,
,,,,,,,,,,,,All,More than half,Less than half,Few,Some,Most,None,Many,Half,-0.536458333,-0.084635417,1,0,0,QQQ8,,,,,,,,English,2020-07-02_11h05.58.551,Experiment_English,3.2.4,Win32,60,,,,,,,,,,,,,,,,,,,,,1,0,340,29,1,339,ratio11_6_12_1.png,,,,,,,,,,,,
,,,,,,,,,,,,All,Most,More than half,Many,Less than half,Half,Few,Some,None,-0.359375,0.294270833,1,0,0,QQQ7,,,,,,,,English,2020-07-02_11h05.58.551,Experiment_English,3.2.4,Win32,60,,,,,,,,,,,,,,,,,,,,,1,0,340,13,1,339,ratio12_5_15_3.png,,,,,,,,,,,,
,,,,,,,,,,,,Half,Less than half,All,Some,Many,None,More than half,Most,Few,-0.0234375,0.30078125,1,0,0,QQQ4,,,,,,,,English,2020-07-02_11h05.58.551,Experiment_English,3.2.4,Win32,60,,,,,,,,,,,,,,,,,,,,,1,0,340,144,1,339,ratio19_1_10_11.png,,,,,,,,,,,,
,,,,,,,,,,,,Less than half,Some,Half,Few,None,All,Many,More than half,Most,-0.50390625,-0.31640625,1,0,0,QQQ9,,,,,,,,English,2020-07-02_11h05.58.551,Experiment_English,3.2.4,Win32,60,,,,,,,,,,,,,,,,,,,,,1,0,340,321,1,339,ratio91_9_10_2.png,,,,,,,,,,,,
,,,,,,,,,,,,More than half,Many,None,All,Most,Few,Half,Some,Less than half,-0.084635417,0.029947917,1,0,0,QQQ5,,,,,,,,English,2020-07-02_11h05.58.551,Experiment_English,3.2.4,Win32,60,,,,,,,,,,,,,,,,,,,,,1,0,340,215,1,339,ratio31_12_16_8.png,,,,,,,,,,,,
,,,,,,,,,,,,Most,Less than half,Some,None,All,More than half,Many,Few,Half,-0.453125,0.279947917,1,0,0,QQQ7,,,,,,,,English,2020-07-02_11h05.58.551,Experiment_English,3.2.4,Win32,60,,,,,,,,,,,,,,,,,,,,,1,0,340,229,1,339,ratio32_6_10_9.png,,,,,,,,,,,,
,,,,,,,,,,,,Few,Half,Less than half,Most,More than half,Some,All,Many,None,0.626302083,0.3515625,1,0,0,QQQ1,,,,,,,,English,2020-07-02_11h05.58.551,Experiment_English,3.2.4,Win32,60,,,,,,,,,,,,,,,,,,,,,1,0,340,119,1,339,ratio14_4_20_10.png,,,,,,,,,,,,
,,,,,,,,,,,,Half,More than half,Few,None,Most,Many,All,Less than half,Some,0.62890625,-0.028645833,1,0,0,QQQ2,,,,,,,,English,2020-07-02_11h05.58.551,Experiment_English,3.2.4,Win32,60,,,,,,,,,,,,,,,,,,,,,1,0,340,223,1,339,ratio32_3_5_5.png,,,,,,,,,,,,
,,,,,,,,,,,,Few,Less than half,Many,Half,Most,Some,All,None,More than half,-0.630208333,0.388020833,1,0,0,QQQ7,,,,,,,,English,2020-07-02_11h05.58.551,Experiment_English,3.2.4,Win32,60,,,,,,,,,,,,,,,,,,,,,1,0,340,48,1,339,ratioX0_10_10_1.png,,,,,,,,,,,,
,,,,,,,,,,,,Few,Some,Most,None,Many,Half,Less than half,All,More than half,-0.485677083,-0.221354167,1,0,0,QQQ9,,,,,,,,English,2020-07-02_11h05.58.551,Experiment_English,3.2.4,Win32,60,,,,,,,,,,,,,,,,,,,,,1,0,340,280,1,339,ratio43_4_7_2.png,,,,,,,,,,,,
,,,,,,,,,,,,All,None,Few,Many,Less than half,Half,Some,Most,More than half,0.463541667,-0.033854167,1,0,0,QQQ2,,,,,,,,English,2020-07-02_11h05.58.551,Experiment_English,3.2.4,Win32,60,,,,,,,,,,,,,,,,,,,,,1,0,340,68,1,339,ratio0Y_0_11_3.png,,,,,,,,,,,,
,,,,,,,,,,,,Most,None,Many,All,Few,More than half,Half,Less than half,Some,-0.01953125,-0.317708333,1,0,0,QQQ6,,,,,,,,English,2020-07-02_11h05.58.551,Experiment_English,3.2.4,Win32,60,,,,,,,,,,,,,,,,,,,,,1,0,340,230,1,339,ratio32_9_15_1.png,,,,,,,,,,,,
,,,,,,,,,,,,Some,Most,Less than half,All,More than half,None,Half,Many,Few,0.466145833,0.005208333,1,0,0,QQQ2,,,,,,,,English,2020-07-02_11h05.58.551,Experiment_English,3.2.4,Win32,60,,,,,,,,,,,,,,,,,,,,,1,0,340,300,1,339,ratio51_5_6_1.png,,,,,,,,,,,,
,,,,,,,,,,,,Few,None,All,Most,Half,Some,Many,More than half,Less than half,0.033854167,0.264322917,1,0,0,QQQ4,,,,,,,,English,2020-07-02_11h05.58.551,Experiment_English,3.2.4,Win32,60,,,,,,,,,,,,,,,,,,,,,1,0,340,266,1,339,ratio41_8_10_2.png,,,,,,,,,,,,
,,,,,,,,,,,,Less than half,Some,All,Half,Most,Few,More than half,Many,None,0.541666667,-0.07421875,1,0,0,QQQ2,,,,,,,,English,2020-07-02_11h05.58.551,Experiment_English,3.2.4,Win32,60,,,,,,,,,,,,,,,,,,,,,1,0,340,118,1,339,ratio14_4_20_8.png,,,,,,,,,,,,
,,,,,,,,,,,,Most,More than half,Some,Half,Few,Many,Less than half,All,None,0.55859375,-0.354166667,1,0,0,QQQ3,,,,,,,,English,2020-07-02_11h05.58.551,Experiment_English,3.2.4,Win32,60,,,,,,,,,,,,,,,,,,,,,1,0,340,15,1,339,ratio12_5_15_5.png,,,,,,,,,,,,
,,,,,,,,,,,,Less than half,Most,Many,More than half,Few,All,Some,Half,None,0.563802083,-0.358072917,1,0,0,QQQ3,,,,,,,,English,2020-07-02_11h05.58.551,Experiment_English,3.2.4,Win32,60,,,,,,,,,,,,,,,,,,,,,1,0,340,294,1,339,ratio43_8_14_9.png,,,,,,,,,,,,
,,,,,,,,,,,,Half,Most,Few,Less than half,More than half,All,Many,Some,None,-0.466145833,-0.022135417,1,0,0,QQQ8,,,,,,,,English,2020-07-02_11h05.58.551,Experiment_English,3.2.4,Win32,60,,,,,,,,,,,,,,,,,,,,,1,0,340,239,1,339,ratio32_12_20_10.png,,,,,,,,,,,,
,,,,,,,,,,,,Most,Some,Half,More than half,Few,All,Less than half,None,Many,-0.442708333,-0.309895833,1,0,0,QQQ9,,,,,,,,English,2020-07-02_11h05.58.551,Experiment_English,3.2.4,Win32,60,,,,,,,,,,,,,,,,,,,,,1,0,340,252,1,339,ratio34_6_14_3.png,,,,,,,,,,,,
,,,,,,,,,,,,More than half,Some,Few,All,Most,Half,None,Less than half,Many,-0.479166667,-0.299479167,1,0,0,QQQ9,,,,,,,,English,2020-07-02_11h05.58.551,Experiment_English,3.2.4,Win32,60,,,,,,,,,,,,,,,,,,,,,1,0,340,291,1,339,ratio43_8_14_5.png,,,,,,,,,,,,
,,,,,,,,,,,,Few,Half,None,Less than half,Most,More than half,Some,Many,All,0.130208333,0.299479167,1,0,0,QQQ4,,,,,,,,English,2020-07-02_11h05.58.551,Experiment_English,3.2.4,Win32,60,,,,,,,,,,,,,,,,,,,,,1,0,340,96,1,339,ratio13_5_20_1.png,,,,,,,,,,,,
,,,,,,,,,,,,Less than half,Few,More than half,Some,All,Most,Half,Many,None,0.63671875,-0.015625,1,0,0,QQQ2,,,,,,,,English,2020-07-02_11h05.58.551,Experiment_English,3.2.4,Win32,60,,,,,,,,,,,,,,,,,,,,,1,0,340,156,1,339,ratio19_2_20_14.png,0.411458333,-0.419270833,1,0,0,continue_button_pause,1,0,1,0,1,0
,,,,,,,,,,,,,,,,,,,,,,,,,,,,,,,,,,English,2020-07-02_11h05.58.551,Experiment_English,3.2.4,Win32,60,,,,,,,,,,,,,,,,,,,,,1,0,340,156,1,339,ratio19_2_20_14.png,,,,,,,,,,,,
,,,,,,,,,,,,Less than half,Half,More than half,Some,Most,All,None,Few,Many,0.446614583,-0.32421875,1,0,0,QQQ3,,,,,,,,English,2020-07-02_11h05.58.551,Experiment_English,3.2.4,Win32,60,,,,,,,,,,,,,,,,,,,,,1,0,340,289,1,339,ratio43_4_7_20.png,,,,,,,,,,,,
,,,,,,,,,,,,More than half,Most,All,Less than half,Many,None,Few,Some,Half,0.373697917,0.2578125,1,0,0,QQQ1,,,,,,,,English,2020-07-02_11h05.58.551,Experiment_English,3.2.4,Win32,60,,,,,,,,,,,,,,,,,,,,,1,0,340,168,1,339,ratio21_6_9_3.png,,,,,,,,,,,,
,,,,,,,,,,,,Less than half,More than half,Most,None,Half,All,Many,Some,Few,-0.471354167,-0.326822917,1,0,0,QQQ9,,,,,,,,English,2020-07-02_11h05.58.551,Experiment_English,3.2.4,Win32,60,,,,,,,,,,,,,,,,,,,,,1,0,340,138,1,339,ratio15_3_18_17.png,,,,,,,,,,,,
,,,,,,,,,,,,Less than half,None,Most,Some,Half,Few,More than half,All,Many,0.131510417,0.337239583,1,0,0,QQQ4,,,,,,,,English,2020-07-02_11h05.58.551,Experiment_English,3.2.4,Win32,60,,,,,,,,,,,,,,,,,,,,,1,0,340,122,1,339,ratio15_1_6_7.png,,,,,,,,,,,,
,,,,,,,,,,,,Few,Some,All,Half,Most,Less than half,None,More than half,Many,0.592447917,0.359375,1,0,0,QQQ1,,,,,,,,English,2020-07-02_11h05.58.551,Experiment_English,3.2.4,Win32,60,,,,,,,,,,,,,,,,,,,,,1,0,340,5,1,339,ratio12_2_6_9.png,,,,,,,,,,,,
,,,,,,,,,,,,Most,All,Half,Less than half,None,Some,Many,Few,More than half,-0.447916667,-0.033854167,1,0,0,QQQ8,,,,,,,,English,2020-07-02_11h05.58.551,Experiment_English,3.2.4,Win32,60,,,,,,,,,,,,,,,,,,,,,1,0,340,135,1,339,ratio15_3_18_7.png,,,,,,,,,,,,
,,,,,,,,,,,,Few,Less than half,Most,Many,Half,More than half,None,Some,All,0.059895833,0.244791667,1,0,0,QQQ4,,,,,,,,English,2020-07-02_11h05.58.551,Experiment_English,3.2.4,Win32,60,,,,,,,,,,,,,,,,,,,,,1,0,340,232,1,339,ratio32_9_15_8.png,,,,,,,,,,,,
,,,,,,,,,,,,None,Most,Many,Few,All,Some,Less than half,Half,More than half,0.1171875,0.26171875,1,0,0,QQQ4,,,,,,,,English,2020-07-02_11h05.58.551,Experiment_English,3.2.4,Win32,60,,,,,,,,,,,,,,,,,,,,,1,0,340,151,1,339,ratio19_2_20_4.png,,,,,,,,,,,,
,,,,,,,,,,,,More than half,Many,None,Few,Less than half,All,Half,Most,Some,0.145833333,-0.036458333,1,0,0,QQQ5,,,,,,,,English,2020-07-02_11h05.58.551,Experiment_English,3.2.4,Win32,60,,,,,,,,,,,,,,,,,,,,,1,0,340,193,1,339,ratio23_6_15_9.png,,,,,,,,,,,,
,,,,,,,,,,,,Many,More than half,Most,All,Half,Few,Some,None,Less than half,0.057291667,0.307291667,1,0,0,QQQ4,,,,,,,,English,2020-07-02_11h05.58.551,Experiment_English,3.2.4,Win32,60,,,,,,,,,,,,,,,,,,,,,1,0,340,40,1,339,ratioX0_3_3_5.png,,,,,,,,,,,,
,,,,,,,,,,,,None,All,Many,Less than half,Most,Some,Half,More than half,Few,-0.541666667,0.005208333,1,0,0,QQQ8,,,,,,,,English,2020-07-02_11h05.58.551,Experiment_English,3.2.4,Win32,60,,,,,,,,,,,,,,,,,,,,,1,0,340,233,1,339,ratio32_9_15_9.png,,,,,,,,,,,,
,,,,,,,,,,,,Most,Half,All,Many,Few,Some,Less than half,None,More than half,0.055989583,0.305989583,1,0,0,QQQ4,,,,,,,,English,2020-07-02_11h05.58.551,Experiment_English,3.2.4,Win32,60,,,,,,,,,,,,,,,,,,,,,1,0,340,35,1,339,ratio11_8_16_10.png,,,,,,,,,,,,
,,,,,,,,,,,,Some,Half,None,All,More than half,Less than half,Most,Many,Few,0.106770833,0.020833333,1,0,0,QQQ5,,,,,,,,English,2020-07-02_11h05.58.551,Experiment_English,3.2.4,Win32,60,,,,,,,,,,,,,,,,,,,,,1,0,340,231,1,339,ratio32_9_15_2.png,,,,,,,,,,,,
,,,,,,,,,,,,Half,More than half,Few,Many,All,Less than half,None,Most,Some,-0.46484375,-0.391927083,1,0,0,QQQ9,,,,,,,,English,2020-07-02_11h05.58.551,Experiment_English,3.2.4,Win32,60,,,,,,,,,,,,,,,,,,,,,1,0,340,254,1,339,ratio34_6_14_9.png,,,,,,,,,,,,
,,,,,,,,,,,,Less than half,Many,Most,Few,All,Some,Half,None,More than half,0.600260417,-0.239583333,1,0,0,QQQ3,,,,,,,,English,2020-07-02_11h05.58.551,Experiment_English,3.2.4,Win32,60,,,,,,,,,,,,,,,,,,,,,1,0,340,329,1,339,ratio91_9_10_20.png,,,,,,,,,,,,
,,,,,,,,,,,,Less than half,Many,None,Some,Few,Half,More than half,All,Most,0,-0.024739583,1,0,0,QQQ5,,,,,,,,English,2020-07-02_11h05.58.551,Experiment_English,3.2.4,Win32,60,,,,,,,,,,,,,,,,,,,,,1,0,340,146,1,339,ratio19_1_10_17.png,,,,,,,,,,,,
,,,,,,,,,,,,Few,Some,More than half,Half,Less than half,None,Most,All,Many,0.463541667,0.259114583,1,0,0,QQQ1,,,,,,,,English,2020-07-02_11h05.58.551,Experiment_English,3.2.4,Win32,60,,,,,,,,,,,,,,,,,,,,,1,0,340,86,1,339,ratio13_2_8_6.png,,,,,,,,,,,,
,,,,,,,,,,,,Half,Less than half,Some,None,More than half,All,Few,Most,Many,-0.545572917,0.053385417,1,0,0,QQQ8,,,,,,,,English,2020-07-02_11h05.58.551,Experiment_English,3.2.4,Win32,60,,,,,,,,,,,,,,,,,,,,,1,0,340,279,1,339,ratio41_16_20_10.png,,,,,,,,,,,,
,,,,,,,,,,,,Most,Few,None,Some,Less than half,More than half,Many,All,Half,-0.428385417,-0.356770833,1,0,0,QQQ9,,,,,,,,English,2020-07-02_11h05.58.551,Experiment_English,3.2.4,Win32,60,,,,,,,,,,,,,,,,,,,,,1,0,340,24,1,339,ratio11_4_8_3.png,,,,,,,,,,,,
,,,,,,,,,,,,None,Most,Less than half,Some,More than half,All,Many,Few,Half,-0.4453125,0.287760417,1,0,0,QQQ7,,,,,,,,English,2020-07-02_11h05.58.551,Experiment_English,3.2.4,Win32,60,,,,,,,,,,,,,,,,,,,,,1,0,340,237,1,339,ratio32_12_20_5.png,,,,,,,,,,,,
,,,,,,,,,,,,Most,Less than half,Half,More than half,Few,All,Many,None,Some,0.505208333,0.302083333,1,0,0,QQQ1,,,,,,,,English,2020-07-02_11h05.58.551,Experiment_English,3.2.4,Win32,60,,,,,,,,,,,,,,,,,,,,,1,0,340,308,1,339,ratio51_10_12_9.png,,,,,,,,,,,,
,,,,,,,,,,,,Half,Many,Some,Less than half,None,Few,More than half,Most,All,-0.122395833,0.369791667,1,0,0,QQQ4,,,,,,,,English,2020-07-02_11h05.58.551,Experiment_English,3.2.4,Win32,60,,,,,,,,,,,,,,,,,,,,,1,0,340,241,1,339,ratio34_3_7_5.png,,,,,,,,,,,,
,,,,,,,,,,,,Some,None,Few,Many,All,More than half,Less than half,Most,Half,-0.536458333,0.018229167,1,0,0,QQQ8,,,,,,,,English,2020-07-02_11h05.58.551,Experiment_English,3.2.4,Win32,60,,,,,,,,,,,,,,,,,,,,,1,0,340,202,1,339,ratio31_3_4_8.png,,,,,,,,,,,,
,,,,,,,,,,,,Many,Few,Half,Most,Some,None,More than half,All,Less than half,-0.016927083,-0.087239583,1,0,0,QQQ5,,,,,,,,English,2020-07-02_11h05.58.551,Experiment_English,3.2.4,Win32,60,,,,,,,,,,,,,,,,,,,,,1,0,340,2,1,339,ratio12_1_3_10.png,,,,,,,,,,,,
,,,,,,,,,,,,Few,None,Most,Many,All,More than half,Less than half,Some,Half,0.375,0.0546875,1,0,0,QQQ2,,,,,,,,English,2020-07-02_11h05.58.551,Experiment_English,3.2.4,Win32,60,,,,,,,,,,,,,,,,,,,,,1,0,340,67,1,339,ratio0Y_0_10_10.png,,,,,,,,,,,,
,,,,,,,,,,,,Few,None,Less than half,Half,All,Many,Some,Most,More than half,-0.528645833,0.032552083,1,0,0,QQQ8,,,,,,,,English,2020-07-02_11h05.58.551,Experiment_English,3.2.4,Win32,60,,,,,,,,,,,,,,,,,,,,,1,0,340,204,1,339,ratio31_6_8_1.png,,,,,,,,,,,,
,,,,,,,,,,,,All,Many,Few,None,Some,Half,More than half,Most,Less than half,0.52734375,-0.272135417,1,0,0,QQQ3,,,,,,,,English,2020-07-02_11h05.58.551,Experiment_English,3.2.4,Win32,60,,,,,,,,,,,,,,,,,,,,,1,0,340,84,1,339,ratio13_2_8_1.png,,,,,,,,,,,,
,,,,,,,,,,,,Many,Most,Few,More than half,Half,All,Less than half,None,Some,0.536458333,0.05078125,1,0,0,QQQ2,,,,,,,,English,2020-07-02_11h05.58.551,Experiment_English,3.2.4,Win32,60,,,,,,,,,,,,,,,,,,,,,1,0,340,338,1,339,ratio91_18_20_18.png,,,,,,,,,,,,
,,,,,,,,,,,,Many,Less than half,Some,All,Most,More than half,None,Few,Half,0.415364583,0.236979167,1,0,0,QQQ1,,,,,,,,English,2020-07-02_11h05.58.551,Experiment_English,3.2.4,Win32,60,,,,,,,,,,,,,,,,,,,,,1,0,340,39,1,339,ratio11_10_20_6.png,,,,,,,,,,,,
,,,,,,,,,,,,Many,Some,Half,Less than half,More than half,Most,None,All,Few,-0.080729167,0.03125,1,0,0,QQQ5,,,,,,,,English,2020-07-02_11h05.58.551,Experiment_English,3.2.4,Win32,60,,,,,,,,,,,,,,,,,,,,,1,0,340,287,1,339,ratio43_4_7_17.png,,,,,,,,,,,,
,,,,,,,,,,,,Some,Half,More than half,Few,Many,None,All,Less than half,Most,-0.033854167,-0.03125,1,0,0,QQQ5,,,,,,,,English,2020-07-02_11h05.58.551,Experiment_English,3.2.4,Win32,60,,,,,,,,,,,,,,,,,,,,,1,0,340,265,1,339,ratio41_8_10_1.png,,,,,,,,,,,,
,,,,,,,,,,,,Some,Half,Most,Many,Less than half,Few,None,More than half,All,0.479166667,0.30859375,1,0,0,QQQ1,,,,,,,,English,2020-07-02_11h05.58.551,Experiment_English,3.2.4,Win32,60,,,,,,,,,,,,,,,,,,,,,1,0,340,245,1,339,ratio34_3_7_10.png,,,,,,,,,,,,
,,,,,,,,,,,,Many,Most,All,Few,None,Half,More than half,Some,Less than half,-0.592447917,-0.03515625,1,0,0,QQQ8,,,,,,,,English,2020-07-02_11h05.58.551,Experiment_English,3.2.4,Win32,60,,,,,,,,,,,,,,,,,,,,,1,0,340,100,1,339,ratio14_1_5_3.png,,,,,,,,,,,,
,,,,,,,,,,,,None,Half,Less than half,Few,Some,Most,Many,All,More than half,-0.528645833,0.348958333,1,0,0,QQQ7,,,,,,,,English,2020-07-02_11h05.58.551,Experiment_English,3.2.4,Win32,60,,,,,,,,,,,,,,,,,,,,,1,0,340,314,1,339,ratio51_15_18_4.png,0.266927083,-0.3984375,1,0,0,continue_button_pause,1,0,1,0,1,0
,,,,,,,,,,,,,,,,,,,,,,,,,,,,,,,,,,English,2020-07-02_11h05.58.551,Experiment_English,3.2.4,Win32,60,,,,,,,,,,,,,,,,,,,,,1,0,340,314,1,339,ratio51_15_18_4.png,,,,,,,,,,,,
,,,,,,,,,,,,More than half,None,All,Half,Most,Few,Less than half,Some,Many,-0.028645833,-0.045572917,1,0,0,QQQ5,,,,,,,,English,2020-07-02_11h05.58.551,Experiment_English,3.2.4,Win32,60,,,,,,,,,,,,,,,,,,,,,1,0,340,205,1,339,ratio31_6_8_2.png,,,,,,,,,,,,
,,,,,,,,,,,,Less than half,Many,Most,None,More than half,Half,Some,All,Few,-0.037760417,-0.057291667,1,0,0,QQQ5,,,,,,,,English,2020-07-02_11h05.58.551,Experiment_English,3.2.4,Win32,60,,,,,,,,,,,,,,,,,,,,,1,0,340,173,1,339,ratio21_8_12_9.png,,,,,,,,,,,,
,,,,,,,,,,,,None,All,More than half,Many,Half,Most,Less than half,Few,Some,-0.571614583,0.065104167,1,0,0,QQQ8,,,,,,,,English,2020-07-02_11h05.58.551,Experiment_English,3.2.4,Win32,60,,,,,,,,,,,,,,,,,,,,,1,0,340,154,1,339,ratio19_2_20_11.png,,,,,,,,,,,,
,,,,,,,,,,,,Most,Many,Half,Some,All,Less than half,Few,None,More than half,-0.524739583,0.04296875,1,0,0,QQQ8,,,,,,,,English,2020-07-02_11h05.58.551,Experiment_English,3.2.4,Win32,60,,,,,,,,,,,,,,,,,,,,,1,0,340,71,1,339,ratio0Y_0_12_10.png,,,,,,,,,,,,
,,,,,,,,,,,,Few,All,Many,Some,Half,More than half,Less than half,None,Most,-0.446614583,0.236979167,1,0,0,QQQ7,,,,,,,,English,2020-07-02_11h05.58.551,Experiment_English,3.2.4,Win32,60,,,,,,,,,,,,,,,,,,,,,1,0,340,12,1,339,ratio12_4_12_10.png,,,,,,,,,,,,
,,,,,,,,,,,,Few,All,Many,More than half,Half,None,Less than half,Most,Some,0.50390625,0.009114583,1,0,0,QQQ2,,,,,,,,English,2020-07-02_11h05.58.551,Experiment_English,3.2.4,Win32,60,,,,,,,,,,,,,,,,,,,,,1,0,340,55,1,339,ratioX0_16_16_3.png,,,,,,,,,,,,
,,,,,,,,,,,,Some,Half,More than half,Most,Less than half,Few,Many,None,All,-0.0078125,0.278645833,1,0,0,QQQ4,,,,,,,,English,2020-07-02_11h05.58.551,Experiment_English,3.2.4,Win32,60,,,,,,,,,,,,,,,,,,,,,1,0,340,218,1,339,ratio31_15_20_7.png,,,,,,,,,,,,
,,,,,,,,,,,,Most,Many,Few,None,Less than half,More than half,All,Half,Some,0.48046875,-0.291666667,1,0,0,QQQ3,,,,,,,,English,2020-07-02_11h05.58.551,Experiment_English,3.2.4,Win32,60,,,,,,,,,,,,,,,,,,,,,1,0,340,99,1,339,ratio13_5_20_4.png,,,,,,,,,,,,
,,,,,,,,,,,,More than half,Most,Half,None,Few,Some,Many,Less than half,All,0.537760417,-0.032552083,1,0,0,QQQ2,,,,,,,,English,2020-07-02_11h05.58.551,Experiment_English,3.2.4,Win32,60,,,,,,,,,,,,,,,,,,,,,1,0,340,178,1,339,ratio21_12_18_2.png,,,,,,,,,,,,
,,,,,,,,,,,,Some,Few,None,Less than half,More than half,Half,Many,Most,All,0.41796875,0.2890625,1,0,0,QQQ1,,,,,,,,English,2020-07-02_11h05.58.551,Experiment_English,3.2.4,Win32,60,,,,,,,,,,,,,,,,,,,,,1,0,340,97,1,339,ratio13_5_20_2.png,,,,,,,,,,,,
,,,,,,,,,,,,Many,Most,Half,None,Some,Less than half,Few,All,More than half,0.029947917,0.295572917,1,0,0,QQQ4,,,,,,,,English,2020-07-02_11h05.58.551,Experiment_English,3.2.4,Win32,60,,,,,,,,,,,,,,,,,,,,,1,0,340,64,1,339,ratio0Y_0_7_1.png,,,,,,,,,,,,
,,,,,,,,,,,,Many,Some,Few,Most,Half,Less than half,None,All,More than half,0.5703125,-0.30859375,1,0,0,QQQ3,,,,,,,,English,2020-07-02_11h05.58.551,Experiment_English,3.2.4,Win32,60,,,,,,,,,,,,,,,,,,,,,1,0,340,112,1,339,ratio14_3_15_4.png,,,,,,,,,,,,
,,,,,,,,,,,,None,Half,More than half,Few,All,Most,Less than half,Many,Some,-0.625,0.33984375,1,0,0,QQQ7,,,,,,,,English,2020-07-02_11h05.58.551,Experiment_English,3.2.4,Win32,60,,,,,,,,,,,,,,,,,,,,,1,0,340,194,1,339,ratio23_6_15_10.png,,,,,,,,,,,,
,,,,,,,,,,,,Some,More than half,All,Less than half,None,Half,Most,Many,Few,-0.486979167,0.278645833,1,0,0,QQQ7,,,,,,,,English,2020-07-02_11h05.58.551,Experiment_English,3.2.4,Win32,60,,,,,,,,,,,,,,,,,,,,,1,0,340,271,1,339,ratio41_12_15_6.png,,,,,,,,,,,,
,,,,,,,,,,,,None,Many,More than half,All,Less than half,Some,Few,Half,Most,-0.614583333,0.296875,1,0,0,QQQ7,,,,,,,,English,2020-07-02_11h05.58.551,Experiment_English,3.2.4,Win32,60,,,,,,,,,,,,,,,,,,,,,1,0,340,95,1,339,ratio13_4_16_10.png,,,,,,,,,,,,
,,,,,,,,,,,,None,Many,Some,Few,Less than half,Half,More than half,All,Most,0.544270833,-0.234375,1,0,0,QQQ3,,,,,,,,English,2020-07-02_11h05.58.551,Experiment_English,3.2.4,Win32,60,,,,,,,,,,,,,,,,,,,,,1,0,340,125,1,339,ratio15_1_6_19.png,,,,,,,,,,,,
,,,,,,,,,,,,None,Less than half,Most,More than half,Half,Many,All,Few,Some,-0.442708333,-0.31640625,1,0,0,QQQ9,,,,,,,,English,2020-07-02_11h05.58.551,Experiment_English,3.2.4,Win32,60,,,,,,,,,,,,,,,,,,,,,1,0,340,235,1,339,ratio32_12_20_1.png,,,,,,,,,,,,
,,,,,,,,,,,,All,Most,Some,More than half,Less than half,Many,None,Half,Few,0.03125,0.29296875,1,0,0,QQQ4,,,,,,,,English,2020-07-02_11h05.58.551,Experiment_English,3.2.4,Win32,60,,,,,,,,,,,,,,,,,,,,,1,0,340,282,1,339,ratio43_4_7_7.png,,,,,,,,,,,,
,,,,,,,,,,,,Many,All,More than half,Some,Half,Most,Few,None,Less than half,-0.536458333,0.356770833,1,0,0,QQQ7,,,,,,,,English,2020-07-02_11h05.58.551,Experiment_English,3.2.4,Win32,60,,,,,,,,,,,,,,,,,,,,,1,0,340,21,1,339,ratio11_2_4_10.png,,,,,,,,,,,,
,,,,,,,,,,,,Most,More than half,Few,All,Half,Less than half,Many,None,Some,0.07421875,-0.302083333,1,0,0,QQQ6,,,,,,,,English,2020-07-02_11h05.58.551,Experiment_English,3.2.4,Win32,60,,,,,,,,,,,,,,,,,,,,,1,0,340,249,1,339,ratio34_3_7_20.png,,,,,,,,,,,,
,,,,,,,,,,,,Half,Most,None,All,Few,Some,Less than half,More than half,Many,-0.509114583,-0.337239583,1,0,0,QQQ9,,,,,,,,English,2020-07-02_11h05.58.551,Experiment_English,3.2.4,Win32,60,,,,,,,,,,,,,,,,,,,,,1,0,340,33,1,339,ratio11_7_14_8.png,,,,,,,,,,,,
,,,,,,,,,,,,None,Many,Half,Some,Most,Less than half,All,More than half,Few,-0.46484375,-0.2421875,1,0,0,QQQ9,,,,,,,,English,2020-07-02_11h05.58.551,Experiment_English,3.2.4,Win32,60,,,,,,,,,,,,,,,,,,,,,1,0,340,87,1,339,ratio13_2_8_8.png,,,,,,,,,,,,
,,,,,,,,,,,,Few,Most,More than half,Less than half,Some,Many,None,Half,All,0.063802083,0.298177083,1,0,0,QQQ4,,,,,,,,English,2020-07-02_11h05.58.551,Experiment_English,3.2.4,Win32,60,,,,,,,,,,,,,,,,,,,,,1,0,340,257,1,339,ratio34_6_14_12.png,,,,,,,,,,,,
,,,,,,,,,,,,Some,Half,All,None,Most,Few,Many,Less than half,More than half,-0.397135417,-0.065104167,1,0,0,QQQ8,,,,,,,,English,2020-07-02_11h05.58.551,Experiment_English,3.2.4,Win32,60,,,,,,,,,,,,,,,,,,,,,1,0,340,251,1,339,ratio34_6_14_2.png,,,,,,,,,,,,
,,,,,,,,,,,,Less than half,Many,None,Half,All,Most,More than half,Few,Some,-0.399739583,-0.35546875,1,0,0,QQQ9,,,,,,,,English,2020-07-02_11h05.58.551,Experiment_English,3.2.4,Win32,60,,,,,,,,,,,,,,,,,,,,,1,0,340,120,1,339,ratio15_1_6_1.png,,,,,,,,,,,,
,,,,,,,,,,,,Few,All,Less than half,Some,Most,More than half,Half,Many,None,0.09765625,0.278645833,1,0,0,QQQ4,,,,,,,,English,2020-07-02_11h05.58.551,Experiment_English,3.2.4,Win32,60,,,,,,,,,,,,,,,,,,,,,1,0,340,81,1,339,ratio13_1_4_5.png,,,,,,,,,,,,
,,,,,,,,,,,,Some,Half,Most,Few,None,Many,More than half,Less than half,All,0.438802083,-0.359375,1,0,0,QQQ3,,,,,,,,English,2020-07-02_11h05.58.551,Experiment_English,3.2.4,Win32,60,,,,,,,,,,,,,,,,,,,,,1,0,340,306,1,339,ratio51_5_6_18.png,,,,,,,,,,,,
,,,,,,,,,,,,More than half,Less than half,Half,None,Few,Many,Some,Most,All,0.096354167,-0.345052083,1,0,0,QQQ6,,,,,,,,English,2020-07-02_11h05.58.551,Experiment_English,3.2.4,Win32,60,,,,,,,,,,,,,,,,,,,,,1,0,340,10,1,339,ratio12_4_12_4.png,,,,,,,,,,,,
,,,,,,,,,,,,None,Half,More than half,Many,Some,Most,All,Less than half,Few,-0.5234375,0.311197917,1,0,0,QQQ7,,,,,,,,English,2020-07-02_11h05.58.551,Experiment_English,3.2.4,Win32,60,,,,,,,,,,,,,,,,,,,,,1,0,340,41,1,339,ratioX0_4_4_9.png,,,,,,,,,,,,
,,,,,,,,,,,,Many,Most,None,Half,Few,Less than half,More than half,All,Some,-0.072916667,-0.079427083,1,0,0,QQQ5,,,,,,,,English,2020-07-02_11h05.58.551,Experiment_English,3.2.4,Win32,60,,,,,,,,,,,,,,,,,,,,,1,0,340,116,1,339,ratio14_4_20_3.png,,,,,,,,,,,,
,,,,,,,,,,,,Some,Half,None,All,More than half,Many,Few,Most,Less than half,-0.0234375,0.333333333,1,0,0,QQQ4,,,,,,,,English,2020-07-02_11h05.58.551,Experiment_English,3.2.4,Win32,60,,,,,,,,,,,,,,,,,,,,,1,0,340,54,1,339,ratioX0_15_15_5.png,,,,,,,,,,,,
,,,,,,,,,,,,Most,Some,More than half,Many,None,Few,Less than half,All,Half,0.484375,0.283854167,1,0,0,QQQ1,,,,,,,,English,2020-07-02_11h05.58.551,Experiment_English,3.2.4,Win32,60,,,,,,,,,,,,,,,,,,,,,1,0,340,217,1,339,ratio31_15_20_5.png,,,,,,,,,,,,
,,,,,,,,,,,,None,More than half,Many,All,Few,Most,Less than half,Some,Half,0.029947917,-0.376302083,1,0,0,QQQ6,,,,,,,,English,2020-07-02_11h05.58.551,Experiment_English,3.2.4,Win32,60,,,,,,,,,,,,,,,,,,,,,1,0,340,270,1,339,ratio41_12_15_3.png,,,,,,,,,,,,
,,,,,,,,,,,,Half,All,Most,Many,More than half,None,Less than half,Some,Few,-0.114583333,0.016927083,1,0,0,QQQ5,,,,,,,,English,2020-07-02_11h05.58.551,Experiment_English,3.2.4,Win32,60,,,,,,,,,,,,,,,,,,,,,1,0,340,167,1,339,ratio21_6_9_2.png,,,,,,,,,,,,
