continue_mouse.x,continue_mouse.y,continue_mouse.leftButton,continue_mouse.midButton,continue_mouse.rightButton,continue_mouse.clicked_name,continue_mouse_2.x,continue_mouse_2.y,continue_mouse_2.leftButton,continue_mouse_2.midButton,continue_mouse_2.rightButton,continue_mouse_2.clicked_name,Q1,Q2,Q3,Q4,Q5,Q6,Q7,Q8,Q9,select_answer.x,select_answer.y,select_answer.leftButton,select_answer.midButton,select_answer.rightButton,select_answer.clicked_name,trial.thisRepN,trial.thisTrialN,trial.thisN,trial.thisIndex,trial.ran,trial.order,trials,Native tongue*,date,expName,psychopyVersion,OS,frameRate,key_resp.keys,key_resp.rt,Actual_Experiment.thisRepN,Actual_Experiment.thisTrialN,Actual_Experiment.thisN,Actual_Experiment.thisIndex,Actual_Experiment.ran,Actual_Experiment.order,Pic,mouse_pause.x,mouse_pause.y,mouse_pause.leftButton,mouse_pause.midButton,mouse_pause.rightButton,mouse_pause.clicked_name,pause.thisRepN,pause.thisTrialN,pause.thisN,pause.thisIndex,pause.ran,pause.order
0.346296296,-0.391666667,1,0,0,continue_button,0.325,-0.402777778,1,0,0,continue_button_2,More than half,Less than half,All,Some,Half,None,Most,Few,Many,-0.400925926,0.021296296,1,0,0,QQQ8,1,0,16,11,1,15,ratio14_1_5_7.png,English,2020-07-02_03h00.57.165,Experiment_English,3.2.4,Win32,60,,,,,,,,,,,,,,,,,,,,,
,,,,,,,,,,,,Less than half,Half,Some,All,Few,Most,Many,None,More than half,-0.127777778,0,1,0,0,QQQ5,1,0,16,4,1,15,ratio34_3_7_3.png,English,2020-07-02_03h00.57.165,Experiment_English,3.2.4,Win32,60,,,,,,,,,,,,,,,,,,,,,
,,,,,,,,,,,,Less than half,Many,Half,None,Some,Few,All,Most,More than half,0.112037037,-0.302777778,1,0,0,QQQ6,1,0,16,1,1,15,ratio51_5_6_8.png,English,2020-07-02_03h00.57.165,Experiment_English,3.2.4,Win32,60,,,,,,,,,,,,,,,,,,,,,
,,,,,,,,,,,,Most,All,Many,None,Half,Few,More than half,Some,Less than half,-0.391666667,-0.047222222,1,0,0,QQQ8,1,0,16,10,1,15,ratio15_2_12_4.png,English,2020-07-02_03h00.57.165,Experiment_English,3.2.4,Win32,60,,,,,,,,,,,,,,,,,,,,,
,,,,,,,,,,,,Half,Most,All,Many,More than half,Few,None,Less than half,Some,0.032407407,0.226851852,1,0,0,QQQ4,1,0,16,6,1,15,ratio31_12_16_7.png,English,2020-07-02_03h00.57.165,Experiment_English,3.2.4,Win32,60,,,,,,,,,,,,,,,,,,,,,
,,,,,,,,,,,,More than half,All,Less than half,Many,None,Few,Most,Some,Half,-0.471296296,-0.013888889,1,0,0,QQQ8,,,,,,,,English,2020-07-02_03h00.57.165,Experiment_English,3.2.4,Win32,60,b,12.64199996,1,0,340,175,1,339,ratio21_10_15_2.png,,,,,,,,,,,,
,,,,,,,,,,,,Few,All,Half,Some,Less than half,More than half,Most,None,Many,-0.400925926,-0.026851852,1,0,0,QQQ8,,,,,,,,English,2020-07-02_03h00.57.165,Experiment_English,3.2.4,Win32,60,,,1,0,340,281,1,339,ratio43_4_7_4.png,,,,,,,,,,,,
,,,,,,,,,,,,None,More than half,Most,Few,All,Some,Less than half,Many,Half,0.027777778,0.255555556,1,0,0,QQQ4,,,,,,,,English,2020-07-02_03h00.57.165,Experiment_English,3.2.4,Win32,60,,,1,0,340,22,1,339,ratio11_3_6_6.png,,,,,,,,,,,,
,,,,,,,,,,,,Some,Less than half,All,Most,More than half,Few,None,Many,Half,0.507407407,0.253703704,1,0,0,QQQ1,,,,,,,,English,2020-07-02_03h00.57.165,Experiment_English,3.2.4,Win32,60,,,1,0,340,237,1,339,ratio32_12_20_5.png,,,,,,,,,,,,
,,,,,,,,,,,,Most,Half,None,Less than half,Some,More than half,Few,Many,All,-0.50462963,0.325,1,0,0,QQQ7,,,,,,,,English,2020-07-02_03h00.57.165,Experiment_English,3.2.4,Win32,60,,,1,0,340,83,1,339,ratio13_1_4_10.png,,,,,,,,,,,,
,,,,,,,,,,,,Most,Few,Less than half,Some,Half,None,All,Many,More than half,0.102777778,-0.309259259,1,0,0,QQQ6,,,,,,,,English,2020-07-02_03h00.57.165,Experiment_English,3.2.4,Win32,60,,,1,0,340,63,1,339,ratio0Y_0_6_8.png,,,,,,,,,,,,
,,,,,,,,,,,,Many,Most,Some,Half,More than half,All,Less than half,Few,None,-0.410185185,-0.02962963,1,0,0,QQQ8,,,,,,,,English,2020-07-02_03h00.57.165,Experiment_English,3.2.4,Win32,60,,,1,0,340,123,1,339,ratio15_1_6_12.png,,,,,,,,,,,,
,,,,,,,,,,,,None,Half,Some,Many,Less than half,Few,All,More than half,Most,0.134259259,-0.27962963,1,0,0,QQQ6,,,,,,,,English,2020-07-02_03h00.57.165,Experiment_English,3.2.4,Win32,60,,,1,0,340,14,1,339,ratio12_5_15_4.png,,,,,,,,,,,,
,,,,,,,,,,,,Many,All,Few,None,Half,Some,Most,More than half,Less than half,0.439814815,-0.262962963,1,0,0,QQQ3,,,,,,,,English,2020-07-02_03h00.57.165,Experiment_English,3.2.4,Win32,60,,,1,0,340,2,1,339,ratio12_1_3_10.png,,,,,,,,,,,,
,,,,,,,,,,,,Half,All,Few,Less than half,Most,More than half,None,Some,Many,-0.408333333,-0.22037037,1,0,0,QQQ9,,,,,,,,English,2020-07-02_03h00.57.165,Experiment_English,3.2.4,Win32,60,,,1,0,340,236,1,339,ratio32_12_20_2.png,,,,,,,,,,,,
,,,,,,,,,,,,All,None,Few,Half,Many,Some,Less than half,More than half,Most,0.425,0.257407407,1,0,0,QQQ1,,,,,,,,English,2020-07-02_03h00.57.165,Experiment_English,3.2.4,Win32,60,,,1,0,340,43,1,339,ratioX0_6_6_9.png,,,,,,,,,,,,
,,,,,,,,,,,,Half,Few,Some,All,Most,None,More than half,Less than half,Many,0.044444444,-0.352777778,1,0,0,QQQ6,,,,,,,,English,2020-07-02_03h00.57.165,Experiment_English,3.2.4,Win32,60,,,1,0,340,171,1,339,ratio21_8_12_4.png,,,,,,,,,,,,
,,,,,,,,,,,,Most,Some,Half,All,None,Many,Less than half,More than half,Few,0.110185185,0.02962963,1,0,0,QQQ5,,,,,,,,English,2020-07-02_03h00.57.165,Experiment_English,3.2.4,Win32,60,,,1,0,340,71,1,339,ratio0Y_0_12_10.png,,,,,,,,,,,,
,,,,,,,,,,,,Most,None,All,Half,More than half,Less than half,Few,Many,Some,-0.407407407,0.255555556,1,0,0,QQQ7,,,,,,,,English,2020-07-02_03h00.57.165,Experiment_English,3.2.4,Win32,60,,,1,0,340,225,1,339,ratio32_6_10_4.png,,,,,,,,,,,,
,,,,,,,,,,,,None,Many,Most,Few,Some,All,More than half,Half,Less than half,0.000925926,0.244444444,1,0,0,QQQ4,,,,,,,,English,2020-07-02_03h00.57.165,Experiment_English,3.2.4,Win32,60,,,1,0,340,4,1,339,ratio12_2_6_5.png,,,,,,,,,,,,
,,,,,,,,,,,,More than half,Few,Some,None,Many,All,Less than half,Half,Most,0.032407407,0.267592593,1,0,0,QQQ4,,,,,,,,English,2020-07-02_03h00.57.165,Experiment_English,3.2.4,Win32,60,,,1,0,340,68,1,339,ratio0Y_0_11_3.png,,,,,,,,,,,,
,,,,,,,,,,,,Half,Less than half,Many,Most,None,All,Few,More than half,Some,-0.100925926,0.207407407,1,0,0,QQQ4,,,,,,,,English,2020-07-02_03h00.57.165,Experiment_English,3.2.4,Win32,60,,,1,0,340,335,1,339,ratio91_18_20_11.png,,,,,,,,,,,,
,,,,,,,,,,,,None,Less than half,Most,Many,More than half,Few,All,Half,Some,-0.067592593,-0.343518519,1,0,0,QQQ6,,,,,,,,English,2020-07-02_03h00.57.165,Experiment_English,3.2.4,Win32,60,,,1,0,340,92,1,339,ratio13_4_16_3.png,,,,,,,,,,,,
,,,,,,,,,,,,More than half,Less than half,Few,None,Most,Many,Some,All,Half,-0.025,0.253703704,1,0,0,QQQ4,,,,,,,,English,2020-07-02_03h00.57.165,Experiment_English,3.2.4,Win32,60,,,1,0,340,322,1,339,ratio91_9_10_3.png,,,,,,,,,,,,
,,,,,,,,,,,,All,More than half,Few,Half,Many,Most,Some,None,Less than half,0.119444444,-0.378703704,1,0,0,QQQ6,,,,,,,,English,2020-07-02_03h00.57.165,Experiment_English,3.2.4,Win32,60,,,1,0,340,238,1,339,ratio32_12_20_9.png,,,,,,,,,,,,
,,,,,,,,,,,,All,None,Most,Half,Few,Less than half,Some,More than half,Many,0.085185185,-0.00462963,1,0,0,QQQ5,,,,,,,,English,2020-07-02_03h00.57.165,Experiment_English,3.2.4,Win32,60,,,1,0,340,13,1,339,ratio12_5_15_3.png,,,,,,,,,,,,
,,,,,,,,,,,,Half,Many,Less than half,More than half,Few,Most,Some,All,None,-0.375,-0.282407407,1,0,0,QQQ9,,,,,,,,English,2020-07-02_03h00.57.165,Experiment_English,3.2.4,Win32,60,,,1,0,340,66,1,339,ratio0Y_0_9_8.png,,,,,,,,,,,,
,,,,,,,,,,,,Some,Few,None,Many,Most,Less than half,More than half,Half,All,0.422222222,-0.240740741,1,0,0,QQQ3,,,,,,,,English,2020-07-02_03h00.57.165,Experiment_English,3.2.4,Win32,60,,,1,0,340,77,1,339,ratio0Y_0_18_3.png,,,,,,,,,,,,
,,,,,,,,,,,,Less than half,More than half,Most,Few,Some,Many,All,Half,None,0.511111111,-0.318518519,1,0,0,QQQ3,,,,,,,,English,2020-07-02_03h00.57.165,Experiment_English,3.2.4,Win32,60,,,1,0,340,227,1,339,ratio32_6_10_6.png,,,,,,,,,,,,
,,,,,,,,,,,,Most,Many,Half,Few,All,None,More than half,Less than half,Some,0.506481481,0.255555556,1,0,0,QQQ1,,,,,,,,English,2020-07-02_03h00.57.165,Experiment_English,3.2.4,Win32,60,,,1,0,340,267,1,339,ratio41_8_10_4.png,,,,,,,,,,,,
,,,,,,,,,,,,Half,None,Many,Most,All,More than half,Some,Few,Less than half,-0.526851852,0.039814815,1,0,0,QQQ8,,,,,,,,English,2020-07-02_03h00.57.165,Experiment_English,3.2.4,Win32,60,,,1,0,340,193,1,339,ratio23_6_15_9.png,,,,,,,,,,,,
,,,,,,,,,,,,None,Few,Most,Some,Half,All,Many,More than half,Less than half,0.527777778,0.318518519,1,0,0,QQQ1,,,,,,,,English,2020-07-02_03h00.57.165,Experiment_English,3.2.4,Win32,60,,,1,0,340,78,1,339,ratio0Y_0_19_1.png,,,,,,,,,,,,
,,,,,,,,,,,,Half,Most,All,None,Some,More than half,Many,Less than half,Few,-0.486111111,-0.293518519,1,0,0,QQQ9,,,,,,,,English,2020-07-02_03h00.57.165,Experiment_English,3.2.4,Win32,60,,,1,0,340,280,1,339,ratio43_4_7_2.png,,,,,,,,,,,,
,,,,,,,,,,,,None,All,Some,Less than half,Few,Most,More than half,Half,Many,-0.031481481,-0.041666667,1,0,0,QQQ5,,,,,,,,English,2020-07-02_03h00.57.165,Experiment_English,3.2.4,Win32,60,,,1,0,340,130,1,339,ratio15_2_12_12.png,,,,,,,,,,,,
,,,,,,,,,,,,Most,Some,All,Many,None,Half,More than half,Less than half,Few,0.053703704,0.24537037,0,0,0,QQQ4,,,,,,,,English,2020-07-02_03h00.57.165,Experiment_English,3.2.4,Win32,60,,,1,0,340,160,1,339,ratio21_2_3_2.png,,,,,,,,,,,,
,,,,,,,,,,,,Some,Few,Half,None,More than half,All,Many,Most,Less than half,0.469444444,0.298148148,1,0,0,QQQ1,,,,,,,,English,2020-07-02_03h00.57.165,Experiment_English,3.2.4,Win32,60,,,1,0,340,142,1,339,ratio19_1_10_6.png,,,,,,,,,,,,
,,,,,,,,,,,,Many,Most,Half,None,Few,More than half,All,Less than half,Some,-0.42037037,0.282407407,1,0,0,QQQ7,,,,,,,,English,2020-07-02_03h00.57.165,Experiment_English,3.2.4,Win32,60,,,1,0,340,44,1,339,ratioX0_7_7_5.png,,,,,,,,,,,,
,,,,,,,,,,,,All,Some,Most,Less than half,Many,Half,Few,None,More than half,0.384259259,-0.052777778,1,0,0,QQQ2,,,,,,,,English,2020-07-02_03h00.57.165,Experiment_English,3.2.4,Win32,60,,,1,0,340,257,1,339,ratio34_6_14_12.png,,,,,,,,,,,,
,,,,,,,,,,,,None,All,More than half,Half,Many,Few,Most,Some,Less than half,-0.476851852,-0.063888889,1,0,0,QQQ8,,,,,,,,English,2020-07-02_03h00.57.165,Experiment_English,3.2.4,Win32,60,,,1,0,340,38,1,339,ratio11_10_20_5.png,0.340740741,-0.415740741,1,0,0,continue_button_pause,1,0,1,0,1,0
,,,,,,,,,,,,,,,,,,,,,,,,,,,,,,,,,,English,2020-07-02_03h00.57.165,Experiment_English,3.2.4,Win32,60,,,1,0,340,38,1,339,ratio11_10_20_5.png,,,,,,,,,,,,
,,,,,,,,,,,,Some,Many,Less than half,Few,Most,None,All,Half,More than half,0.091666667,0.264814815,1,0,0,QQQ4,,,,,,,,English,2020-07-02_03h00.57.165,Experiment_English,3.2.4,Win32,60,,,1,0,340,5,1,339,ratio12_2_6_9.png,,,,,,,,,,,,
,,,,,,,,,,,,None,Most,All,Many,Less than half,More than half,Half,Few,Some,-0.45,-0.035185185,1,0,0,QQQ8,,,,,,,,English,2020-07-02_03h00.57.165,Experiment_English,3.2.4,Win32,60,,,1,0,340,7,1,339,ratio12_3_9_2.png,,,,,,,,,,,,
,,,,,,,,,,,,All,Less than half,Most,Many,More than half,Some,None,Few,Half,0.533333333,-0.321296296,1,0,0,QQQ3,,,,,,,,English,2020-07-02_03h00.57.165,Experiment_English,3.2.4,Win32,60,,,1,0,340,260,1,339,ratio41_4_5_2.png,,,,,,,,,,,,
,,,,,,,,,,,,Most,Few,More than half,All,Some,None,Many,Half,Less than half,0.50462963,-0.069444444,1,0,0,QQQ2,,,,,,,,English,2020-07-02_03h00.57.165,Experiment_English,3.2.4,Win32,60,,,1,0,340,103,1,339,ratio14_1_5_9.png,,,,,,,,,,,,
,,,,,,,,,,,,None,More than half,Some,Half,Less than half,All,Many,Few,Most,-0.432407407,-0.347222222,1,0,0,QQQ9,,,,,,,,English,2020-07-02_03h00.57.165,Experiment_English,3.2.4,Win32,60,,,1,0,340,300,1,339,ratio51_5_6_1.png,,,,,,,,,,,,
,,,,,,,,,,,,Some,Half,Most,Few,Less than half,All,More than half,Many,None,-0.432407407,-0.347222222,1,0,0,QQQ9,,,,,,,,English,2020-07-02_03h00.57.165,Experiment_English,3.2.4,Win32,60,,,1,0,340,317,1,339,ratio51_15_18_13.png,,,,,,,,,,,,
,,,,,,,,,,,,None,Less than half,Many,More than half,Half,Most,Few,All,Some,0.128703704,-0.283333333,1,0,0,QQQ6,,,,,,,,English,2020-07-02_03h00.57.165,Experiment_English,3.2.4,Win32,60,,,1,0,340,239,1,339,ratio32_12_20_10.png,,,,,,,,,,,,
,,,,,,,,,,,,None,Most,Some,All,Less than half,Many,Few,More than half,Half,-0.503703704,0.310185185,1,0,0,QQQ7,,,,,,,,English,2020-07-02_03h00.57.165,Experiment_English,3.2.4,Win32,60,,,1,0,340,126,1,339,ratio15_2_12_1.png,,,,,,,,,,,,
,,,,,,,,,,,,Less than half,None,Some,Many,More than half,All,Most,Few,Half,-0.341666667,-0.074074074,1,0,0,QQQ8,,,,,,,,English,2020-07-02_03h00.57.165,Experiment_English,3.2.4,Win32,60,,,1,0,340,18,1,339,ratio12_6_18_7.png,,,,,,,,,,,,
,,,,,,,,,,,,More than half,Many,Few,Less than half,None,Most,Half,Some,All,-0.582407407,0.061111111,1,0,0,QQQ8,,,,,,,,English,2020-07-02_03h00.57.165,Experiment_English,3.2.4,Win32,60,,,1,0,340,198,1,339,ratio23_8_20_7.png,,,,,,,,,,,,
,,,,,,,,,,,,Many,More than half,Most,Less than half,None,All,Few,Half,Some,-0.376851852,-0.309259259,1,0,0,QQQ9,,,,,,,,English,2020-07-02_03h00.57.165,Experiment_English,3.2.4,Win32,60,,,1,0,340,194,1,339,ratio23_6_15_10.png,,,,,,,,,,,,
,,,,,,,,,,,,Some,Few,More than half,Less than half,None,Half,All,Most,Many,0.485185185,-0.011111111,1,0,0,QQQ2,,,,,,,,English,2020-07-02_03h00.57.165,Experiment_English,3.2.4,Win32,60,,,1,0,340,189,1,339,ratio23_4_10_8.png,,,,,,,,,,,,
,,,,,,,,,,,,Many,Half,More than half,Less than half,None,Some,Most,All,Few,-0.050925926,0.011111111,1,0,0,QQQ5,,,,,,,,English,2020-07-02_03h00.57.165,Experiment_English,3.2.4,Win32,60,,,1,0,340,64,1,339,ratio0Y_0_7_1.png,,,,,,,,,,,,
,,,,,,,,,,,,All,Half,Many,Most,Few,More than half,None,Less than half,Some,0.048148148,0.308333333,1,0,0,QQQ4,,,,,,,,English,2020-07-02_03h00.57.165,Experiment_English,3.2.4,Win32,60,,,1,0,340,330,1,339,ratio91_18_20_2.png,,,,,,,,,,,,
,,,,,,,,,,,,Less than half,Many,Half,Most,All,None,Few,More than half,Some,0.403703704,-0.276851852,1,0,0,QQQ3,,,,,,,,English,2020-07-02_03h00.57.165,Experiment_English,3.2.4,Win32,60,,,1,0,340,290,1,339,ratio43_8_14_3.png,,,,,,,,,,,,
,,,,,,,,,,,,Some,More than half,Most,Less than half,Half,None,Few,Many,All,0.475925926,-0.309259259,1,0,0,QQQ3,,,,,,,,English,2020-07-02_03h00.57.165,Experiment_English,3.2.4,Win32,60,,,1,0,340,207,1,339,ratio31_6_8_9.png,,,,,,,,,,,,
,,,,,,,,,,,,Few,Many,Some,Most,Half,More than half,None,All,Less than half,0.050925926,0.302777778,1,0,0,QQQ4,,,,,,,,English,2020-07-02_03h00.57.165,Experiment_English,3.2.4,Win32,60,,,1,0,340,265,1,339,ratio41_8_10_1.png,,,,,,,,,,,,
,,,,,,,,,,,,None,All,Some,Less than half,Most,Few,Half,Many,More than half,-0.102777778,-0.300925926,1,0,0,QQQ6,,,,,,,,English,2020-07-02_03h00.57.165,Experiment_English,3.2.4,Win32,60,,,1,0,340,143,1,339,ratio19_1_10_9.png,,,,,,,,,,,,
,,,,,,,,,,,,Some,None,Few,Half,All,More than half,Less than half,Many,Most,-0.456481481,-0.318518519,1,0,0,QQQ9,,,,,,,,English,2020-07-02_03h00.57.165,Experiment_English,3.2.4,Win32,60,,,1,0,340,333,1,339,ratio91_18_20_6.png,,,,,,,,,,,,
,,,,,,,,,,,,Less than half,All,Some,Few,None,Many,More than half,Half,Most,-0.439814815,-0.236111111,1,0,0,QQQ9,,,,,,,,English,2020-07-02_03h00.57.165,Experiment_English,3.2.4,Win32,60,,,1,0,340,165,1,339,ratio21_4_6_10.png,,,,,,,,,,,,
,,,,,,,,,,,,None,Most,Half,All,More than half,Some,Less than half,Many,Few,-0.373148148,-0.062037037,1,0,0,QQQ8,,,,,,,,English,2020-07-02_03h00.57.165,Experiment_English,3.2.4,Win32,60,,,1,0,340,242,1,339,ratio34_3_7_6.png,,,,,,,,,,,,
,,,,,,,,,,,,Some,More than half,Most,Half,Many,Few,All,Less than half,None,0.452777778,-0.277777778,1,0,0,QQQ3,,,,,,,,English,2020-07-02_03h00.57.165,Experiment_English,3.2.4,Win32,60,,,1,0,340,314,1,339,ratio51_15_18_4.png,,,,,,,,,,,,
,,,,,,,,,,,,Some,All,Half,More than half,Most,Less than half,None,Many,Few,-0.537962963,-0.274074074,1,0,0,QQQ9,,,,,,,,English,2020-07-02_03h00.57.165,Experiment_English,3.2.4,Win32,60,,,1,0,340,139,1,339,ratio15_3_18_20.png,,,,,,,,,,,,
,,,,,,,,,,,,More than half,Many,Half,Few,None,All,Some,Most,Less than half,0.001851852,0.246296296,1,0,0,QQQ4,,,,,,,,English,2020-07-02_03h00.57.165,Experiment_English,3.2.4,Win32,60,,,1,0,340,184,1,339,ratio23_2_5_10.png,,,,,,,,,,,,
,,,,,,,,,,,,More than half,All,Few,Most,Many,None,Half,Some,Less than half,0.062037037,0.218518519,1,0,0,QQQ4,,,,,,,,English,2020-07-02_03h00.57.165,Experiment_English,3.2.4,Win32,60,,,1,0,340,215,1,339,ratio31_12_16_8.png,,,,,,,,,,,,
,,,,,,,,,,,,More than half,Some,Most,Few,Less than half,Half,None,All,Many,0.55,-0.282407407,1,0,0,QQQ3,,,,,,,,English,2020-07-02_03h00.57.165,Experiment_English,3.2.4,Win32,60,,,1,0,340,310,1,339,ratio51_10_12_12.png,,,,,,,,,,,,
,,,,,,,,,,,,Some,Many,None,All,More than half,Most,Few,Less than half,Half,-0.019444444,-0.287037037,1,0,0,QQQ6,,,,,,,,English,2020-07-02_03h00.57.165,Experiment_English,3.2.4,Win32,60,,,1,0,340,279,1,339,ratio41_16_20_10.png,,,,,,,,,,,,
,,,,,,,,,,,,Less than half,All,More than half,None,Half,Many,Most,Few,Some,-0.447222222,0.07037037,1,0,0,QQQ8,,,,,,,,English,2020-07-02_03h00.57.165,Experiment_English,3.2.4,Win32,60,,,1,0,340,127,1,339,ratio15_2_12_2.png,,,,,,,,,,,,
,,,,,,,,,,,,Half,Few,Some,More than half,Many,Most,Less than half,All,None,0.021296296,-0.311111111,1,0,0,QQQ6,,,,,,,,English,2020-07-02_03h00.57.165,Experiment_English,3.2.4,Win32,60,,,1,0,340,177,1,339,ratio21_12_18_1.png,,,,,,,,,,,,
,,,,,,,,,,,,Few,Many,None,Half,Less than half,Some,More than half,Most,All,-0.480555556,0.006481481,1,0,0,QQQ8,,,,,,,,English,2020-07-02_03h00.57.165,Experiment_English,3.2.4,Win32,60,,,1,0,340,318,1,339,ratio51_15_18_18.png,,,,,,,,,,,,
,,,,,,,,,,,,All,Many,More than half,Some,Most,Less than half,Half,None,Few,0.110185185,-0.048148148,1,0,0,QQQ5,,,,,,,,English,2020-07-02_03h00.57.165,Experiment_English,3.2.4,Win32,60,,,1,0,340,338,1,339,ratio91_18_20_18.png,,,,,,,,,,,,
,,,,,,,,,,,,All,None,Few,Most,Many,Half,Some,Less than half,More than half,0.426851852,0.240740741,1,0,0,QQQ1,,,,,,,,English,2020-07-02_03h00.57.165,Experiment_English,3.2.4,Win32,60,,,1,0,340,50,1,339,ratioX0_12_12_3.png,,,,,,,,,,,,
,,,,,,,,,,,,All,Some,Most,None,Few,Less than half,More than half,Many,Half,0.559259259,-0.288888889,1,0,0,QQQ3,,,,,,,,English,2020-07-02_03h00.57.165,Experiment_English,3.2.4,Win32,60,,,1,0,340,235,1,339,ratio32_12_20_1.png,,,,,,,,,,,,
,,,,,,,,,,,,All,Some,Few,More than half,Many,Less than half,Most,Half,None,-0.014814815,-0.376851852,1,0,0,QQQ6,,,,,,,,English,2020-07-02_03h00.57.165,Experiment_English,3.2.4,Win32,60,,,1,0,340,298,1,339,ratio43_8_14_14.png,0.375,-0.394444444,1,0,0,continue_button_pause,1,0,1,0,1,0
,,,,,,,,,,,,,,,,,,,,,,,,,,,,,,,,,,English,2020-07-02_03h00.57.165,Experiment_English,3.2.4,Win32,60,,,1,0,340,298,1,339,ratio43_8_14_14.png,,,,,,,,,,,,
,,,,,,,,,,,,Few,Most,All,Many,Half,Less than half,Some,None,More than half,0.44537037,0.35462963,1,0,0,QQQ1,,,,,,,,English,2020-07-02_03h00.57.165,Experiment_English,3.2.4,Win32,60,,,1,0,340,11,1,339,ratio12_4_12_7.png,,,,,,,,,,,,
,,,,,,,,,,,,Half,Less than half,All,Most,None,Some,Many,More than half,Few,-0.47962963,-0.262037037,1,0,0,QQQ9,,,,,,,,English,2020-07-02_03h00.57.165,Experiment_English,3.2.4,Win32,60,,,1,0,340,180,1,339,ratio23_2_5_4.png,,,,,,,,,,,,
,,,,,,,,,,,,Some,More than half,Less than half,Few,Half,Many,All,Most,None,-0.47962963,0.012037037,1,0,0,QQQ8,,,,,,,,English,2020-07-02_03h00.57.165,Experiment_English,3.2.4,Win32,60,,,1,0,340,271,1,339,ratio41_12_15_6.png,,,,,,,,,,,,
,,,,,,,,,,,,Less than half,All,More than half,Half,None,Few,Some,Most,Many,0.122222222,-0.321296296,1,0,0,QQQ6,,,,,,,,English,2020-07-02_03h00.57.165,Experiment_English,3.2.4,Win32,60,,,1,0,340,158,1,339,ratio19_2_20_17.png,,,,,,,,,,,,
,,,,,,,,,,,,Half,None,More than half,Less than half,All,Many,Some,Few,Most,-0.427777778,-0.018518519,1,0,0,QQQ8,,,,,,,,English,2020-07-02_03h00.57.165,Experiment_English,3.2.4,Win32,60,,,1,0,340,88,1,339,ratio13_3_12_5.png,,,,,,,,,,,,
,,,,,,,,,,,,Most,Less than half,None,Many,Some,Few,All,More than half,Half,-0.431481481,0.242592593,1,0,0,QQQ7,,,,,,,,English,2020-07-02_03h00.57.165,Experiment_English,3.2.4,Win32,60,,,1,0,340,56,1,339,ratioX0_17_17_10.png,,,,,,,,,,,,
,,,,,,,,,,,,All,Less than half,Many,Few,Half,None,Most,Some,More than half,-0.431481481,0.242592593,1,0,0,QQQ7,,,,,,,,English,2020-07-02_03h00.57.165,Experiment_English,3.2.4,Win32,60,,,1,0,340,264,1,339,ratio41_4_5_6.png,,,,,,,,,,,,
,,,,,,,,,,,,Some,Many,Most,Few,All,None,More than half,Half,Less than half,0.480555556,-0.332407407,1,0,0,QQQ3,,,,,,,,English,2020-07-02_03h00.57.165,Experiment_English,3.2.4,Win32,60,,,1,0,340,220,1,339,ratio32_3_5_1.png,,,,,,,,,,,,
,,,,,,,,,,,,Less than half,Some,All,Most,More than half,None,Many,Half,Few,0.412037037,0.24537037,1,0,0,QQQ1,,,,,,,,English,2020-07-02_03h00.57.165,Experiment_English,3.2.4,Win32,60,,,1,0,340,183,1,339,ratio23_2_5_9.png,,,,,,,,,,,,
,,,,,,,,,,,,Many,Half,All,Most,Some,Few,None,Less than half,More than half,0.133333333,-0.281481481,1,0,0,QQQ6,,,,,,,,English,2020-07-02_03h00.57.165,Experiment_English,3.2.4,Win32,60,,,1,0,340,157,1,339,ratio19_2_20_16.png,,,,,,,,,,,,
,,,,,,,,,,,,None,Most,All,Many,Half,Less than half,More than half,Some,Few,0.518518519,-0.269444444,1,0,0,QQQ3,,,,,,,,English,2020-07-02_03h00.57.165,Experiment_English,3.2.4,Win32,60,,,1,0,340,46,1,339,ratioX0_9_9_3.png,,,,,,,,,,,,
,,,,,,,,,,,,Some,None,Few,Most,Less than half,Half,More than half,Many,All,0.097222222,0.032407407,1,0,0,QQQ5,,,,,,,,English,2020-07-02_03h00.57.165,Experiment_English,3.2.4,Win32,60,,,1,0,340,192,1,339,ratio23_6_15_8.png,,,,,,,,,,,,
,,,,,,,,,,,,All,Most,More than half,None,Many,Less than half,Half,Few,Some,0.603703704,0.002777778,1,0,0,QQQ2,,,,,,,,English,2020-07-02_03h00.57.165,Experiment_English,3.2.4,Win32,60,,,1,0,340,332,1,339,ratio91_18_20_4.png,,,,,,,,,,,,
,,,,,,,,,,,,Many,All,Half,Most,None,Less than half,More than half,Some,Few,-0.461111111,0.04537037,1,0,0,QQQ8,,,,,,,,English,2020-07-02_03h00.57.165,Experiment_English,3.2.4,Win32,60,,,1,0,340,186,1,339,ratio23_4_10_2.png,,,,,,,,,,,,
,,,,,,,,,,,,None,Few,Half,Some,Many,All,More than half,Less than half,Most,-0.537037037,-0.225925926,1,0,0,QQQ9,,,,,,,,English,2020-07-02_03h00.57.165,Experiment_English,3.2.4,Win32,60,,,1,0,340,275,1,339,ratio41_16_20_2.png,,,,,,,,,,,,
,,,,,,,,,,,,Less than half,All,None,Many,More than half,Half,Few,Most,Some,-0.403703704,-0.02962963,1,0,0,QQQ8,,,,,,,,English,2020-07-02_03h00.57.165,Experiment_English,3.2.4,Win32,60,,,1,0,340,234,1,339,ratio32_9_15_10.png,,,,,,,,,,,,
,,,,,,,,,,,,Few,Many,Some,Half,All,Most,Less than half,None,More than half,0.532407407,-0.057407407,1,0,0,QQQ2,,,,,,,,English,2020-07-02_03h00.57.165,Experiment_English,3.2.4,Win32,60,,,1,0,340,258,1,339,ratio34_6_14_14.png,,,,,,,,,,,,
,,,,,,,,,,,,Half,Most,Few,Many,Some,More than half,All,None,Less than half,0.52962963,-0.35462963,1,0,0,QQQ3,,,,,,,,English,2020-07-02_03h00.57.165,Experiment_English,3.2.4,Win32,60,,,1,0,340,110,1,339,ratio14_3_15_2.png,,,,,,,,,,,,
,,,,,,,,,,,,More than half,None,Some,Few,Less than half,All,Most,Half,Many,-0.031481481,-0.237962963,1,0,0,QQQ6,,,,,,,,English,2020-07-02_03h00.57.165,Experiment_English,3.2.4,Win32,60,,,1,0,340,51,1,339,ratioX0_12_12_9.png,,,,,,,,,,,,
,,,,,,,,,,,,Half,Most,More than half,Some,None,Many,Few,All,Less than half,-0.487037037,0.013888889,1,0,0,QQQ8,,,,,,,,English,2020-07-02_03h00.57.165,Experiment_English,3.2.4,Win32,60,,,1,0,340,47,1,339,ratioX0_9_9_4.png,,,,,,,,,,,,
,,,,,,,,,,,,Half,Most,Some,All,Few,More than half,None,Many,Less than half,0.074074074,-0.047222222,1,0,0,QQQ5,,,,,,,,English,2020-07-02_03h00.57.165,Experiment_English,3.2.4,Win32,60,,,1,0,340,148,1,339,ratio19_1_10_19.png,,,,,,,,,,,,
,,,,,,,,,,,,Most,Some,Half,All,Less than half,None,Few,Many,More than half,0.57037037,0.251851852,1,0,0,QQQ1,,,,,,,,English,2020-07-02_03h00.57.165,Experiment_English,3.2.4,Win32,60,,,1,0,340,174,1,339,ratio21_10_15_1.png,,,,,,,,,,,,
,,,,,,,,,,,,Many,Less than half,Most,All,Some,None,More than half,Few,Half,0.485185185,-0.237962963,1,0,0,QQQ3,,,,,,,,English,2020-07-02_03h00.57.165,Experiment_English,3.2.4,Win32,60,,,1,0,340,161,1,339,ratio21_2_3_8.png,,,,,,,,,,,,
,,,,,,,,,,,,Some,Few,Less than half,Many,None,All,Half,Most,More than half,0.503703704,0.007407407,1,0,0,QQQ2,,,,,,,,English,2020-07-02_03h00.57.165,Experiment_English,3.2.4,Win32,60,,,1,0,340,131,1,339,ratio15_2_12_14.png,,,,,,,,,,,,
,,,,,,,,,,,,Few,Many,More than half,Most,None,Half,Less than half,All,Some,0.013888889,0.386111111,1,0,0,QQQ4,,,,,,,,English,2020-07-02_03h00.57.165,Experiment_English,3.2.4,Win32,60,,,1,0,340,302,1,339,ratio51_5_6_5.png,,,,,,,,,,,,
,,,,,,,,,,,,Less than half,More than half,Many,Half,Most,None,Few,All,Some,-0.462037037,0.038888889,1,0,0,QQQ8,,,,,,,,English,2020-07-02_03h00.57.165,Experiment_English,3.2.4,Win32,60,,,1,0,340,41,1,339,ratioX0_4_4_9.png,,,,,,,,,,,,
,,,,,,,,,,,,Most,Few,Some,None,More than half,All,Many,Less than half,Half,0.569444444,-0.277777778,1,0,0,QQQ3,,,,,,,,English,2020-07-02_03h00.57.165,Experiment_English,3.2.4,Win32,60,,,1,0,340,101,1,339,ratio14_1_5_7.png,,,,,,,,,,,,
,,,,,,,,,,,,None,Less than half,Many,Most,More than half,Some,All,Half,Few,0.089814815,-0.321296296,1,0,0,QQQ6,,,,,,,,English,2020-07-02_03h00.57.165,Experiment_English,3.2.4,Win32,60,,,1,0,340,169,1,339,ratio21_6_9_7.png,,,,,,,,,,,,
,,,,,,,,,,,,More than half,Few,Many,Less than half,Some,None,All,Half,Most,-0.424074074,-0.267592593,1,0,0,QQQ9,,,,,,,,English,2020-07-02_03h00.57.165,Experiment_English,3.2.4,Win32,60,,,1,0,340,232,1,339,ratio32_9_15_8.png,,,,,,,,,,,,
,,,,,,,,,,,,Half,Many,Few,None,Some,Most,Less than half,All,More than half,0.111111111,-0.062037037,1,0,0,QQQ5,,,,,,,,English,2020-07-02_03h00.57.165,Experiment_English,3.2.4,Win32,60,,,1,0,340,90,1,339,ratio13_3_12_7.png,,,,,,,,,,,,
,,,,,,,,,,,,More than half,None,Most,Half,Some,Few,All,Less than half,Many,0.485185185,-0.352777778,1,0,0,QQQ3,,,,,,,,English,2020-07-02_03h00.57.165,Experiment_English,3.2.4,Win32,60,,,1,0,340,319,1,339,ratio51_15_18_20.png,,,,,,,,,,,,
,,,,,,,,,,,,Some,Few,Most,More than half,Many,Less than half,None,Half,All,0.438888889,0.226851852,1,0,0,QQQ1,,,,,,,,English,2020-07-02_03h00.57.165,Experiment_English,3.2.4,Win32,60,,,1,0,340,138,1,339,ratio15_3_18_17.png,,,,,,,,,,,,
,,,,,,,,,,,,Many,None,Half,Less than half,More than half,Few,Most,Some,All,-0.433333333,0.265740741,1,0,0,QQQ7,,,,,,,,English,2020-07-02_03h00.57.165,Experiment_English,3.2.4,Win32,60,,,1,0,340,304,1,339,ratio51_5_6_13.png,,,,,,,,,,,,
,,,,,,,,,,,,Many,More than half,All,Half,Less than half,None,Most,Few,Some,-0.433333333,0.265740741,1,0,0,QQQ7,,,,,,,,English,2020-07-02_03h00.57.165,Experiment_English,3.2.4,Win32,60,,,1,0,340,296,1,339,ratio43_8_14_12.png,0.424074074,-0.350925926,1,0,0,continue_button_pause,1,0,1,0,1,0
,,,,,,,,,,,,,,,,,,,,,,,,,,,,,,,,,,English,2020-07-02_03h00.57.165,Experiment_English,3.2.4,Win32,60,,,1,0,340,296,1,339,ratio43_8_14_12.png,,,,,,,,,,,,
,,,,,,,,,,,,All,None,Half,Most,Few,Many,Less than half,More than half,Some,-0.012037037,0.003703704,1,0,0,QQQ5,,,,,,,,English,2020-07-02_03h00.57.165,Experiment_English,3.2.4,Win32,60,,,1,0,340,145,1,339,ratio19_1_10_15.png,,,,,,,,,,,,
,,,,,,,,,,,,All,More than half,Many,Half,Less than half,Most,Some,Few,None,-0.443518519,0.019444444,1,0,0,QQQ8,,,,,,,,English,2020-07-02_03h00.57.165,Experiment_English,3.2.4,Win32,60,,,1,0,340,95,1,339,ratio13_4_16_10.png,,,,,,,,,,,,
,,,,,,,,,,,,Many,Most,Less than half,All,Some,Few,More than half,Half,None,0.101851852,0.223148148,1,0,0,QQQ4,,,,,,,,English,2020-07-02_03h00.57.165,Experiment_English,3.2.4,Win32,60,,,1,0,340,55,1,339,ratioX0_16_16_3.png,,,,,,,,,,,,
,,,,,,,,,,,,Many,Most,Some,Half,All,None,Less than half,Few,More than half,0.512962963,-0.386111111,1,0,0,QQQ3,,,,,,,,English,2020-07-02_03h00.57.165,Experiment_English,3.2.4,Win32,60,,,1,0,340,29,1,339,ratio11_6_12_1.png,,,,,,,,,,,,
,,,,,,,,,,,,Few,Many,Most,Less than half,All,Some,None,More than half,Half,0.050925926,-0.225925926,1,0,0,QQQ6,,,,,,,,English,2020-07-02_03h00.57.165,Experiment_English,3.2.4,Win32,60,,,1,0,340,116,1,339,ratio14_4_20_3.png,,,,,,,,,,,,
,,,,,,,,,,,,Half,All,Many,Some,None,More than half,Few,Less than half,Most,0.37962963,0.018518519,1,0,0,QQQ2,,,,,,,,English,2020-07-02_03h00.57.165,Experiment_English,3.2.4,Win32,60,,,1,0,340,53,1,339,ratioX0_14_14_8.png,,,,,,,,,,,,
,,,,,,,,,,,,More than half,All,Few,Some,Half,None,Many,Less than half,Most,-0.393518519,-0.026851852,1,0,0,QQQ8,,,,,,,,English,2020-07-02_03h00.57.165,Experiment_English,3.2.4,Win32,60,,,1,0,340,250,1,339,ratio34_6_14_1.png,,,,,,,,,,,,
,,,,,,,,,,,,Few,Many,None,Most,More than half,Less than half,Some,All,Half,0.084259259,0.287037037,1,0,0,QQQ4,,,,,,,,English,2020-07-02_03h00.57.165,Experiment_English,3.2.4,Win32,60,,,1,0,340,204,1,339,ratio31_6_8_1.png,,,,,,,,,,,,
,,,,,,,,,,,,Some,Less than half,More than half,None,Half,Few,Most,Many,All,-0.080555556,0.332407407,1,0,0,QQQ4,,,,,,,,English,2020-07-02_03h00.57.165,Experiment_English,3.2.4,Win32,60,,,1,0,340,79,1,339,ratio0Y_0_20_4.png,,,,,,,,,,,,
,,,,,,,,,,,,Some,None,Many,Few,Half,More than half,Less than half,Most,All,0.559259259,0.281481481,1,0,0,QQQ1,,,,,,,,English,2020-07-02_03h00.57.165,Experiment_English,3.2.4,Win32,60,,,1,0,340,10,1,339,ratio12_4_12_4.png,,,,,,,,,,,,
,,,,,,,,,,,,Few,Many,Some,Most,None,All,Less than half,Half,More than half,-0.02962963,0.203703704,1,0,0,QQQ4,,,,,,,,English,2020-07-02_03h00.57.165,Experiment_English,3.2.4,Win32,60,,,1,0,340,316,1,339,ratio51_15_18_11.png,,,,,,,,,,,,
,,,,,,,,,,,,Less than half,Many,Most,Some,All,None,Few,More than half,Half,0.018518519,-0.274074074,1,0,0,QQQ6,,,,,,,,English,2020-07-02_03h00.57.165,Experiment_English,3.2.4,Win32,60,,,1,0,340,73,1,339,ratio0Y_0_14_7.png,,,,,,,,,,,,
,,,,,,,,,,,,Some,More than half,None,Less than half,Most,All,Half,Many,Few,-0.421296296,-0.282407407,1,0,0,QQQ9,,,,,,,,English,2020-07-02_03h00.57.165,Experiment_English,3.2.4,Win32,60,,,1,0,340,16,1,339,ratio12_5_15_6.png,,,,,,,,,,,,
,,,,,,,,,,,,All,Half,None,Some,Many,Less than half,Most,More than half,Few,-0.522222222,-0.24537037,1,0,0,QQQ9,,,,,,,,English,2020-07-02_03h00.57.165,Experiment_English,3.2.4,Win32,60,,,1,0,340,140,1,339,ratio19_1_10_1.png,,,,,,,,,,,,
,,,,,,,,,,,,None,Most,All,Few,Half,More than half,Some,Less than half,Many,0.603703704,-0.081481481,1,0,0,QQQ2,,,,,,,,English,2020-07-02_03h00.57.165,Experiment_English,3.2.4,Win32,60,,,1,0,340,54,1,339,ratioX0_15_15_5.png,,,,,,,,,,,,
,,,,,,,,,,,,Some,More than half,Most,Less than half,All,None,Many,Few,Half,0.412962963,0.22037037,1,0,0,QQQ1,,,,,,,,English,2020-07-02_03h00.57.165,Experiment_English,3.2.4,Win32,60,,,1,0,340,226,1,339,ratio32_6_10_5.png,,,,,,,,,,,,
,,,,,,,,,,,,Few,Less than half,Many,Most,Some,None,More than half,Half,All,0.406481481,-0.039814815,1,0,0,QQQ2,,,,,,,,English,2020-07-02_03h00.57.165,Experiment_English,3.2.4,Win32,60,,,1,0,340,187,1,339,ratio23_4_10_5.png,,,,,,,,,,,,
,,,,,,,,,,,,None,Half,Few,Less than half,Most,Some,All,More than half,Many,0.528703704,-0.282407407,1,0,0,QQQ3,,,,,,,,English,2020-07-02_03h00.57.165,Experiment_English,3.2.4,Win32,60,,,1,0,340,107,1,339,ratio14_2_10_5.png,,,,,,,,,,,,
,,,,,,,,,,,,None,All,Less than half,Few,Half,Most,Many,Some,More than half,0.103703704,-0.30462963,1,0,0,QQQ6,,,,,,,,English,2020-07-02_03h00.57.165,Experiment_English,3.2.4,Win32,60,,,1,0,340,329,1,339,ratio91_9_10_20.png,,,,,,,,,,,,
,,,,,,,,,,,,Most,None,Many,Half,More than half,Less than half,All,Few,Some,0.507407407,0.22962963,1,0,0,QQQ1,,,,,,,,English,2020-07-02_03h00.57.165,Experiment_English,3.2.4,Win32,60,,,1,0,340,218,1,339,ratio31_15_20_7.png,,,,,,,,,,,,
,,,,,,,,,,,,Many,Less than half,More than half,Some,Half,All,Few,None,Most,-0.423148148,-0.218518519,1,0,0,QQQ9,,,,,,,,English,2020-07-02_03h00.57.165,Experiment_English,3.2.4,Win32,60,,,1,0,340,216,1,339,ratio31_15_20_3.png,,,,,,,,,,,,
,,,,,,,,,,,,Few,Many,Less than half,Half,None,All,More than half,Most,Some,0.603703704,0.251851852,1,0,0,QQQ1,,,,,,,,English,2020-07-02_03h00.57.165,Experiment_English,3.2.4,Win32,60,,,1,0,340,144,1,339,ratio19_1_10_11.png,,,,,,,,,,,,
,,,,,,,,,,,,Some,Less than half,None,More than half,Many,Half,Most,Few,All,0.588888889,-0.033333333,1,0,0,QQQ2,,,,,,,,English,2020-07-02_03h00.57.165,Experiment_English,3.2.4,Win32,60,,,1,0,340,0,1,339,ratio12_1_3_3.png,,,,,,,,,,,,
,,,,,,,,,,,,Many,More than half,Few,Less than half,None,Some,All,Most,Half,-0.484259259,0.052777778,1,0,0,QQQ8,,,,,,,,English,2020-07-02_03h00.57.165,Experiment_English,3.2.4,Win32,60,,,1,0,340,206,1,339,ratio31_6_8_6.png,,,,,,,,,,,,
,,,,,,,,,,,,Less than half,All,Half,Some,Many,Most,None,Few,More than half,0.151851852,-0.287962963,1,0,0,QQQ6,,,,,,,,English,2020-07-02_03h00.57.165,Experiment_English,3.2.4,Win32,60,,,1,0,340,167,1,339,ratio21_6_9_2.png,,,,,,,,,,,,
,,,,,,,,,,,,None,All,Many,Few,Some,More than half,Half,Most,Less than half,0.139814815,-0.053703704,1,0,0,QQQ5,,,,,,,,English,2020-07-02_03h00.57.165,Experiment_English,3.2.4,Win32,60,,,1,0,340,191,1,339,ratio23_6_15_7.png,,,,,,,,,,,,
,,,,,,,,,,,,All,More than half,Many,Most,None,Few,Some,Half,Less than half,0.082407407,-0.284259259,1,0,0,QQQ6,,,,,,,,English,2020-07-02_03h00.57.165,Experiment_English,3.2.4,Win32,60,,,1,0,340,181,1,339,ratio23_2_5_6.png,,,,,,,,,,,,
,,,,,,,,,,,,All,None,Less than half,More than half,Most,Few,Half,Some,Many,-0.149074074,-0.203703704,1,0,0,QQQ6,,,,,,,,English,2020-07-02_03h00.57.165,Experiment_English,3.2.4,Win32,60,,,1,0,340,112,1,339,ratio14_3_15_4.png,,,,,,,,,,,,
,,,,,,,,,,,,Half,Few,Many,More than half,Less than half,Some,All,Most,None,-0.458333333,-0.064814815,1,0,0,QQQ8,,,,,,,,English,2020-07-02_03h00.57.165,Experiment_English,3.2.4,Win32,60,,,1,0,340,263,1,339,ratio41_4_5_5.png,,,,,,,,,,,,
,,,,,,,,,,,,Few,All,Most,More than half,Some,Less than half,Many,None,Half,0.060185185,-0.082407407,1,0,0,QQQ5,,,,,,,,English,2020-07-02_03h00.57.165,Experiment_English,3.2.4,Win32,60,,,1,0,340,89,1,339,ratio13_3_12_6.png,,,,,,,,,,,,
,,,,,,,,,,,,All,Many,More than half,Most,Some,Less than half,None,Half,Few,-0.105555556,0.285185185,1,0,0,QQQ4,,,,,,,,English,2020-07-02_03h00.57.165,Experiment_English,3.2.4,Win32,60,,,1,0,340,256,1,339,ratio34_6_14_11.png,,,,,,,,,,,,
,,,,,,,,,,,,Most,None,Half,Less than half,Some,All,Few,Many,More than half,-0.106481481,0.048148148,1,0,0,QQQ5,,,,,,,,English,2020-07-02_03h00.57.165,Experiment_English,3.2.4,Win32,60,,,1,0,340,185,1,339,ratio23_4_10_1.png,,,,,,,,,,,,
,,,,,,,,,,,,Less than half,Most,All,Few,None,Half,More than half,Some,Many,0.577777778,-0.083333333,1,0,0,QQQ2,,,,,,,,English,2020-07-02_03h00.57.165,Experiment_English,3.2.4,Win32,60,,,1,0,340,212,1,339,ratio31_12_16_1.png,,,,,,,,,,,,
,,,,,,,,,,,,All,Less than half,Some,Many,Half,Few,Most,None,More than half,-0.498148148,0.339814815,1,0,0,QQQ7,,,,,,,,English,2020-07-02_03h00.57.165,Experiment_English,3.2.4,Win32,60,,,1,0,340,328,1,339,ratio91_9_10_15.png,0.358333333,-0.359259259,1,0,0,continue_button_pause,1,0,1,0,1,0
,,,,,,,,,,,,,,,,,,,,,,,,,,,,,,,,,,English,2020-07-02_03h00.57.165,Experiment_English,3.2.4,Win32,60,,,1,0,340,328,1,339,ratio91_9_10_15.png,,,,,,,,,,,,
,,,,,,,,,,,,All,More than half,None,Less than half,Half,Few,Many,Most,Some,-0.081481481,-0.286111111,1,0,0,QQQ6,,,,,,,,English,2020-07-02_03h00.57.165,Experiment_English,3.2.4,Win32,60,,,1,0,340,115,1,339,ratio14_4_20_1.png,,,,,,,,,,,,
,,,,,,,,,,,,Some,Most,More than half,Less than half,Many,None,Half,Few,All,-0.615740741,-0.018518519,1,0,0,QQQ8,,,,,,,,English,2020-07-02_03h00.57.165,Experiment_English,3.2.4,Win32,60,,,1,0,340,99,1,339,ratio13_5_20_4.png,,,,,,,,,,,,
,,,,,,,,,,,,Few,Most,None,More than half,Some,All,Many,Less than half,Half,0.596296296,-0.047222222,1,0,0,QQQ2,,,,,,,,English,2020-07-02_03h00.57.165,Experiment_English,3.2.4,Win32,60,,,1,0,340,224,1,339,ratio32_3_5_10.png,,,,,,,,,,,,
,,,,,,,,,,,,Most,Some,More than half,Half,Less than half,None,All,Many,Few,-0.484259259,-0.275,1,0,0,QQQ9,,,,,,,,English,2020-07-02_03h00.57.165,Experiment_English,3.2.4,Win32,60,,,1,0,340,132,1,339,ratio15_2_12_16.png,,,,,,,,,,,,
,,,,,,,,,,,,Few,Many,Less than half,All,Some,None,Most,More than half,Half,-0.407407407,0.310185185,1,0,0,QQQ7,,,,,,,,English,2020-07-02_03h00.57.165,Experiment_English,3.2.4,Win32,60,,,1,0,340,325,1,339,ratio91_9_10_8.png,,,,,,,,,,,,
,,,,,,,,,,,,Few,Less than half,Most,Half,Many,All,None,More than half,Some,0.617592593,-0.340740741,1,0,0,QQQ3,,,,,,,,English,2020-07-02_03h00.57.165,Experiment_English,3.2.4,Win32,60,,,1,0,340,311,1,339,ratio51_10_12_14.png,,,,,,,,,,,,
,,,,,,,,,,,,None,Few,Less than half,Many,More than half,Most,Half,Some,All,-0.098148148,-0.342592593,1,0,0,QQQ6,,,,,,,,English,2020-07-02_03h00.57.165,Experiment_English,3.2.4,Win32,60,,,1,0,340,229,1,339,ratio32_6_10_9.png,,,,,,,,,,,,
,,,,,,,,,,,,All,Half,Few,Some,Less than half,None,Many,More than half,Most,-0.012962963,0.253703704,1,0,0,QQQ4,,,,,,,,English,2020-07-02_03h00.57.165,Experiment_English,3.2.4,Win32,60,,,1,0,340,253,1,339,ratio34_6_14_5.png,,,,,,,,,,,,
,,,,,,,,,,,,Most,Less than half,None,All,More than half,Half,Some,Many,Few,0.509259259,0.234259259,1,0,0,QQQ1,,,,,,,,English,2020-07-02_03h00.57.165,Experiment_English,3.2.4,Win32,60,,,1,0,340,30,1,339,ratio11_6_12_6.png,,,,,,,,,,,,
,,,,,,,,,,,,Half,None,Many,More than half,Most,Less than half,Few,All,Some,0.110185185,-0.037962963,1,0,0,QQQ5,,,,,,,,English,2020-07-02_03h00.57.165,Experiment_English,3.2.4,Win32,60,,,1,0,340,219,1,339,ratio31_15_20_10.png,,,,,,,,,,,,
,,,,,,,,,,,,None,Many,Half,Less than half,Most,Few,More than half,Some,All,0.437037037,0.348148148,1,0,0,QQQ1,,,,,,,,English,2020-07-02_03h00.57.165,Experiment_English,3.2.4,Win32,60,,,1,0,340,72,1,339,ratio0Y_0_13_4.png,,,,,,,,,,,,
,,,,,,,,,,,,Few,Most,Less than half,Half,None,Some,Many,All,More than half,0.42962963,0.262962963,1,0,0,QQQ1,,,,,,,,English,2020-07-02_03h00.57.165,Experiment_English,3.2.4,Win32,60,,,1,0,340,74,1,339,ratio0Y_0_15_10.png,,,,,,,,,,,,
,,,,,,,,,,,,More than half,Few,None,All,Less than half,Many,Some,Half,Most,-0.486111111,-0.310185185,1,0,0,QQQ9,,,,,,,,English,2020-07-02_03h00.57.165,Experiment_English,3.2.4,Win32,60,,,1,0,340,233,1,339,ratio32_9_15_9.png,,,,,,,,,,,,
,,,,,,,,,,,,Half,None,Many,All,Most,Some,More than half,Less than half,Few,-0.055555556,-0.364814815,1,0,0,QQQ6,,,,,,,,English,2020-07-02_03h00.57.165,Experiment_English,3.2.4,Win32,60,,,1,0,340,19,1,339,ratio12_6_18_9.png,,,,,,,,,,,,
,,,,,,,,,,,,Few,Many,Half,All,None,Most,Some,More than half,Less than half,-0.055555556,-0.364814815,1,0,0,QQQ6,,,,,,,,English,2020-07-02_03h00.57.165,Experiment_English,3.2.4,Win32,60,,,1,0,340,285,1,339,ratio43_4_7_14.png,,,,,,,,,,,,
,,,,,,,,,,,,Some,Less than half,Most,Few,More than half,None,Many,All,Half,-0.518518519,-0.037037037,1,0,0,QQQ8,,,,,,,,English,2020-07-02_03h00.57.165,Experiment_English,3.2.4,Win32,60,,,1,0,340,49,1,339,ratioX0_11_11_2.png,,,,,,,,,,,,
,,,,,,,,,,,,None,More than half,Half,Most,Less than half,Few,Some,Many,All,0.40462963,0.311111111,1,0,0,QQQ1,,,,,,,,English,2020-07-02_03h00.57.165,Experiment_English,3.2.4,Win32,60,,,1,0,340,69,1,339,ratio0Y_0_11_6.png,,,,,,,,,,,,
,,,,,,,,,,,,Most,None,Many,Less than half,All,Half,Some,More than half,Few,-0.498148148,-0.294444444,1,0,0,QQQ9,,,,,,,,English,2020-07-02_03h00.57.165,Experiment_English,3.2.4,Win32,60,,,1,0,340,153,1,339,ratio19_2_20_8.png,,,,,,,,,,,,
,,,,,,,,,,,,Most,Many,All,More than half,Less than half,Few,Some,None,Half,-0.453703704,-0.301851852,1,0,0,QQQ9,,,,,,,,English,2020-07-02_03h00.57.165,Experiment_English,3.2.4,Win32,60,,,1,0,340,21,1,339,ratio11_2_4_10.png,,,,,,,,,,,,
,,,,,,,,,,,,Some,Half,Few,All,Less than half,Most,More than half,Many,None,0.078703704,-0.064814815,1,0,0,QQQ5,,,,,,,,English,2020-07-02_03h00.57.165,Experiment_English,3.2.4,Win32,60,,,1,0,340,39,1,339,ratio11_10_20_6.png,,,,,,,,,,,,
,,,,,,,,,,,,None,Less than half,Half,Most,More than half,Few,Some,All,Many,0.031481481,-0.32037037,1,0,0,QQQ6,,,,,,,,English,2020-07-02_03h00.57.165,Experiment_English,3.2.4,Win32,60,,,1,0,340,102,1,339,ratio14_1_5_8.png,,,,,,,,,,,,
,,,,,,,,,,,,Half,Most,None,Less than half,More than half,Some,Many,Few,All,-0.456481481,0.009259259,1,0,0,QQQ8,,,,,,,,English,2020-07-02_03h00.57.165,Experiment_English,3.2.4,Win32,60,,,1,0,340,1,1,339,ratio12_1_3_7.png,,,,,,,,,,,,
,,,,,,,,,,,,Half,Many,Some,None,Most,Few,All,Less than half,More than half,0.049074074,-0.037037037,1,0,0,QQQ5,,,,,,,,English,2020-07-02_03h00.57.165,Experiment_English,3.2.4,Win32,60,,,1,0,340,164,1,339,ratio21_4_6_6.png,,,,,,,,,,,,
,,,,,,,,,,,,Most,More than half,Half,Few,Some,None,Many,All,Less than half,0.474074074,-0.311111111,1,0,0,QQQ3,,,,,,,,English,2020-07-02_03h00.57.165,Experiment_English,3.2.4,Win32,60,,,1,0,340,199,1,339,ratio23_8_20_8.png,,,,,,,,,,,,
,,,,,,,,,,,,Some,None,All,Many,Less than half,More than half,Half,Few,Most,-0.481481481,-0.25,1,0,0,QQQ9,,,,,,,,English,2020-07-02_03h00.57.165,Experiment_English,3.2.4,Win32,60,,,1,0,340,306,1,339,ratio51_5_6_18.png,,,,,,,,,,,,
,,,,,,,,,,,,Half,Few,Less than half,Some,Many,None,Most,All,More than half,0.586111111,-0.37037037,1,0,0,QQQ3,,,,,,,,English,2020-07-02_03h00.57.165,Experiment_English,3.2.4,Win32,60,,,1,0,340,8,1,339,ratio12_3_9_4.png,,,,,,,,,,,,
,,,,,,,,,,,,None,Some,All,Many,Half,Most,Few,More than half,Less than half,0.459259259,0.231481481,1,0,0,QQQ1,,,,,,,,English,2020-07-02_03h00.57.165,Experiment_English,3.2.4,Win32,60,,,1,0,340,147,1,339,ratio19_1_10_18.png,,,,,,,,,,,,
,,,,,,,,,,,,Many,Some,More than half,Half,Less than half,Few,None,Most,All,-0.487037037,-0.310185185,1,0,0,QQQ9,,,,,,,,English,2020-07-02_03h00.57.165,Experiment_English,3.2.4,Win32,60,,,1,0,340,52,1,339,ratioX0_13_13_10.png,,,,,,,,,,,,
,,,,,,,,,,,,Many,Half,More than half,Few,Less than half,All,Some,None,Most,0.00462963,0.292592593,1,0,0,QQQ4,,,,,,,,English,2020-07-02_03h00.57.165,Experiment_English,3.2.4,Win32,60,,,1,0,340,154,1,339,ratio19_2_20_11.png,,,,,,,,,,,,
,,,,,,,,,,,,More than half,Some,All,Less than half,Many,Half,Most,None,Few,-0.358333333,0.264814815,1,0,0,QQQ7,,,,,,,,English,2020-07-02_03h00.57.165,Experiment_English,3.2.4,Win32,60,,,1,0,340,269,1,339,ratio41_8_10_6.png,,,,,,,,,,,,
,,,,,,,,,,,,Few,Some,Less than half,More than half,None,All,Most,Many,Half,0.530555556,0.272222222,1,0,0,QQQ1,,,,,,,,English,2020-07-02_03h00.57.165,Experiment_English,3.2.4,Win32,60,,,1,0,340,120,1,339,ratio15_1_6_1.png,,,,,,,,,,,,
,,,,,,,,,,,,Few,Less than half,None,All,Most,Many,More than half,Some,Half,0.006481481,0.082407407,1,0,0,QQQ5,,,,,,,,English,2020-07-02_03h00.57.165,Experiment_English,3.2.4,Win32,60,,,1,0,340,331,1,339,ratio91_18_20_3.png,,,,,,,,,,,,
,,,,,,,,,,,,Half,None,More than half,Many,All,Most,Less than half,Few,Some,-0.019444444,-0.261111111,1,0,0,QQQ6,,,,,,,,English,2020-07-02_03h00.57.165,Experiment_English,3.2.4,Win32,60,,,1,0,340,209,1,339,ratio31_9_12_6.png,,,,,,,,,,,,
,,,,,,,,,,,,Half,Some,None,More than half,Less than half,Most,Few,All,Many,-0.352777778,0.240740741,1,0,0,QQQ7,,,,,,,,English,2020-07-02_03h00.57.165,Experiment_English,3.2.4,Win32,60,,,1,0,340,137,1,339,ratio15_3_18_16.png,0.29537037,-0.391666667,1,0,0,continue_button_pause,1,0,1,0,1,0
,,,,,,,,,,,,,,,,,,,,,,,,,,,,,,,,,,English,2020-07-02_03h00.57.165,Experiment_English,3.2.4,Win32,60,,,1,0,340,137,1,339,ratio15_3_18_16.png,,,,,,,,,,,,
,,,,,,,,,,,,All,None,Many,Some,Most,Half,More than half,Less than half,Few,-0.468518519,-0.22037037,1,0,0,QQQ9,,,,,,,,English,2020-07-02_03h00.57.165,Experiment_English,3.2.4,Win32,60,,,1,0,340,84,1,339,ratio13_2_8_1.png,,,,,,,,,,,,
,,,,,,,,,,,,Few,Most,Less than half,Some,None,Half,All,Many,More than half,0.437037037,-0.012962963,1,0,0,QQQ2,,,,,,,,English,2020-07-02_03h00.57.165,Experiment_English,3.2.4,Win32,60,,,1,0,340,27,1,339,ratio11_5_10_7.png,,,,,,,,,,,,
,,,,,,,,,,,,Few,Many,More than half,All,None,Some,Less than half,Most,Half,0.042592593,-0.312962963,1,0,0,QQQ6,,,,,,,,English,2020-07-02_03h00.57.165,Experiment_English,3.2.4,Win32,60,,,1,0,340,17,1,339,ratio12_6_18_5.png,,,,,,,,,,,,
,,,,,,,,,,,,Half,Few,Many,All,More than half,None,Most,Some,Less than half,0.423148148,-0.041666667,1,0,0,QQQ2,,,,,,,,English,2020-07-02_03h00.57.165,Experiment_English,3.2.4,Win32,60,,,1,0,340,121,1,339,ratio15_1_6_4.png,,,,,,,,,,,,
,,,,,,,,,,,,Few,Half,More than half,Many,All,Less than half,Some,None,Most,-0.434259259,-0.303703704,1,0,0,QQQ9,,,,,,,,English,2020-07-02_03h00.57.165,Experiment_English,3.2.4,Win32,60,,,1,0,340,170,1,339,ratio21_6_9_8.png,,,,,,,,,,,,
,,,,,,,,,,,,More than half,All,Few,Some,None,Most,Half,Less than half,Many,0.450925926,-0.346296296,1,0,0,QQQ3,,,,,,,,English,2020-07-02_03h00.57.165,Experiment_English,3.2.4,Win32,60,,,1,0,340,104,1,339,ratio14_1_5_10.png,,,,,,,,,,,,
,,,,,,,,,,,,Many,All,Most,Some,None,Few,Less than half,Half,More than half,0.434259259,-0.262962963,1,0,0,QQQ3,,,,,,,,English,2020-07-02_03h00.57.165,Experiment_English,3.2.4,Win32,60,,,1,0,340,168,1,339,ratio21_6_9_3.png,,,,,,,,,,,,
,,,,,,,,,,,,Some,Half,None,Most,All,Many,Few,Less than half,More than half,-0.046296296,0.344444444,1,0,0,QQQ4,,,,,,,,English,2020-07-02_03h00.57.165,Experiment_English,3.2.4,Win32,60,,,1,0,340,266,1,339,ratio41_8_10_2.png,,,,,,,,,,,,
,,,,,,,,,,,,Most,Less than half,None,Many,Half,All,More than half,Few,Some,-0.364814815,-0.313888889,1,0,0,QQQ9,,,,,,,,English,2020-07-02_03h00.57.165,Experiment_English,3.2.4,Win32,60,,,1,0,340,197,1,339,ratio23_8_20_6.png,,,,,,,,,,,,
,,,,,,,,,,,,Some,Less than half,Most,Many,Half,None,All,More than half,Few,-0.385185185,-0.32037037,1,0,0,QQQ9,,,,,,,,English,2020-07-02_03h00.57.165,Experiment_English,3.2.4,Win32,60,,,1,0,340,244,1,339,ratio34_3_7_9.png,,,,,,,,,,,,
,,,,,,,,,,,,None,Some,Most,Few,Less than half,Half,Many,More than half,All,0.625925926,-0.369444444,1,0,0,QQQ3,,,,,,,,English,2020-07-02_03h00.57.165,Experiment_English,3.2.4,Win32,60,,,1,0,340,326,1,339,ratio91_9_10_10.png,,,,,,,,,,,,
,,,,,,,,,,,,Few,Some,Half,Less than half,More than half,All,Many,None,Most,-0.494444444,-0.286111111,1,0,0,QQQ9,,,,,,,,English,2020-07-02_03h00.57.165,Experiment_English,3.2.4,Win32,60,,,1,0,340,201,1,339,ratio31_3_4_7.png,,,,,,,,,,,,
,,,,,,,,,,,,Most,More than half,Half,Some,None,All,Few,Many,Less than half,0.096296296,0.334259259,1,0,0,QQQ4,,,,,,,,English,2020-07-02_03h00.57.165,Experiment_English,3.2.4,Win32,60,,,1,0,340,247,1,339,ratio34_3_7_12.png,,,,,,,,,,,,
,,,,,,,,,,,,Some,Many,Less than half,More than half,None,All,Few,Most,Half,-0.458333333,0.332407407,1,0,0,QQQ7,,,,,,,,English,2020-07-02_03h00.57.165,Experiment_English,3.2.4,Win32,60,,,1,0,340,254,1,339,ratio34_6_14_9.png,,,,,,,,,,,,
,,,,,,,,,,,,Half,Most,More than half,Some,Less than half,All,Many,Few,None,0.572222222,-0.07037037,1,0,0,QQQ2,,,,,,,,English,2020-07-02_03h00.57.165,Experiment_English,3.2.4,Win32,60,,,1,0,340,286,1,339,ratio43_4_7_15.png,,,,,,,,,,,,
,,,,,,,,,,,,Most,None,Few,Many,Some,Half,More than half,All,Less than half,0.444444444,-0.277777778,1,0,0,QQQ3,,,,,,,,English,2020-07-02_03h00.57.165,Experiment_English,3.2.4,Win32,60,,,1,0,340,128,1,339,ratio15_2_12_8.png,,,,,,,,,,,,
,,,,,,,,,,,,None,All,Half,Less than half,Most,More than half,Few,Some,Many,-0.015740741,-0.00462963,1,0,0,QQQ5,,,,,,,,English,2020-07-02_03h00.57.165,Experiment_English,3.2.4,Win32,60,,,1,0,340,303,1,339,ratio51_5_6_6.png,,,,,,,,,,,,
,,,,,,,,,,,,Some,All,None,Half,Most,More than half,Less than half,Many,Few,0.55,-0.297222222,1,0,0,QQQ3,,,,,,,,English,2020-07-02_03h00.57.165,Experiment_English,3.2.4,Win32,60,,,1,0,340,76,1,339,ratio0Y_0_17_10.png,,,,,,,,,,,,
,,,,,,,,,,,,Most,Few,All,None,Many,Less than half,More than half,Half,Some,0.505555556,0.364814815,1,0,0,QQQ1,,,,,,,,English,2020-07-02_03h00.57.165,Experiment_English,3.2.4,Win32,60,,,1,0,340,276,1,339,ratio41_16_20_4.png,,,,,,,,,,,,
,,,,,,,,,,,,Half,Most,More than half,Few,Many,None,Some,All,Less than half,-0.060185185,0.286111111,1,0,0,QQQ4,,,,,,,,English,2020-07-02_03h00.57.165,Experiment_English,3.2.4,Win32,60,,,1,0,340,135,1,339,ratio15_3_18_7.png,,,,,,,,,,,,
,,,,,,,,,,,,More than half,Most,Some,Half,Few,Many,Less than half,All,None,0.416666667,0.02037037,1,0,0,QQQ2,,,,,,,,English,2020-07-02_03h00.57.165,Experiment_English,3.2.4,Win32,60,,,1,0,340,324,1,339,ratio91_9_10_7.png,,,,,,,,,,,,
,,,,,,,,,,,,None,All,Some,Few,Many,Less than half,Half,Most,More than half,0.107407407,0.235185185,1,0,0,QQQ4,,,,,,,,English,2020-07-02_03h00.57.165,Experiment_English,3.2.4,Win32,60,,,1,0,340,6,1,339,ratio12_3_9_1.png,,,,,,,,,,,,
,,,,,,,,,,,,Less than half,More than half,Most,None,Some,All,Few,Half,Many,-0.586111111,0.30462963,1,0,0,QQQ7,,,,,,,,English,2020-07-02_03h00.57.165,Experiment_English,3.2.4,Win32,60,,,1,0,340,122,1,339,ratio15_1_6_7.png,,,,,,,,,,,,
,,,,,,,,,,,,Few,None,Most,Many,Less than half,All,More than half,Some,Half,0.506481481,0.317592593,1,0,0,QQQ1,,,,,,,,English,2020-07-02_03h00.57.165,Experiment_English,3.2.4,Win32,60,,,1,0,340,91,1,339,ratio13_3_12_10.png,,,,,,,,,,,,
,,,,,,,,,,,,Half,Some,Many,Few,All,Less than half,More than half,None,Most,-0.542592593,-0.344444444,1,0,0,QQQ9,,,,,,,,English,2020-07-02_03h00.57.165,Experiment_English,3.2.4,Win32,60,,,1,0,340,312,1,339,ratio51_10_12_16.png,,,,,,,,,,,,
,,,,,,,,,,,,Most,Some,Few,Half,Less than half,None,More than half,All,Many,0.453703704,0.035185185,1,0,0,QQQ2,,,,,,,,English,2020-07-02_03h00.57.165,Experiment_English,3.2.4,Win32,60,,,1,0,340,97,1,339,ratio13_5_20_2.png,,,,,,,,,,,,
,,,,,,,,,,,,Most,Some,Many,None,All,More than half,Less than half,Few,Half,0.658333333,0.343518519,1,0,0,QQQ1,,,,,,,,English,2020-07-02_03h00.57.165,Experiment_English,3.2.4,Win32,60,,,1,0,340,163,1,339,ratio21_4_6_1.png,,,,,,,,,,,,
,,,,,,,,,,,,Less than half,Most,All,Some,Many,Half,None,Few,More than half,-0.552777778,0.039814815,1,0,0,QQQ8,,,,,,,,English,2020-07-02_03h00.57.165,Experiment_English,3.2.4,Win32,60,,,1,0,340,100,1,339,ratio14_1_5_3.png,,,,,,,,,,,,
,,,,,,,,,,,,Half,More than half,None,Most,All,Some,Many,Few,Less than half,0.488888889,-0.02962963,1,0,0,QQQ2,,,,,,,,English,2020-07-02_03h00.57.165,Experiment_English,3.2.4,Win32,60,,,1,0,340,287,1,339,ratio43_4_7_17.png,,,,,,,,,,,,
,,,,,,,,,,,,More than half,Half,Most,Some,None,All,Many,Less than half,Few,0.564814815,-0.030555556,1,0,0,QQQ2,,,,,,,,English,2020-07-02_03h00.57.165,Experiment_English,3.2.4,Win32,60,,,1,0,340,205,1,339,ratio31_6_8_2.png,,,,,,,,,,,,
,,,,,,,,,,,,Few,None,Less than half,Some,All,Many,Half,Most,More than half,-0.477777778,0.016666667,1,0,0,QQQ8,,,,,,,,English,2020-07-02_03h00.57.165,Experiment_English,3.2.4,Win32,60,,,1,0,340,278,1,339,ratio41_16_20_9.png,,,,,,,,,,,,
,,,,,,,,,,,,More than half,Most,Less than half,Many,None,Few,Some,Half,All,0.556481481,-0.011111111,1,0,0,QQQ2,,,,,,,,English,2020-07-02_03h00.57.165,Experiment_English,3.2.4,Win32,60,,,1,0,340,336,1,339,ratio91_18_20_12.png,,,,,,,,,,,,
,,,,,,,,,,,,Many,All,Most,Half,More than half,Some,None,Less than half,Few,-0.584259259,-0.282407407,1,0,0,QQQ9,,,,,,,,English,2020-07-02_03h00.57.165,Experiment_English,3.2.4,Win32,60,,,1,0,340,152,1,339,ratio19_2_20_6.png,,,,,,,,,,,,
,,,,,,,,,,,,Most,Few,More than half,Some,All,Many,None,Less than half,Half,0.531481481,0.322222222,1,0,0,QQQ1,,,,,,,,English,2020-07-02_03h00.57.165,Experiment_English,3.2.4,Win32,60,,,1,0,340,211,1,339,ratio31_9_12_10.png,0.335185185,-0.406481481,1,0,0,continue_button_pause,1,0,1,0,1,0
,,,,,,,,,,,,,,,,,,,,,,,,,,,,,,,,,,English,2020-07-02_03h00.57.165,Experiment_English,3.2.4,Win32,60,,,1,0,340,211,1,339,ratio31_9_12_10.png,,,,,,,,,,,,
,,,,,,,,,,,,None,More than half,Some,Most,Half,All,Few,Many,Less than half,0.044444444,-0.315740741,1,0,0,QQQ6,,,,,,,,English,2020-07-02_03h00.57.165,Experiment_English,3.2.4,Win32,60,,,1,0,340,59,1,339,ratioX0_20_20_9.png,,,,,,,,,,,,
,,,,,,,,,,,,Some,Less than half,None,More than half,Few,All,Most,Many,Half,-0.506481481,0.213888889,1,0,0,QQQ7,,,,,,,,English,2020-07-02_03h00.57.165,Experiment_English,3.2.4,Win32,60,,,1,0,340,299,1,339,ratio43_8_14_17.png,,,,,,,,,,,,
,,,,,,,,,,,,Most,More than half,None,Some,Less than half,Half,Few,Many,All,0.47962963,0.283333333,1,0,0,QQQ1,,,,,,,,English,2020-07-02_03h00.57.165,Experiment_English,3.2.4,Win32,60,,,1,0,340,178,1,339,ratio21_12_18_2.png,,,,,,,,,,,,
,,,,,,,,,,,,All,Less than half,Few,More than half,Half,Many,Some,None,Most,-0.431481481,-0.272222222,1,0,0,QQQ9,,,,,,,,English,2020-07-02_03h00.57.165,Experiment_English,3.2.4,Win32,60,,,1,0,340,230,1,339,ratio32_9_15_1.png,,,,,,,,,,,,
,,,,,,,,,,,,More than half,None,Some,Half,Less than half,Most,All,Few,Many,-0.063888889,-0.234259259,1,0,0,QQQ6,,,,,,,,English,2020-07-02_03h00.57.165,Experiment_English,3.2.4,Win32,60,,,1,0,340,223,1,339,ratio32_3_5_5.png,,,,,,,,,,,,
,,,,,,,,,,,,Many,Some,Most,Less than half,None,All,More than half,Few,Half,0.461111111,0.012962963,1,0,0,QQQ2,,,,,,,,English,2020-07-02_03h00.57.165,Experiment_English,3.2.4,Win32,60,,,1,0,340,9,1,339,ratio12_3_9_5.png,,,,,,,,,,,,
,,,,,,,,,,,,Half,Less than half,More than half,Some,Most,None,Many,All,Few,0.040740741,-0.09537037,1,0,0,QQQ5,,,,,,,,English,2020-07-02_03h00.57.165,Experiment_English,3.2.4,Win32,60,,,1,0,340,337,1,339,ratio91_18_20_16.png,,,,,,,,,,,,
,,,,,,,,,,,,Most,Many,None,All,Less than half,Few,Half,Some,More than half,0.009259259,-0.373148148,1,0,0,QQQ6,,,,,,,,English,2020-07-02_03h00.57.165,Experiment_English,3.2.4,Win32,60,,,1,0,340,117,1,339,ratio14_4_20_6.png,,,,,,,,,,,,
,,,,,,,,,,,,More than half,Most,Less than half,Some,Many,Few,Half,All,None,0.600925926,0.35,1,0,0,QQQ1,,,,,,,,English,2020-07-02_03h00.57.165,Experiment_English,3.2.4,Win32,60,,,1,0,340,221,1,339,ratio32_3_5_3.png,,,,,,,,,,,,
,,,,,,,,,,,,Some,None,Half,Few,Many,More than half,Less than half,All,Most,-0.402777778,-0.285185185,1,0,0,QQQ9,,,,,,,,English,2020-07-02_03h00.57.165,Experiment_English,3.2.4,Win32,60,,,1,0,340,179,1,339,ratio21_12_18_8.png,,,,,,,,,,,,
,,,,,,,,,,,,More than half,All,Many,Some,Half,Most,Less than half,None,Few,-0.525,-0.368518519,1,0,0,QQQ9,,,,,,,,English,2020-07-02_03h00.57.165,Experiment_English,3.2.4,Win32,60,,,1,0,340,82,1,339,ratio13_1_4_7.png,,,,,,,,,,,,
,,,,,,,,,,,,Half,More than half,Most,None,Many,Less than half,All,Few,Some,-0.465740741,0.05462963,1,0,0,QQQ8,,,,,,,,English,2020-07-02_03h00.57.165,Experiment_English,3.2.4,Win32,60,,,1,0,340,124,1,339,ratio15_1_6_16.png,,,,,,,,,,,,
,,,,,,,,,,,,Some,More than half,Many,Few,Less than half,Most,None,Half,All,0.487037037,0.284259259,1,0,0,QQQ1,,,,,,,,English,2020-07-02_03h00.57.165,Experiment_English,3.2.4,Win32,60,,,1,0,340,94,1,339,ratio13_4_16_8.png,,,,,,,,,,,,
,,,,,,,,,,,,Many,Some,More than half,All,Few,Most,None,Less than half,Half,-0.57037037,-0.244444444,1,0,0,QQQ9,,,,,,,,English,2020-07-02_03h00.57.165,Experiment_English,3.2.4,Win32,60,,,1,0,340,246,1,339,ratio34_3_7_11.png,,,,,,,,,,,,
,,,,,,,,,,,,Few,More than half,All,Most,Some,Many,Less than half,Half,None,-0.037962963,0.262962963,1,0,0,QQQ4,,,,,,,,English,2020-07-02_03h00.57.165,Experiment_English,3.2.4,Win32,60,,,1,0,340,272,1,339,ratio41_12_15_7.png,,,,,,,,,,,,
,,,,,,,,,,,,Few,Half,None,More than half,Most,Many,All,Less than half,Some,0.011111111,-0.081481481,0,0,0,QQQ5,,,,,,,,English,2020-07-02_03h00.57.165,Experiment_English,3.2.4,Win32,60,,,1,0,340,334,1,339,ratio91_18_20_9.png,,,,,,,,,,,,
,,,,,,,,,,,,Most,Less than half,Some,None,Many,Few,More than half,All,Half,0.542592593,-0.361111111,1,0,0,QQQ3,,,,,,,,English,2020-07-02_03h00.57.165,Experiment_English,3.2.4,Win32,60,,,1,0,340,85,1,339,ratio13_2_8_5.png,,,,,,,,,,,,
,,,,,,,,,,,,None,All,Many,Half,Some,More than half,Most,Less than half,Few,0.62962963,0.284259259,1,0,0,QQQ1,,,,,,,,English,2020-07-02_03h00.57.165,Experiment_English,3.2.4,Win32,60,,,1,0,340,65,1,339,ratio0Y_0_8_4.png,,,,,,,,,,,,
,,,,,,,,,,,,Many,None,Some,Most,Half,Few,Less than half,More than half,All,0.012037037,-0.349074074,1,0,0,QQQ6,,,,,,,,English,2020-07-02_03h00.57.165,Experiment_English,3.2.4,Win32,60,,,1,0,340,134,1,339,ratio15_3_18_5.png,,,,,,,,,,,,
,,,,,,,,,,,,Many,All,None,Most,Half,More than half,Less than half,Some,Few,0.089814815,0.347222222,1,0,0,QQQ4,,,,,,,,English,2020-07-02_03h00.57.165,Experiment_English,3.2.4,Win32,60,,,1,0,340,202,1,339,ratio31_3_4_8.png,,,,,,,,,,,,
,,,,,,,,,,,,Half,All,None,Many,Most,Some,Few,More than half,Less than half,0.017592593,-0.048148148,1,0,0,QQQ5,,,,,,,,English,2020-07-02_03h00.57.165,Experiment_English,3.2.4,Win32,60,,,1,0,340,176,1,339,ratio21_10_15_3.png,,,,,,,,,,,,
,,,,,,,,,,,,Most,All,Few,Half,Many,None,Less than half,Some,More than half,-0.49537037,0.065740741,1,0,0,QQQ8,,,,,,,,English,2020-07-02_03h00.57.165,Experiment_English,3.2.4,Win32,60,,,1,0,340,37,1,339,ratio11_9_18_8.png,,,,,,,,,,,,
,,,,,,,,,,,,Most,None,Half,More than half,Many,All,Less than half,Few,Some,0.457407407,-0.010185185,1,0,0,QQQ2,,,,,,,,English,2020-07-02_03h00.57.165,Experiment_English,3.2.4,Win32,60,,,1,0,340,62,1,339,ratio0Y_0_5_4.png,,,,,,,,,,,,
,,,,,,,,,,,,Half,Most,All,Few,More than half,Many,Less than half,Some,None,0.037037037,0.002777778,1,0,0,QQQ5,,,,,,,,English,2020-07-02_03h00.57.165,Experiment_English,3.2.4,Win32,60,,,1,0,340,33,1,339,ratio11_7_14_8.png,,,,,,,,,,,,
,,,,,,,,,,,,More than half,None,Some,Few,Half,Many,Less than half,Most,All,0.037037037,0.002777778,1,0,0,QQQ5,,,,,,,,English,2020-07-02_03h00.57.165,Experiment_English,3.2.4,Win32,60,,,1,0,340,25,1,339,ratio11_4_8_10.png,,,,,,,,,,,,
,,,,,,,,,,,,Many,Half,Some,Few,More than half,All,Most,Less than half,None,0.560185185,-0.264814815,1,0,0,QQQ3,,,,,,,,English,2020-07-02_03h00.57.165,Experiment_English,3.2.4,Win32,60,,,1,0,340,248,1,339,ratio34_3_7_19.png,,,,,,,,,,,,
,,,,,,,,,,,,More than half,Some,None,Half,All,Most,Many,Few,Less than half,-0.003703704,-0.32962963,1,0,0,QQQ6,,,,,,,,English,2020-07-02_03h00.57.165,Experiment_English,3.2.4,Win32,60,,,1,0,340,294,1,339,ratio43_8_14_9.png,,,,,,,,,,,,
,,,,,,,,,,,,More than half,None,All,Some,Half,Few,Many,Less than half,Most,0.006481481,-0.348148148,1,0,0,QQQ6,,,,,,,,English,2020-07-02_03h00.57.165,Experiment_English,3.2.4,Win32,60,,,1,0,340,136,1,339,ratio15_3_18_8.png,,,,,,,,,,,,
,,,,,,,,,,,,None,Many,Most,Half,Few,All,Some,More than half,Less than half,0.064814815,-0.017592593,1,0,0,QQQ5,,,,,,,,English,2020-07-02_03h00.57.165,Experiment_English,3.2.4,Win32,60,,,1,0,340,146,1,339,ratio19_1_10_17.png,,,,,,,,,,,,
,,,,,,,,,,,,Many,More than half,Most,Less than half,Some,Few,All,Half,None,0.524074074,-0.244444444,1,0,0,QQQ3,,,,,,,,English,2020-07-02_03h00.57.165,Experiment_English,3.2.4,Win32,60,,,1,0,340,277,1,339,ratio41_16_20_8.png,,,,,,,,,,,,
,,,,,,,,,,,,None,More than half,Some,Half,Less than half,Most,All,Many,Few,0.084259259,0.362037037,1,0,0,QQQ4,,,,,,,,English,2020-07-02_03h00.57.165,Experiment_English,3.2.4,Win32,60,,,1,0,340,282,1,339,ratio43_4_7_7.png,,,,,,,,,,,,
,,,,,,,,,,,,Few,More than half,Most,Less than half,Half,None,All,Some,Many,0.097222222,0.259259259,1,0,0,QQQ4,,,,,,,,English,2020-07-02_03h00.57.165,Experiment_English,3.2.4,Win32,60,,,1,0,340,245,1,339,ratio34_3_7_10.png,,,,,,,,,,,,
,,,,,,,,,,,,Most,None,Some,Half,Few,More than half,Many,All,Less than half,0.449074074,0.219444444,1,0,0,QQQ1,,,,,,,,English,2020-07-02_03h00.57.165,Experiment_English,3.2.4,Win32,60,,,1,0,340,308,1,339,ratio51_10_12_9.png,,,,,,,,,,,,
,,,,,,,,,,,,Few,Less than half,None,Some,More than half,All,Half,Many,Most,-0.568518519,-0.342592593,1,0,0,QQQ9,,,,,,,,English,2020-07-02_03h00.57.165,Experiment_English,3.2.4,Win32,60,,,1,0,340,231,1,339,ratio32_9_15_2.png,0.238888889,-0.39537037,1,0,0,continue_button_pause,1,0,1,0,1,0
,,,,,,,,,,,,,,,,,,,,,,,,,,,,,,,,,,English,2020-07-02_03h00.57.165,Experiment_English,3.2.4,Win32,60,,,1,0,340,231,1,339,ratio32_9_15_2.png,,,,,,,,,,,,
,,,,,,,,,,,,Some,Many,Most,All,Less than half,None,Few,Half,More than half,0.559259259,0.215740741,1,0,0,QQQ1,,,,,,,,English,2020-07-02_03h00.57.165,Experiment_English,3.2.4,Win32,60,,,1,0,340,119,1,339,ratio14_4_20_10.png,,,,,,,,,,,,
,,,,,,,,,,,,Less than half,More than half,Many,All,Some,Few,Half,Most,None,0.035185185,0.305555556,1,0,0,QQQ4,,,,,,,,English,2020-07-02_03h00.57.165,Experiment_English,3.2.4,Win32,60,,,1,0,340,58,1,339,ratioX0_19_19_4.png,,,,,,,,,,,,
,,,,,,,,,,,,All,Half,None,Some,More than half,Most,Less than half,Many,Few,0.024074074,0.299074074,1,0,0,QQQ4,,,,,,,,English,2020-07-02_03h00.57.165,Experiment_English,3.2.4,Win32,60,,,1,0,340,96,1,339,ratio13_5_20_1.png,,,,,,,,,,,,
,,,,,,,,,,,,Most,More than half,Half,Many,All,Less than half,Some,None,Few,0.037037037,-0.349074074,1,0,0,QQQ6,,,,,,,,English,2020-07-02_03h00.57.165,Experiment_English,3.2.4,Win32,60,,,1,0,340,188,1,339,ratio23_4_10_6.png,,,,,,,,,,,,
,,,,,,,,,,,,Few,Many,Half,Most,Some,All,More than half,None,Less than half,0.621296296,0.312037037,1,0,0,QQQ1,,,,,,,,English,2020-07-02_03h00.57.165,Experiment_English,3.2.4,Win32,60,,,1,0,340,87,1,339,ratio13_2_8_8.png,,,,,,,,,,,,
,,,,,,,,,,,,Some,Most,Many,Half,More than half,None,All,Few,Less than half,0.405555556,0.00462963,1,0,0,QQQ2,,,,,,,,English,2020-07-02_03h00.57.165,Experiment_English,3.2.4,Win32,60,,,1,0,340,309,1,339,ratio51_10_12_10.png,,,,,,,,,,,,
,,,,,,,,,,,,All,Less than half,Most,Half,None,Few,More than half,Some,Many,0.577777778,-0.34537037,1,0,0,QQQ3,,,,,,,,English,2020-07-02_03h00.57.165,Experiment_English,3.2.4,Win32,60,,,1,0,340,327,1,339,ratio91_9_10_11.png,,,,,,,,,,,,
,,,,,,,,,,,,Most,All,Few,None,Many,Some,Half,Less than half,More than half,0.636111111,0.257407407,1,0,0,QQQ1,,,,,,,,English,2020-07-02_03h00.57.165,Experiment_English,3.2.4,Win32,60,,,1,0,340,305,1,339,ratio51_5_6_14.png,,,,,,,,,,,,
,,,,,,,,,,,,All,Less than half,Many,Some,Half,More than half,Most,None,Few,-0.485185185,-0.258333333,1,0,0,QQQ9,,,,,,,,English,2020-07-02_03h00.57.165,Experiment_English,3.2.4,Win32,60,,,1,0,340,141,1,339,ratio19_1_10_2.png,,,,,,,,,,,,
,,,,,,,,,,,,None,Most,Half,Some,All,Less than half,More than half,Few,Many,-0.403703704,0.016666667,1,0,0,QQQ8,,,,,,,,English,2020-07-02_03h00.57.165,Experiment_English,3.2.4,Win32,60,,,1,0,340,151,1,339,ratio19_2_20_4.png,,,,,,,,,,,,
,,,,,,,,,,,,Half,More than half,Less than half,Few,Some,Many,None,All,Most,-0.05,0.321296296,1,0,0,QQQ4,,,,,,,,English,2020-07-02_03h00.57.165,Experiment_English,3.2.4,Win32,60,,,1,0,340,114,1,339,ratio14_3_15_10.png,,,,,,,,,,,,
,,,,,,,,,,,,Few,All,Half,Many,Some,Less than half,None,More than half,Most,0.569444444,0.32962963,1,0,0,QQQ1,,,,,,,,English,2020-07-02_03h00.57.165,Experiment_English,3.2.4,Win32,60,,,1,0,340,150,1,339,ratio19_2_20_1.png,,,,,,,,,,,,
,,,,,,,,,,,,Less than half,More than half,Most,Half,All,Some,None,Many,Few,-0.540740741,-0.221296296,1,0,0,QQQ9,,,,,,,,English,2020-07-02_03h00.57.165,Experiment_English,3.2.4,Win32,60,,,1,0,340,3,1,339,ratio12_2_6_3.png,,,,,,,,,,,,
,,,,,,,,,,,,Few,Some,Half,More than half,All,Many,Most,Less than half,None,-0.583333333,0.212962963,1,0,0,QQQ7,,,,,,,,English,2020-07-02_03h00.57.165,Experiment_English,3.2.4,Win32,60,,,1,0,340,323,1,339,ratio91_9_10_5.png,,,,,,,,,,,,
,,,,,,,,,,,,Less than half,Half,Some,Most,All,None,Few,More than half,Many,-0.42962963,0.241666667,1,0,0,QQQ7,,,,,,,,English,2020-07-02_03h00.57.165,Experiment_English,3.2.4,Win32,60,,,1,0,340,240,1,339,ratio34_3_7_4.png,,,,,,,,,,,,
,,,,,,,,,,,,None,Many,More than half,All,Less than half,Few,Most,Some,Half,-0.407407407,0.27037037,1,0,0,QQQ7,,,,,,,,English,2020-07-02_03h00.57.165,Experiment_English,3.2.4,Win32,60,,,1,0,340,210,1,339,ratio31_9_12_9.png,,,,,,,,,,,,
,,,,,,,,,,,,Few,Half,Less than half,More than half,All,Most,Many,None,Some,-0.058333333,-0.297222222,1,0,0,QQQ6,,,,,,,,English,2020-07-02_03h00.57.165,Experiment_English,3.2.4,Win32,60,,,1,0,340,222,1,339,ratio32_3_5_4.png,,,,,,,,,,,,
,,,,,,,,,,,,None,Many,Some,Most,Few,All,More than half,Half,Less than half,0.464814815,-0.284259259,1,0,0,QQQ3,,,,,,,,English,2020-07-02_03h00.57.165,Experiment_English,3.2.4,Win32,60,,,1,0,340,93,1,339,ratio13_4_16_7.png,,,,,,,,,,,,
,,,,,,,,,,,,Most,None,All,Few,Many,Less than half,Some,Half,More than half,0.54537037,0.287037037,1,0,0,QQQ1,,,,,,,,English,2020-07-02_03h00.57.165,Experiment_English,3.2.4,Win32,60,,,1,0,340,315,1,339,ratio51_15_18_10.png,,,,,,,,,,,,
,,,,,,,,,,,,More than half,All,Most,Less than half,Some,None,Few,Half,Many,0.615740741,0.269444444,1,0,0,QQQ1,,,,,,,,English,2020-07-02_03h00.57.165,Experiment_English,3.2.4,Win32,60,,,1,0,340,26,1,339,ratio11_5_10_4.png,,,,,,,,,,,,
,,,,,,,,,,,,Most,More than half,Half,Less than half,Many,All,Few,None,Some,-0.063888889,-0.262962963,1,0,0,QQQ6,,,,,,,,English,2020-07-02_03h00.57.165,Experiment_English,3.2.4,Win32,60,,,1,0,340,45,1,339,ratioX0_8_8_3.png,,,,,,,,,,,,
,,,,,,,,,,,,More than half,Some,Most,Less than half,None,Many,Few,All,Half,-0.497222222,0.248148148,1,0,0,QQQ7,,,,,,,,English,2020-07-02_03h00.57.165,Experiment_English,3.2.4,Win32,60,,,1,0,340,80,1,339,ratio13_1_4_3.png,,,,,,,,,,,,
,,,,,,,,,,,,Less than half,More than half,Some,Few,Half,None,Most,Many,All,-0.05,0.309259259,1,0,0,QQQ4,,,,,,,,English,2020-07-02_03h00.57.165,Experiment_English,3.2.4,Win32,60,,,1,0,340,108,1,339,ratio14_2_10_6.png,,,,,,,,,,,,
,,,,,,,,,,,,Less than half,Some,Many,Half,None,Few,More than half,Most,All,0.54537037,0.225,1,0,0,QQQ1,,,,,,,,English,2020-07-02_03h00.57.165,Experiment_English,3.2.4,Win32,60,,,1,0,340,32,1,339,ratio11_7_14_5.png,,,,,,,,,,,,
,,,,,,,,,,,,None,Many,More than half,Most,All,Some,Half,Few,Less than half,-0.472222222,-0.064814815,1,0,0,QQQ8,,,,,,,,English,2020-07-02_03h00.57.165,Experiment_English,3.2.4,Win32,60,,,1,0,340,20,1,339,ratio11_2_4_3.png,,,,,,,,,,,,
,,,,,,,,,,,,Many,Less than half,Some,All,Few,Half,Most,None,More than half,-0.390740741,-0.006481481,1,0,0,QQQ8,,,,,,,,English,2020-07-02_03h00.57.165,Experiment_English,3.2.4,Win32,60,,,1,0,340,113,1,339,ratio14_3_15_8.png,,,,,,,,,,,,
,,,,,,,,,,,,Most,Some,Less than half,All,Many,None,Few,More than half,Half,-0.398148148,0.014814815,1,0,0,QQQ8,,,,,,,,English,2020-07-02_03h00.57.165,Experiment_English,3.2.4,Win32,60,,,1,0,340,251,1,339,ratio34_6_14_2.png,,,,,,,,,,,,
,,,,,,,,,,,,Some,Many,More than half,Less than half,All,Most,Half,Few,None,0.399074074,0.246296296,1,0,0,QQQ1,,,,,,,,English,2020-07-02_03h00.57.165,Experiment_English,3.2.4,Win32,60,,,1,0,340,15,1,339,ratio12_5_15_5.png,,,,,,,,,,,,
,,,,,,,,,,,,All,Half,Many,More than half,Most,Some,Few,None,Less than half,-0.07962963,-0.040740741,1,0,0,QQQ5,,,,,,,,English,2020-07-02_03h00.57.165,Experiment_English,3.2.4,Win32,60,,,1,0,340,217,1,339,ratio31_15_20_5.png,,,,,,,,,,,,
,,,,,,,,,,,,Less than half,Few,None,Many,Some,All,Half,More than half,Most,0.549074074,-0.016666667,1,0,0,QQQ2,,,,,,,,English,2020-07-02_03h00.57.165,Experiment_English,3.2.4,Win32,60,,,1,0,340,155,1,339,ratio19_2_20_13.png,,,,,,,,,,,,
,,,,,,,,,,,,Few,More than half,Less than half,Some,All,Half,Most,None,Many,0.02962963,0.298148148,1,0,0,QQQ4,,,,,,,,English,2020-07-02_03h00.57.165,Experiment_English,3.2.4,Win32,60,,,1,0,340,252,1,339,ratio34_6_14_3.png,,,,,,,,,,,,
,,,,,,,,,,,,Less than half,Few,Some,None,Most,More than half,All,Half,Many,0.531481481,-0.360185185,1,0,0,QQQ3,,,,,,,,English,2020-07-02_03h00.57.165,Experiment_English,3.2.4,Win32,60,,,1,0,340,297,1,339,ratio43_8_14_13.png,,,,,,,,,,,,
,,,,,,,,,,,,Some,Few,Most,All,Many,Half,More than half,Less than half,None,0.453703704,-0.283333333,1,0,0,QQQ3,,,,,,,,English,2020-07-02_03h00.57.165,Experiment_English,3.2.4,Win32,60,,,1,0,340,320,1,339,ratio91_9_10_1.png,,,,,,,,,,,,
,,,,,,,,,,,,Half,Many,All,Most,Few,None,Some,More than half,Less than half,0.076851852,0.29537037,1,0,0,QQQ4,,,,,,,,English,2020-07-02_03h00.57.165,Experiment_English,3.2.4,Win32,60,,,1,0,340,48,1,339,ratioX0_10_10_1.png,0.277777778,-0.381481481,1,0,0,continue_button_pause,1,0,1,0,1,0
,,,,,,,,,,,,,,,,,,,,,,,,,,,,,,,,,,English,2020-07-02_03h00.57.165,Experiment_English,3.2.4,Win32,60,,,1,0,340,48,1,339,ratioX0_10_10_1.png,,,,,,,,,,,,
,,,,,,,,,,,,All,Some,Less than half,Few,More than half,Many,Half,None,Most,0.594444444,0.026851852,1,0,0,QQQ2,,,,,,,,English,2020-07-02_03h00.57.165,Experiment_English,3.2.4,Win32,60,,,1,0,340,243,1,339,ratio34_3_7_8.png,,,,,,,,,,,,
,,,,,,,,,,,,Less than half,All,None,Few,Some,More than half,Half,Many,Most,-0.544444444,-0.284259259,1,0,0,QQQ9,,,,,,,,English,2020-07-02_03h00.57.165,Experiment_English,3.2.4,Win32,60,,,1,0,340,208,1,339,ratio31_9_12_3.png,,,,,,,,,,,,
,,,,,,,,,,,,Most,More than half,All,None,Some,Many,Few,Half,Less than half,-0.443518519,0.251851852,1,0,0,QQQ7,,,,,,,,English,2020-07-02_03h00.57.165,Experiment_English,3.2.4,Win32,60,,,1,0,340,182,1,339,ratio23_2_5_7.png,,,,,,,,,,,,
,,,,,,,,,,,,Half,Less than half,Few,None,All,Most,Many,Some,More than half,-0.400925926,-0.030555556,1,0,0,QQQ8,,,,,,,,English,2020-07-02_03h00.57.165,Experiment_English,3.2.4,Win32,60,,,1,0,340,196,1,339,ratio23_8_20_5.png,,,,,,,,,,,,
,,,,,,,,,,,,All,None,Some,Most,Less than half,Many,Few,More than half,Half,0.111111111,0.25462963,1,0,0,QQQ4,,,,,,,,English,2020-07-02_03h00.57.165,Experiment_English,3.2.4,Win32,60,,,1,0,340,288,1,339,ratio43_4_7_18.png,,,,,,,,,,,,
,,,,,,,,,,,,Less than half,Some,All,Most,None,More than half,Half,Few,Many,0.403703704,0.337037037,1,0,0,QQQ1,,,,,,,,English,2020-07-02_03h00.57.165,Experiment_English,3.2.4,Win32,60,,,1,0,340,241,1,339,ratio34_3_7_5.png,,,,,,,,,,,,
,,,,,,,,,,,,More than half,None,Less than half,Most,Half,Some,Many,Few,All,-0.559259259,-0.214814815,1,0,0,QQQ9,,,,,,,,English,2020-07-02_03h00.57.165,Experiment_English,3.2.4,Win32,60,,,1,0,340,57,1,339,ratioX0_18_18_1.png,,,,,,,,,,,,
,,,,,,,,,,,,All,Most,Many,None,Few,Less than half,Half,More than half,Some,-0.396296296,-0.252777778,1,0,0,QQQ9,,,,,,,,English,2020-07-02_03h00.57.165,Experiment_English,3.2.4,Win32,60,,,1,0,340,12,1,339,ratio12_4_12_10.png,,,,,,,,,,,,
,,,,,,,,,,,,More than half,Some,None,Less than half,Few,Half,All,Most,Many,-0.378703704,-0.063888889,1,0,0,QQQ8,,,,,,,,English,2020-07-02_03h00.57.165,Experiment_English,3.2.4,Win32,60,,,1,0,340,268,1,339,ratio41_8_10_5.png,,,,,,,,,,,,
,,,,,,,,,,,,Half,Some,Few,Most,Many,More than half,Less than half,All,None,-0.517592593,-0.309259259,1,0,0,QQQ9,,,,,,,,English,2020-07-02_03h00.57.165,Experiment_English,3.2.4,Win32,60,,,1,0,340,67,1,339,ratio0Y_0_10_10.png,,,,,,,,,,,,
,,,,,,,,,,,,None,All,Half,Few,Less than half,Many,Most,Some,More than half,-0.474074074,-0.003703704,1,0,0,QQQ8,,,,,,,,English,2020-07-02_03h00.57.165,Experiment_English,3.2.4,Win32,60,,,1,0,340,118,1,339,ratio14_4_20_8.png,,,,,,,,,,,,
,,,,,,,,,,,,Most,More than half,Many,None,Few,All,Half,Less than half,Some,-0.001851852,0.005555556,1,0,0,QQQ5,,,,,,,,English,2020-07-02_03h00.57.165,Experiment_English,3.2.4,Win32,60,,,1,0,340,129,1,339,ratio15_2_12_9.png,,,,,,,,,,,,
,,,,,,,,,,,,Some,All,None,Many,More than half,Half,Most,Less than half,Few,0.44537037,0.315740741,1,0,0,QQQ1,,,,,,,,English,2020-07-02_03h00.57.165,Experiment_English,3.2.4,Win32,60,,,1,0,340,255,1,339,ratio34_6_14_10.png,,,,,,,,,,,,
,,,,,,,,,,,,Many,Most,Half,Less than half,None,Few,All,Some,More than half,0.478703704,-0.24537037,1,0,0,QQQ3,,,,,,,,English,2020-07-02_03h00.57.165,Experiment_English,3.2.4,Win32,60,,,1,0,340,291,1,339,ratio43_8_14_5.png,,,,,,,,,,,,
,,,,,,,,,,,,More than half,Most,All,None,Half,Many,Some,Few,Less than half,0.427777778,-0.330555556,1,0,0,QQQ3,,,,,,,,English,2020-07-02_03h00.57.165,Experiment_English,3.2.4,Win32,60,,,1,0,340,42,1,339,ratioX0_5_5_5.png,,,,,,,,,,,,
,,,,,,,,,,,,Many,None,Few,Less than half,All,Some,More than half,Most,Half,0.462962963,-0.262037037,1,0,0,QQQ3,,,,,,,,English,2020-07-02_03h00.57.165,Experiment_English,3.2.4,Win32,60,,,1,0,340,159,1,339,ratio19_2_20_20.png,,,,,,,,,,,,
,,,,,,,,,,,,Many,Half,Few,All,Less than half,Some,More than half,Most,None,-0.012962963,-0.275,1,0,0,QQQ6,,,,,,,,English,2020-07-02_03h00.57.165,Experiment_English,3.2.4,Win32,60,,,1,0,340,283,1,339,ratio43_4_7_8.png,,,,,,,,,,,,
,,,,,,,,,,,,All,None,Few,Half,Most,Some,More than half,Less than half,Many,-0.043518519,-0.360185185,1,0,0,QQQ6,,,,,,,,English,2020-07-02_03h00.57.165,Experiment_English,3.2.4,Win32,60,,,1,0,340,259,1,339,ratio34_6_14_19.png,,,,,,,,,,,,
,,,,,,,,,,,,Half,None,Less than half,Some,Many,More than half,Most,All,Few,-0.490740741,0.338888889,1,0,0,QQQ7,,,,,,,,English,2020-07-02_03h00.57.165,Experiment_English,3.2.4,Win32,60,,,1,0,340,261,1,339,ratio41_4_5_3.png,,,,,,,,,,,,
,,,,,,,,,,,,Most,More than half,Many,Half,Less than half,Some,All,None,Few,0.564814815,0.321296296,1,0,0,QQQ1,,,,,,,,English,2020-07-02_03h00.57.165,Experiment_English,3.2.4,Win32,60,,,1,0,340,292,1,339,ratio43_8_14_6.png,,,,,,,,,,,,
,,,,,,,,,,,,None,All,Most,More than half,Many,Few,Less than half,Half,Some,0.507407407,-0.231481481,1,0,0,QQQ3,,,,,,,,English,2020-07-02_03h00.57.165,Experiment_English,3.2.4,Win32,60,,,1,0,340,162,1,339,ratio21_2_3_9.png,,,,,,,,,,,,
,,,,,,,,,,,,Many,Some,All,More than half,Most,Less than half,Few,None,Half,-0.005555556,0.006481481,1,0,0,QQQ5,,,,,,,,English,2020-07-02_03h00.57.165,Experiment_English,3.2.4,Win32,60,,,1,0,340,200,1,339,ratio31_3_4_4.png,,,,,,,,,,,,
,,,,,,,,,,,,Less than half,All,Half,Most,Few,More than half,Many,None,Some,0.137037037,0.262962963,1,0,0,QQQ4,,,,,,,,English,2020-07-02_03h00.57.165,Experiment_English,3.2.4,Win32,60,,,1,0,340,172,1,339,ratio21_8_12_6.png,,,,,,,,,,,,
,,,,,,,,,,,,Less than half,Most,Half,All,Some,Many,Few,None,More than half,0.558333333,-0.083333333,1,0,0,QQQ2,,,,,,,,English,2020-07-02_03h00.57.165,Experiment_English,3.2.4,Win32,60,,,1,0,340,262,1,339,ratio41_4_5_4.png,,,,,,,,,,,,
,,,,,,,,,,,,Many,More than half,Half,Less than half,All,Most,Few,Some,None,-0.068518519,-0.376851852,1,0,0,QQQ6,,,,,,,,English,2020-07-02_03h00.57.165,Experiment_English,3.2.4,Win32,60,,,1,0,340,284,1,339,ratio43_4_7_11.png,,,,,,,,,,,,
,,,,,,,,,,,,Half,More than half,Some,None,All,Many,Less than half,Few,Most,-0.455555556,-0.260185185,1,0,0,QQQ9,,,,,,,,English,2020-07-02_03h00.57.165,Experiment_English,3.2.4,Win32,60,,,1,0,340,295,1,339,ratio43_8_14_11.png,,,,,,,,,,,,
,,,,,,,,,,,,None,More than half,Few,All,Many,Most,Less than half,Some,Half,0.122222222,-0.284259259,1,0,0,QQQ6,,,,,,,,English,2020-07-02_03h00.57.165,Experiment_English,3.2.4,Win32,60,,,1,0,340,339,1,339,ratio91_18_20_19.png,,,,,,,,,,,,
,,,,,,,,,,,,Few,Some,Many,All,Less than half,None,Most,More than half,Half,-0.403703704,0.317592593,1,0,0,QQQ7,,,,,,,,English,2020-07-02_03h00.57.165,Experiment_English,3.2.4,Win32,60,,,1,0,340,274,1,339,ratio41_12_15_9.png,,,,,,,,,,,,
,,,,,,,,,,,,Half,Less than half,Few,Many,All,Most,More than half,Some,None,0.456481481,-0.201851852,1,0,0,QQQ3,,,,,,,,English,2020-07-02_03h00.57.165,Experiment_English,3.2.4,Win32,60,,,1,0,340,105,1,339,ratio14_2_10_1.png,,,,,,,,,,,,
,,,,,,,,,,,,Many,Some,None,All,Few,Less than half,Half,More than half,Most,0.415740741,-0.307407407,1,0,0,QQQ3,,,,,,,,English,2020-07-02_03h00.57.165,Experiment_English,3.2.4,Win32,60,,,1,0,340,60,1,339,ratio0Y_0_3_5.png,,,,,,,,,,,,
,,,,,,,,,,,,More than half,Most,Few,Less than half,Many,None,Some,All,Half,0.14537037,0.275,1,0,0,QQQ4,,,,,,,,English,2020-07-02_03h00.57.165,Experiment_English,3.2.4,Win32,60,,,1,0,340,28,1,339,ratio11_5_10_9.png,,,,,,,,,,,,
,,,,,,,,,,,,Many,All,None,More than half,Half,Most,Some,Few,Less than half,-0.534259259,-0.368518519,1,0,0,QQQ9,,,,,,,,English,2020-07-02_03h00.57.165,Experiment_English,3.2.4,Win32,60,,,1,0,340,24,1,339,ratio11_4_8_3.png,,,,,,,,,,,,
,,,,,,,,,,,,None,Half,Many,Few,All,Less than half,Most,Some,More than half,-0.431481481,0.02037037,1,0,0,QQQ8,,,,,,,,English,2020-07-02_03h00.57.165,Experiment_English,3.2.4,Win32,60,,,1,0,340,35,1,339,ratio11_8_16_10.png,,,,,,,,,,,,
,,,,,,,,,,,,Few,Some,Most,All,None,Less than half,More than half,Many,Half,0.509259259,0.011111111,1,0,0,QQQ2,,,,,,,,English,2020-07-02_03h00.57.165,Experiment_English,3.2.4,Win32,60,,,1,0,340,36,1,339,ratio11_9_18_1.png,0.355555556,-0.437037037,1,0,0,continue_button_pause,1,0,1,0,1,0
,,,,,,,,,,,,,,,,,,,,,,,,,,,,,,,,,,English,2020-07-02_03h00.57.165,Experiment_English,3.2.4,Win32,60,,,1,0,340,36,1,339,ratio11_9_18_1.png,,,,,,,,,,,,
,,,,,,,,,,,,Less than half,None,Some,More than half,Most,Many,Few,Half,All,0.475925926,-0.276851852,1,0,0,QQQ3,,,,,,,,English,2020-07-02_03h00.57.165,Experiment_English,3.2.4,Win32,60,,,1,0,340,31,1,339,ratio11_6_12_9.png,,,,,,,,,,,,
,,,,,,,,,,,,Half,All,Many,None,Less than half,Few,Most,More than half,Some,-0.057407407,-0.300925926,1,0,0,QQQ6,,,,,,,,English,2020-07-02_03h00.57.165,Experiment_English,3.2.4,Win32,60,,,1,0,340,106,1,339,ratio14_2_10_2.png,,,,,,,,,,,,
,,,,,,,,,,,,Some,Less than half,None,More than half,Many,All,Half,Few,Most,-0.560185185,-0.024074074,1,0,0,QQQ8,,,,,,,,English,2020-07-02_03h00.57.165,Experiment_English,3.2.4,Win32,60,,,1,0,340,109,1,339,ratio14_2_10_9.png,,,,,,,,,,,,
,,,,,,,,,,,,Few,Less than half,None,Some,Most,Half,More than half,All,Many,0.002777778,0.259259259,1,0,0,QQQ4,,,,,,,,English,2020-07-02_03h00.57.165,Experiment_English,3.2.4,Win32,60,,,1,0,340,173,1,339,ratio21_8_12_9.png,,,,,,,,,,,,
,,,,,,,,,,,,All,Few,Half,Some,None,Most,More than half,Many,Less than half,0.005555556,0.257407407,1,0,0,QQQ4,,,,,,,,English,2020-07-02_03h00.57.165,Experiment_English,3.2.4,Win32,60,,,1,0,340,166,1,339,ratio21_6_9_1.png,,,,,,,,,,,,
,,,,,,,,,,,,Few,More than half,Most,Half,None,Many,Less than half,Some,All,-0.503703704,-0.384259259,1,0,0,QQQ9,,,,,,,,English,2020-07-02_03h00.57.165,Experiment_English,3.2.4,Win32,60,,,1,0,340,40,1,339,ratioX0_3_3_5.png,,,,,,,,,,,,
,,,,,,,,,,,,Few,Less than half,Many,Some,None,Most,More than half,Half,All,0.091666667,-0.358333333,1,0,0,QQQ6,,,,,,,,English,2020-07-02_03h00.57.165,Experiment_English,3.2.4,Win32,60,,,1,0,340,301,1,339,ratio51_5_6_4.png,,,,,,,,,,,,
,,,,,,,,,,,,Few,Many,Less than half,None,More than half,All,Half,Some,Most,0.551851852,0.258333333,1,0,0,QQQ1,,,,,,,,English,2020-07-02_03h00.57.165,Experiment_English,3.2.4,Win32,60,,,1,0,340,81,1,339,ratio13_1_4_5.png,,,,,,,,,,,,
,,,,,,,,,,,,Few,Most,All,Half,Some,More than half,Less than half,None,Many,0.549074074,0.256481481,1,0,0,QQQ1,,,,,,,,English,2020-07-02_03h00.57.165,Experiment_English,3.2.4,Win32,60,,,1,0,340,249,1,339,ratio34_3_7_20.png,,,,,,,,,,,,
,,,,,,,,,,,,Half,Less than half,Most,Some,All,More than half,Few,Many,None,-0.561111111,0.381481481,1,0,0,QQQ7,,,,,,,,English,2020-07-02_03h00.57.165,Experiment_English,3.2.4,Win32,60,,,1,0,340,125,1,339,ratio15_1_6_19.png,,,,,,,,,,,,
,,,,,,,,,,,,All,Few,Most,More than half,Many,Less than half,Half,None,Some,-0.578703704,0.328703704,1,0,0,QQQ7,,,,,,,,English,2020-07-02_03h00.57.165,Experiment_English,3.2.4,Win32,60,,,1,0,340,23,1,339,ratio11_3_6_9.png,,,,,,,,,,,,
,,,,,,,,,,,,Less than half,Some,None,Few,All,More than half,Many,Half,Most,-0.543518519,-0.352777778,1,0,0,QQQ9,,,,,,,,English,2020-07-02_03h00.57.165,Experiment_English,3.2.4,Win32,60,,,1,0,340,214,1,339,ratio31_12_16_5.png,,,,,,,,,,,,
,,,,,,,,,,,,All,Most,Few,Many,None,Some,Less than half,More than half,Half,0.514814815,-0.308333333,1,0,0,QQQ3,,,,,,,,English,2020-07-02_03h00.57.165,Experiment_English,3.2.4,Win32,60,,,1,0,340,149,1,339,ratio19_1_10_20.png,,,,,,,,,,,,
,,,,,,,,,,,,Some,Many,Most,Few,Less than half,Half,None,All,More than half,0.5,-0.336111111,1,0,0,QQQ3,,,,,,,,English,2020-07-02_03h00.57.165,Experiment_English,3.2.4,Win32,60,,,1,0,340,34,1,339,ratio11_8_16_8.png,,,,,,,,,,,,
,,,,,,,,,,,,All,Few,None,More than half,Half,Some,Less than half,Most,Many,0.635185185,0.025,1,0,0,QQQ2,,,,,,,,English,2020-07-02_03h00.57.165,Experiment_English,3.2.4,Win32,60,,,1,0,340,156,1,339,ratio19_2_20_14.png,,,,,,,,,,,,
,,,,,,,,,,,,More than half,Most,All,Less than half,Many,Some,Half,Few,None,-0.578703704,0.025925926,1,0,0,QQQ8,,,,,,,,English,2020-07-02_03h00.57.165,Experiment_English,3.2.4,Win32,60,,,1,0,340,98,1,339,ratio13_5_20_3.png,,,,,,,,,,,,
,,,,,,,,,,,,Few,Most,None,All,Less than half,More than half,Some,Half,Many,0.612962963,-0.032407407,1,0,0,QQQ2,,,,,,,,English,2020-07-02_03h00.57.165,Experiment_English,3.2.4,Win32,60,,,1,0,340,213,1,339,ratio31_12_16_2.png,,,,,,,,,,,,
,,,,,,,,,,,,Most,Few,More than half,Less than half,Many,None,Some,Half,All,0.538888889,0.239814815,1,0,0,QQQ1,,,,,,,,English,2020-07-02_03h00.57.165,Experiment_English,3.2.4,Win32,60,,,1,0,340,228,1,339,ratio32_6_10_7.png,,,,,,,,,,,,
,,,,,,,,,,,,All,Some,Few,More than half,Half,None,Most,Many,Less than half,0.62037037,-0.29537037,1,0,0,QQQ3,,,,,,,,English,2020-07-02_03h00.57.165,Experiment_English,3.2.4,Win32,60,,,1,0,340,111,1,339,ratio14_3_15_3.png,,,,,,,,,,,,
,,,,,,,,,,,,Half,All,Many,Few,None,Less than half,More than half,Some,Most,-0.57962963,0.059259259,1,0,0,QQQ8,,,,,,,,English,2020-07-02_03h00.57.165,Experiment_English,3.2.4,Win32,60,,,1,0,340,313,1,339,ratio51_15_18_2.png,,,,,,,,,,,,
,,,,,,,,,,,,Most,Many,Few,More than half,All,None,Half,Less than half,Some,-0.611111111,-0.287962963,1,0,0,QQQ9,,,,,,,,English,2020-07-02_03h00.57.165,Experiment_English,3.2.4,Win32,60,,,1,0,340,70,1,339,ratio0Y_0_12_5.png,,,,,,,,,,,,
,,,,,,,,,,,,More than half,Most,Less than half,Few,Some,Half,All,Many,None,0.144444444,-0.048148148,1,0,0,QQQ5,,,,,,,,English,2020-07-02_03h00.57.165,Experiment_English,3.2.4,Win32,60,,,1,0,340,190,1,339,ratio23_6_15_3.png,,,,,,,,,,,,
,,,,,,,,,,,,Less than half,Some,Most,All,None,Half,Many,Few,More than half,0.54537037,-0.375,1,0,0,QQQ3,,,,,,,,English,2020-07-02_03h00.57.165,Experiment_English,3.2.4,Win32,60,,,1,0,340,289,1,339,ratio43_4_7_20.png,,,,,,,,,,,,
,,,,,,,,,,,,Few,Less than half,Some,Many,More than half,Most,Half,All,None,-0.053703704,-0.363888889,1,0,0,QQQ6,,,,,,,,English,2020-07-02_03h00.57.165,Experiment_English,3.2.4,Win32,60,,,1,0,340,270,1,339,ratio41_12_15_3.png,,,,,,,,,,,,
,,,,,,,,,,,,None,More than half,Some,Many,Few,Most,Half,All,Less than half,-0.053703704,-0.363888889,1,0,0,QQQ6,,,,,,,,English,2020-07-02_03h00.57.165,Experiment_English,3.2.4,Win32,60,,,1,0,340,307,1,339,ratio51_10_12_1.png,,,,,,,,,,,,
,,,,,,,,,,,,Most,None,Half,Some,Many,Less than half,All,Few,More than half,0.512962963,0.023148148,1,0,0,QQQ2,,,,,,,,English,2020-07-02_03h00.57.165,Experiment_English,3.2.4,Win32,60,,,1,0,340,61,1,339,ratio0Y_0_4_7.png,,,,,,,,,,,,
,,,,,,,,,,,,Most,Some,None,Less than half,Many,More than half,Half,All,Few,0.42037037,-0.251851852,1,0,0,QQQ3,,,,,,,,English,2020-07-02_03h00.57.165,Experiment_English,3.2.4,Win32,60,,,1,0,340,75,1,339,ratio0Y_0_16_10.png,,,,,,,,,,,,
,,,,,,,,,,,,Most,Few,Some,Half,Less than half,More than half,Many,None,All,0.02037037,-0.356481481,1,0,0,QQQ6,,,,,,,,English,2020-07-02_03h00.57.165,Experiment_English,3.2.4,Win32,60,,,1,0,340,293,1,339,ratio43_8_14_7.png,,,,,,,,,,,,
,,,,,,,,,,,,Half,All,Less than half,Some,More than half,Many,Most,None,Few,-0.051851852,0.291666667,1,0,0,QQQ4,,,,,,,,English,2020-07-02_03h00.57.165,Experiment_English,3.2.4,Win32,60,,,1,0,340,321,1,339,ratio91_9_10_2.png,,,,,,,,,,,,
,,,,,,,,,,,,Many,Few,Less than half,All,Most,More than half,None,Some,Half,0.581481481,-0.019444444,1,0,0,QQQ2,,,,,,,,English,2020-07-02_03h00.57.165,Experiment_English,3.2.4,Win32,60,,,1,0,340,86,1,339,ratio13_2_8_6.png,,,,,,,,,,,,
,,,,,,,,,,,,All,Many,None,Few,Half,Less than half,Most,More than half,Some,0.022222222,0.216666667,1,0,0,QQQ4,,,,,,,,English,2020-07-02_03h00.57.165,Experiment_English,3.2.4,Win32,60,,,1,0,340,133,1,339,ratio15_3_18_3.png,,,,,,,,,,,,
,,,,,,,,,,,,Less than half,Some,All,Most,Half,None,Many,More than half,Few,0.503703704,0.077777778,1,0,0,QQQ2,,,,,,,,English,2020-07-02_03h00.57.165,Experiment_English,3.2.4,Win32,60,,,1,0,340,195,1,339,ratio23_8_20_1.png,,,,,,,,,,,,
,,,,,,,,,,,,Few,Many,More than half,None,All,Some,Half,Less than half,Most,-0.622222222,-0.305555556,1,0,0,QQQ9,,,,,,,,English,2020-07-02_03h00.57.165,Experiment_English,3.2.4,Win32,60,,,1,0,340,273,1,339,ratio41_12_15_8.png,,,,,,,,,,,,
,,,,,,,,,,,,Half,Most,None,Some,Less than half,Few,Many,More than half,All,0.499074074,-0.036111111,1,0,0,QQQ2,,,,,,,,English,2020-07-02_03h00.57.165,Experiment_English,3.2.4,Win32,60,,,1,0,340,203,1,339,ratio31_3_4_9.png,,,,,,,,,,,,
