continue_mouse.x,continue_mouse.y,continue_mouse.leftButton,continue_mouse.midButton,continue_mouse.rightButton,continue_mouse.clicked_name,continue_mouse_2.x,continue_mouse_2.y,continue_mouse_2.leftButton,continue_mouse_2.midButton,continue_mouse_2.rightButton,continue_mouse_2.clicked_name,Q1,Q2,Q3,Q4,Q5,Q6,Q7,Q8,Q9,select_answer.x,select_answer.y,select_answer.leftButton,select_answer.midButton,select_answer.rightButton,select_answer.clicked_name,trial.thisRepN,trial.thisTrialN,trial.thisN,trial.thisIndex,trial.ran,trial.order,trials,Native tongue*,date,expName,psychopyVersion,OS,frameRate,key_resp.keys,key_resp.rt,trial_2.thisRepN,trial_2.thisTrialN,trial_2.thisN,trial_2.thisIndex,trial_2.ran,trial_2.order,continue_mouse_3.x,continue_mouse_3.y,continue_mouse_3.leftButton,continue_mouse_3.midButton,continue_mouse_3.rightButton,continue_mouse_3.clicked_name,insts.thisRepN,insts.thisTrialN,insts.thisN,insts.thisIndex,insts.ran,insts.order,Actual_Experiment.thisRepN,Actual_Experiment.thisTrialN,Actual_Experiment.thisN,Actual_Experiment.thisIndex,Actual_Experiment.ran,Actual_Experiment.order,Pic,mouse_pause.x,mouse_pause.y,mouse_pause.leftButton,mouse_pause.midButton,mouse_pause.rightButton,mouse_pause.clicked_name,pause.thisRepN,pause.thisTrialN,pause.thisN,pause.thisIndex,pause.ran,pause.order
0.301171875,-0.421453993,1,0,0,continue_button,0.329622396,-0.448237847,1,0,0,continue_button_2,More than half,None,Many,Most,Few,Half,Less than half,All,Some,0.006679687,0.272274306,1,0,0,QQQ4,1,0,16,15,1,15,ratio0Y_0_14_10.png,English,2020-06-16_15h34.09.477,Experiment_English,3.2.4,MacIntel,60,,,,,,,,,,,,,,,,,,,,,,,,,,,,,,,,,,,,,,,
,,,,,,,,,,,,Most,Many,More than half,Few,Half,All,Less than half,None,Some,-0.000737847,0.239279514,1,0,0,QQQ4,1,0,16,7,1,15,ratio23_2_5_8.png,English,2020-06-16_15h34.09.477,Experiment_English,3.2.4,MacIntel,60,,,,,,,,,,,,,,,,,,,,,,,,,,,,,,,,,,,,,,,
,,,,,,,,,,,,All,Less than half,More than half,Many,Few,Half,None,Most,Some,0.011111111,-0.293658854,1,0,0,QQQ6,1,0,16,2,1,15,ratio43_8_14_19.png,English,2020-06-16_15h34.09.477,Experiment_English,3.2.4,MacIntel,60,,,,,,,,,,,,,,,,,,,,,,,,,,,,,,,,,,,,,,,
,,,,,,,,,,,,Half,Most,More than half,Some,Less than half,None,All,Many,Few,0.42234375,-0.309769965,1,0,0,QQQ3,1,0,16,4,1,15,ratio34_3_7_3.png,English,2020-06-16_15h34.09.477,Experiment_English,3.2.4,MacIntel,60,,,,,,,,,,,,,,,,,,,,,,,,,,,,,,,,,,,,,,,
,,,,,,,,,,,,Many,All,More than half,Half,Few,None,Most,Some,Less than half,0.016605903,-0.050203993,1,0,0,QQQ5,1,0,16,9,1,15,ratio19_1_10_8.png,English,2020-06-16_15h34.09.477,Experiment_English,3.2.4,MacIntel,60,,,,,,,,,,,,,,,,,,,,,,,,,,,,,,,,,,,,,,,
,,,,,,,,,,,,Most,Half,None,Few,All,Many,More than half,Some,Less than half,-0.00296441,0.301341146,1,0,0,QQQ4,,,,,,,ratio34_3_7_3.png,English,2020-06-16_15h34.09.477,Experiment_English,3.2.4,MacIntel,60,a,4.59800005,1,0,16,4,1,15,,,,,,,,,,,,,,,,,,,,,,,,,,,,,,,
,,,,,,,,,,,,More than half,Some,Few,Many,Most,None,All,Less than half,Half,0.027738715,0.012534722,1,0,0,QQQ5,,,,,,,ratio91_9_10_19.png,English,2020-06-16_15h34.09.477,Experiment_English,3.2.4,MacIntel,60,,,1,0,16,0,1,15,,,,,,,,,,,,,,,,,,,,,,,,,,,,,,,
,,,,,,,,,,,,Few,Half,None,Less than half,Most,All,Some,Many,More than half,-0.387404514,-0.289565972,1,0,0,QQQ9,,,,,,,ratio43_8_14_19.png,English,2020-06-16_15h34.09.477,Experiment_English,3.2.4,MacIntel,60,,,1,0,16,2,1,15,,,,,,,,,,,,,,,,,,,,,,,,,,,,,,,
,,,,,,,,,,,,None,More than half,Less than half,All,Some,Half,Most,Few,Many,-0.547864583,-0.013198785,1,0,0,QQQ8,,,,,,,ratio14_1_5_7.png,English,2020-06-16_15h34.09.477,Experiment_English,3.2.4,MacIntel,60,,,1,0,16,11,1,15,,,,,,,,,,,,,,,,,,,,,,,,,,,,,,,
,,,,,,,,,,,,Less than half,All,Most,Some,Half,Many,More than half,None,Few,-0.424748264,0.030195313,1,0,0,QQQ8,,,,,,,ratio0Y_0_14_10.png,English,2020-06-16_15h34.09.477,Experiment_English,3.2.4,MacIntel,60,,,1,0,16,15,1,15,,,,,,,,,,,,,,,,,,,,,,,,,,,,,,,
,,,,,,,,,,,,,,,,,,,,,,,,,,,,,,,,,,English,2020-06-16_15h34.09.477,Experiment_English,3.2.4,MacIntel,60,,,,,,,,,0.372630208,-0.389904514,1,0,0,continue_button_3,1,0,1,0,1,0,,,,,,,,,,,,,,,,,,,
,,,,,,,,,,,,Most,Less than half,Half,Few,More than half,None,All,Some,Many,-0.445607639,-0.275646701,1,0,0,QQQ9,,,,,,,,English,2020-06-16_15h34.09.477,Experiment_English,3.2.4,MacIntel,60,,,,,,,,,,,,,,,,,,,,,1,0,340,275,1,339,ratio41_16_20_2.png,,,,,,,,,,,,
,,,,,,,,,,,,Some,Less than half,Few,More than half,Half,All,Most,Many,None,0.478289931,-0.292387153,1,0,0,QQQ3,,,,,,,,English,2020-06-16_15h34.09.477,Experiment_English,3.2.4,MacIntel,60,,,,,,,,,,,,,,,,,,,,,1,0,340,119,1,339,ratio14_4_20_10.png,,,,,,,,,,,,
,,,,,,,,,,,,Most,Half,Many,Few,None,Less than half,More than half,Some,All,-0.421284722,-0.003854167,1,0,0,QQQ8,,,,,,,,English,2020-06-16_15h34.09.477,Experiment_English,3.2.4,MacIntel,60,,,,,,,,,,,,,,,,,,,,,1,0,340,117,1,339,ratio14_4_20_6.png,,,,,,,,,,,,
,,,,,,,,,,,,Most,None,Some,More than half,Few,All,Half,Many,Less than half,0.002552083,0.232335069,1,0,0,QQQ4,,,,,,,,English,2020-06-16_15h34.09.477,Experiment_English,3.2.4,MacIntel,60,,,,,,,,,,,,,,,,,,,,,1,0,340,290,1,339,ratio43_8_14_3.png,,,,,,,,,,,,
,,,,,,,,,,,,More than half,Half,Some,None,Many,Less than half,Few,All,Most,-0.462894965,0.291306424,1,0,0,QQQ7,,,,,,,,English,2020-06-16_15h34.09.477,Experiment_English,3.2.4,MacIntel,60,,,,,,,,,,,,,,,,,,,,,1,0,340,157,1,339,ratio19_2_20_16.png,,,,,,,,,,,,
,,,,,,,,,,,,Many,Half,Some,Few,None,Less than half,Most,More than half,All,-0.441762153,-0.037717014,1,0,0,QQQ8,,,,,,,,English,2020-06-16_15h34.09.477,Experiment_English,3.2.4,MacIntel,60,,,,,,,,,,,,,,,,,,,,,1,0,340,33,1,339,ratio11_7_14_8.png,,,,,,,,,,,,
,,,,,,,,,,,,All,None,More than half,Few,Many,Half,Some,Less than half,Most,0.506675347,0.255568576,1,0,0,QQQ1,,,,,,,,English,2020-06-16_15h34.09.477,Experiment_English,3.2.4,MacIntel,60,,,,,,,,,,,,,,,,,,,,,1,0,340,45,1,339,ratioX0_8_8_3.png,,,,,,,,,,,,
,,,,,,,,,,,,Most,Some,All,Many,Less than half,Half,None,Few,More than half,0.086519097,-0.05484375,1,0,0,QQQ5,,,,,,,,English,2020-06-16_15h34.09.477,Experiment_English,3.2.4,MacIntel,60,,,,,,,,,,,,,,,,,,,,,1,0,340,242,1,339,ratio34_3_7_6.png,,,,,,,,,,,,
,,,,,,,,,,,,Less than half,All,Half,Some,Most,More than half,Many,None,Few,0.396579861,-0.336749132,1,0,0,QQQ3,,,,,,,,English,2020-06-16_15h34.09.477,Experiment_English,3.2.4,MacIntel,60,,,,,,,,,,,,,,,,,,,,,1,0,340,31,1,339,ratio11_6_12_9.png,,,,,,,,,,,,
,,,,,,,,,,,,Many,None,Some,Most,More than half,Half,Few,Less than half,All,0.06609375,-0.344144965,1,0,0,QQQ6,,,,,,,,English,2020-06-16_15h34.09.477,Experiment_English,3.2.4,MacIntel,60,,,,,,,,,,,,,,,,,,,,,1,0,340,197,1,339,ratio23_8_20_6.png,,,,,,,,,,,,
,,,,,,,,,,,,Most,Many,Some,Few,More than half,None,All,Half,Less than half,0.053806424,-0.040872396,1,0,0,QQQ5,,,,,,,,English,2020-06-16_15h34.09.477,Experiment_English,3.2.4,MacIntel,60,,,,,,,,,,,,,,,,,,,,,1,0,340,297,1,339,ratio43_8_14_13.png,,,,,,,,,,,,
,,,,,,,,,,,,None,Many,Half,Few,Some,Most,Less than half,All,More than half,0.035607639,-0.286688368,1,0,0,QQQ6,,,,,,,,English,2020-06-16_15h34.09.477,Experiment_English,3.2.4,MacIntel,60,,,,,,,,,,,,,,,,,,,,,1,0,340,160,1,339,ratio21_2_3_2.png,,,,,,,,,,,,
,,,,,,,,,,,,All,Most,Few,None,Many,Half,More than half,Less than half,Some,0.515021701,-0.040399306,1,0,0,QQQ2,,,,,,,,English,2020-06-16_15h34.09.477,Experiment_English,3.2.4,MacIntel,60,,,,,,,,,,,,,,,,,,,,,1,0,340,216,1,339,ratio31_15_20_3.png,,,,,,,,,,,,
,,,,,,,,,,,,Most,Some,Half,More than half,Many,All,None,Less than half,Few,0.437209201,-0.291679688,1,0,0,QQQ3,,,,,,,,English,2020-06-16_15h34.09.477,Experiment_English,3.2.4,MacIntel,60,,,,,,,,,,,,,,,,,,,,,1,0,340,22,1,339,ratio11_3_6_6.png,,,,,,,,,,,,
,,,,,,,,,,,,Less than half,Half,Some,Most,More than half,Many,All,Few,None,-0.446835938,-0.019670139,1,0,0,QQQ8,,,,,,,,English,2020-06-16_15h34.09.477,Experiment_English,3.2.4,MacIntel,60,,,,,,,,,,,,,,,,,,,,,1,0,340,116,1,339,ratio14_4_20_3.png,,,,,,,,,,,,
,,,,,,,,,,,,None,Half,More than half,Many,Less than half,Some,Few,All,Most,-0.373467882,-0.283025174,1,0,0,QQQ9,,,,,,,,English,2020-06-16_15h34.09.477,Experiment_English,3.2.4,MacIntel,60,,,,,,,,,,,,,,,,,,,,,1,0,340,302,1,339,ratio51_5_6_5.png,,,,,,,,,,,,
,,,,,,,,,,,,None,Less than half,Many,Some,Few,More than half,All,Most,Half,-0.47187066,0.258033854,1,0,0,QQQ7,,,,,,,,English,2020-06-16_15h34.09.477,Experiment_English,3.2.4,MacIntel,60,,,,,,,,,,,,,,,,,,,,,1,0,340,50,1,339,ratioX0_12_12_3.png,,,,,,,,,,,,
,,,,,,,,,,,,Most,All,Many,None,More than half,Less than half,Few,Some,Half,0.531137153,0.283020833,1,0,0,QQQ1,,,,,,,,English,2020-06-16_15h34.09.477,Experiment_English,3.2.4,MacIntel,60,,,,,,,,,,,,,,,,,,,,,1,0,340,209,1,339,ratio31_9_12_6.png,,,,,,,,,,,,
,,,,,,,,,,,,Few,More than half,None,Half,Some,Most,Many,Less than half,All,0.468311632,0.25750434,1,0,0,QQQ1,,,,,,,,English,2020-06-16_15h34.09.477,Experiment_English,3.2.4,MacIntel,60,,,,,,,,,,,,,,,,,,,,,1,0,340,130,1,339,ratio15_2_12_12.png,,,,,,,,,,,,
,,,,,,,,,,,,More than half,All,Most,Half,Less than half,Some,Few,Many,None,0.468311632,0.25750434,1,0,0,QQQ1,,,,,,,,English,2020-06-16_15h34.09.477,Experiment_English,3.2.4,MacIntel,60,,,,,,,,,,,,,,,,,,,,,1,0,340,291,1,339,ratio43_8_14_5.png,,,,,,,,,,,,
,,,,,,,,,,,,Some,All,Less than half,Most,More than half,Half,None,Few,Many,-0.024253472,0.203650174,1,0,0,QQQ4,,,,,,,,English,2020-06-16_15h34.09.477,Experiment_English,3.2.4,MacIntel,60,,,,,,,,,,,,,,,,,,,,,1,0,340,266,1,339,ratio41_8_10_2.png,,,,,,,,,,,,
,,,,,,,,,,,,Many,Few,Most,Some,None,Less than half,Half,More than half,All,0.47203559,-0.07280816,1,0,0,QQQ2,,,,,,,,English,2020-06-16_15h34.09.477,Experiment_English,3.2.4,MacIntel,60,,,,,,,,,,,,,,,,,,,,,1,0,340,118,1,339,ratio14_4_20_8.png,,,,,,,,,,,,
,,,,,,,,,,,,Less than half,More than half,Many,Half,Some,Few,None,Most,All,0.064648438,-0.354253472,1,0,0,QQQ6,,,,,,,,English,2020-06-16_15h34.09.477,Experiment_English,3.2.4,MacIntel,60,,,,,,,,,,,,,,,,,,,,,1,0,340,135,1,339,ratio15_3_18_7.png,,,,,,,,,,,,
,,,,,,,,,,,,Most,Some,Less than half,None,Few,All,Half,Many,More than half,-0.058472222,-0.041840278,1,0,0,QQQ5,,,,,,,,English,2020-06-16_15h34.09.477,Experiment_English,3.2.4,MacIntel,60,,,,,,,,,,,,,,,,,,,,,1,0,340,133,1,339,ratio15_3_18_3.png,,,,,,,,,,,,
,,,,,,,,,,,,More than half,Most,None,Less than half,All,Few,Many,Some,Half,-0.042795139,-0.289570312,1,0,0,QQQ6,,,,,,,,English,2020-06-16_15h34.09.477,Experiment_English,3.2.4,MacIntel,60,,,,,,,,,,,,,,,,,,,,,1,0,340,0,1,339,ratio12_1_3_3.png,,,,,,,,,,,,
,,,,,,,,,,,,Few,Many,None,Most,Half,More than half,All,Some,Less than half,0.48796441,-0.046679687,1,0,0,QQQ2,,,,,,,,English,2020-06-16_15h34.09.477,Experiment_English,3.2.4,MacIntel,60,,,,,,,,,,,,,,,,,,,,,1,0,340,315,1,339,ratio51_15_18_10.png,,,,,,,,,,,,
,,,,,,,,,,,,Less than half,Many,Half,More than half,Most,None,Few,All,Some,-0.482782118,-0.030247396,1,0,0,QQQ8,,,,,,,,English,2020-06-16_15h34.09.477,Experiment_English,3.2.4,MacIntel,60,,,,,,,,,,,,,,,,,,,,,1,0,340,51,1,339,ratioX0_12_12_9.png,,,,,,,,,,,,
,,,,,,,,,,,,Less than half,Half,Some,None,Most,Few,Many,All,More than half,-0.452013889,0.267074653,1,0,0,QQQ7,,,,,,,,English,2020-06-16_15h34.09.477,Experiment_English,3.2.4,MacIntel,60,,,,,,,,,,,,,,,,,,,,,1,0,340,316,1,339,ratio51_15_18_11.png,,,,,,,,,,,,
,,,,,,,,,,,,Less than half,Few,More than half,None,Some,Many,Half,All,Most,-0.427786458,-0.276219618,1,0,0,QQQ9,,,,,,,,English,2020-06-16_15h34.09.477,Experiment_English,3.2.4,MacIntel,60,,,,,,,,,,,,,,,,,,,,,1,0,340,175,1,339,ratio21_10_15_2.png,,,,,,,,,,,,
,,,,,,,,,,,,Few,Many,All,None,Some,Half,More than half,Most,Less than half,-0.466276042,-0.072296007,1,0,0,QQQ8,,,,,,,,English,2020-06-16_15h34.09.477,Experiment_English,3.2.4,MacIntel,60,,,,,,,,,,,,,,,,,,,,,1,0,340,318,1,339,ratio51_15_18_18.png,,,,,,,,,,,,
,,,,,,,,,,,,Most,Half,More than half,Less than half,All,Some,Many,None,Few,-0.529765625,-0.342986111,1,0,0,QQQ9,,,,,,,,English,2020-06-16_15h34.09.477,Experiment_English,3.2.4,MacIntel,60,,,,,,,,,,,,,,,,,,,,,1,0,340,8,1,339,ratio12_3_9_4.png,,,,,,,,,,,,
,,,,,,,,,,,,Less than half,More than half,Many,Half,Most,Few,None,Some,All,-0.522916667,-0.346601563,1,0,0,QQQ9,,,,,,,,English,2020-06-16_15h34.09.477,Experiment_English,3.2.4,MacIntel,60,,,,,,,,,,,,,,,,,,,,,1,0,340,56,1,339,ratioX0_17_17_10.png,,,,,,,,,,,,
,,,,,,,,,,,,Half,More than half,Most,Few,All,None,Many,Less than half,Some,-0.07375,0.261514757,1,0,0,QQQ4,,,,,,,,English,2020-06-16_15h34.09.477,Experiment_English,3.2.4,MacIntel,60,,,,,,,,,,,,,,,,,,,,,1,0,340,140,1,339,ratio19_1_10_1.png,,,,,,,,,,,,
,,,,,,,,,,,,Less than half,Many,Some,More than half,All,Few,None,Most,Half,0.527790799,0.240711806,1,0,0,QQQ1,,,,,,,,English,2020-06-16_15h34.09.477,Experiment_English,3.2.4,MacIntel,60,,,,,,,,,,,,,,,,,,,,,1,0,340,283,1,339,ratio43_4_7_8.png,0.305681424,-0.402217882,1,0,0,continue_button_pause,1,0,1,0,1,0
,,,,,,,,,,,,,,,,,,,,,,,,,,,,,,,,,,English,2020-06-16_15h34.09.477,Experiment_English,3.2.4,MacIntel,60,,,,,,,,,,,,,,,,,,,,,1,0,340,283,1,339,ratio43_4_7_8.png,,,,,,,,,,,,
,,,,,,,,,,,,Half,Many,None,Less than half,Some,All,Most,Few,More than half,-0.411948785,-0.049157986,1,0,0,QQQ8,,,,,,,,English,2020-06-16_15h34.09.477,Experiment_English,3.2.4,MacIntel,60,,,,,,,,,,,,,,,,,,,,,1,0,340,85,1,339,ratio13_2_8_5.png,,,,,,,,,,,,
,,,,,,,,,,,,Most,Few,Many,None,Some,All,Less than half,More than half,Half,0.493515625,-0.048042535,1,0,0,QQQ2,,,,,,,,English,2020-06-16_15h34.09.477,Experiment_English,3.2.4,MacIntel,60,,,,,,,,,,,,,,,,,,,,,1,0,340,109,1,339,ratio14_2_10_9.png,,,,,,,,,,,,
,,,,,,,,,,,,Half,Some,More than half,All,Few,Many,Less than half,None,Most,0.038359375,0.026210937,1,0,0,QQQ5,,,,,,,,English,2020-06-16_15h34.09.477,Experiment_English,3.2.4,MacIntel,60,,,,,,,,,,,,,,,,,,,,,1,0,340,123,1,339,ratio15_1_6_12.png,,,,,,,,,,,,
,,,,,,,,,,,,Many,Some,Few,All,More than half,None,Half,Less than half,Most,-0.487230903,-0.312513021,1,0,0,QQQ9,,,,,,,,English,2020-06-16_15h34.09.477,Experiment_English,3.2.4,MacIntel,60,,,,,,,,,,,,,,,,,,,,,1,0,340,317,1,339,ratio51_15_18_13.png,,,,,,,,,,,,
,,,,,,,,,,,,Half,Few,Many,Most,None,Less than half,More than half,All,Some,-0.458224826,0.263606771,1,0,0,QQQ7,,,,,,,,English,2020-06-16_15h34.09.477,Experiment_English,3.2.4,MacIntel,60,,,,,,,,,,,,,,,,,,,,,1,0,340,225,1,339,ratio32_6_10_4.png,,,,,,,,,,,,
,,,,,,,,,,,,Less than half,Some,None,All,Half,Most,More than half,Few,Many,0.530277778,-0.266523438,1,0,0,QQQ3,,,,,,,,English,2020-06-16_15h34.09.477,Experiment_English,3.2.4,MacIntel,60,,,,,,,,,,,,,,,,,,,,,1,0,340,71,1,339,ratio0Y_0_12_10.png,,,,,,,,,,,,
,,,,,,,,,,,,All,More than half,Most,Many,Some,Few,Half,None,Less than half,-0.029635417,0.325,1,0,0,QQQ4,,,,,,,,English,2020-06-16_15h34.09.477,Experiment_English,3.2.4,MacIntel,60,,,,,,,,,,,,,,,,,,,,,1,0,340,166,1,339,ratio21_6_9_1.png,,,,,,,,,,,,
,,,,,,,,,,,,Most,Few,Less than half,Some,More than half,None,Many,All,Half,0.54296441,0.231527778,1,0,0,QQQ1,,,,,,,,English,2020-06-16_15h34.09.477,Experiment_English,3.2.4,MacIntel,60,,,,,,,,,,,,,,,,,,,,,1,0,340,169,1,339,ratio21_6_9_7.png,,,,,,,,,,,,
,,,,,,,,,,,,None,Less than half,All,Most,Few,More than half,Some,Half,Many,-0.034431424,-0.064956597,1,0,0,QQQ5,,,,,,,,English,2020-06-16_15h34.09.477,Experiment_English,3.2.4,MacIntel,60,,,,,,,,,,,,,,,,,,,,,1,0,340,88,1,339,ratio13_3_12_5.png,,,,,,,,,,,,
,,,,,,,,,,,,Few,All,More than half,Some,Half,None,Most,Many,Less than half,0.529648438,-0.050946181,1,0,0,QQQ2,,,,,,,,English,2020-06-16_15h34.09.477,Experiment_English,3.2.4,MacIntel,60,,,,,,,,,,,,,,,,,,,,,1,0,340,48,1,339,ratioX0_10_10_1.png,,,,,,,,,,,,
,,,,,,,,,,,,Some,All,More than half,Most,Half,Many,None,Less than half,Few,-0.095269097,-0.033420139,1,0,0,QQQ5,,,,,,,,English,2020-06-16_15h34.09.477,Experiment_English,3.2.4,MacIntel,60,,,,,,,,,,,,,,,,,,,,,1,0,340,252,1,339,ratio34_6_14_3.png,,,,,,,,,,,,
,,,,,,,,,,,,Half,All,More than half,Few,Less than half,Many,None,Most,Some,-0.464270833,0.367174479,1,0,0,QQQ7,,,,,,,,English,2020-06-16_15h34.09.477,Experiment_English,3.2.4,MacIntel,60,,,,,,,,,,,,,,,,,,,,,1,0,340,76,1,339,ratio0Y_0_17_10.png,,,,,,,,,,,,
,,,,,,,,,,,,More than half,Most,Few,Less than half,Many,All,Half,None,Some,-0.447790799,-0.003671875,1,0,0,QQQ8,,,,,,,,English,2020-06-16_15h34.09.477,Experiment_English,3.2.4,MacIntel,60,,,,,,,,,,,,,,,,,,,,,1,0,340,74,1,339,ratio0Y_0_15_10.png,,,,,,,,,,,,
,,,,,,,,,,,,Most,Many,None,More than half,Few,Half,All,Some,Less than half,-0.020837674,0.218702257,1,0,0,QQQ4,,,,,,,,English,2020-06-16_15h34.09.477,Experiment_English,3.2.4,MacIntel,60,,,,,,,,,,,,,,,,,,,,,1,0,340,233,1,339,ratio32_9_15_9.png,,,,,,,,,,,,
,,,,,,,,,,,,None,Most,Few,Less than half,All,More than half,Many,Some,Half,0.027569444,0.234179688,1,0,0,QQQ4,,,,,,,,English,2020-06-16_15h34.09.477,Experiment_English,3.2.4,MacIntel,60,,,,,,,,,,,,,,,,,,,,,1,0,340,190,1,339,ratio23_6_15_3.png,,,,,,,,,,,,
,,,,,,,,,,,,Many,Some,More than half,Less than half,None,Half,All,Few,Most,-0.434796007,-0.287734375,1,0,0,QQQ9,,,,,,,,English,2020-06-16_15h34.09.477,Experiment_English,3.2.4,MacIntel,60,,,,,,,,,,,,,,,,,,,,,1,0,340,200,1,339,ratio31_3_4_4.png,,,,,,,,,,,,
,,,,,,,,,,,,More than half,Few,Less than half,Some,Most,Half,All,Many,None,-0.535390625,0.267664931,1,0,0,QQQ7,,,,,,,,English,2020-06-16_15h34.09.477,Experiment_English,3.2.4,MacIntel,60,,,,,,,,,,,,,,,,,,,,,1,0,340,57,1,339,ratioX0_18_18_1.png,,,,,,,,,,,,
,,,,,,,,,,,,All,Less than half,None,Half,More than half,Few,Some,Many,Most,0.045642361,0.001705729,1,0,0,QQQ5,,,,,,,,English,2020-06-16_15h34.09.477,Experiment_English,3.2.4,MacIntel,60,,,,,,,,,,,,,,,,,,,,,1,0,340,237,1,339,ratio32_12_20_5.png,,,,,,,,,,,,
,,,,,,,,,,,,All,Few,Many,Most,More than half,Half,None,Less than half,Some,0.379418403,-0.014583333,1,0,0,QQQ2,,,,,,,,English,2020-06-16_15h34.09.477,Experiment_English,3.2.4,MacIntel,60,,,,,,,,,,,,,,,,,,,,,1,0,340,100,1,339,ratio14_1_5_3.png,,,,,,,,,,,,
,,,,,,,,,,,,Less than half,Most,More than half,None,Some,Many,All,Half,Few,-0.471692708,-0.039084201,1,0,0,QQQ8,,,,,,,,English,2020-06-16_15h34.09.477,Experiment_English,3.2.4,MacIntel,60,,,,,,,,,,,,,,,,,,,,,1,0,340,29,1,339,ratio11_6_12_1.png,,,,,,,,,,,,
,,,,,,,,,,,,Few,None,Half,All,Many,Some,Less than half,Most,More than half,0.543914931,0.298663194,1,0,0,QQQ1,,,,,,,,English,2020-06-16_15h34.09.477,Experiment_English,3.2.4,MacIntel,60,,,,,,,,,,,,,,,,,,,,,1,0,340,138,1,339,ratio15_3_18_17.png,,,,,,,,,,,,
,,,,,,,,,,,,Few,None,All,Half,Some,Less than half,More than half,Many,Most,-0.440303819,-0.047977431,1,0,0,QQQ8,,,,,,,,English,2020-06-16_15h34.09.477,Experiment_English,3.2.4,MacIntel,60,,,,,,,,,,,,,,,,,,,,,1,0,340,211,1,339,ratio31_9_12_10.png,,,,,,,,,,,,
,,,,,,,,,,,,More than half,None,Some,All,Many,Half,Few,Most,Less than half,-0.443550347,0.269392361,1,0,0,QQQ7,,,,,,,,English,2020-06-16_15h34.09.477,Experiment_English,3.2.4,MacIntel,60,,,,,,,,,,,,,,,,,,,,,1,0,340,247,1,339,ratio34_3_7_12.png,,,,,,,,,,,,
,,,,,,,,,,,,None,Few,Less than half,Many,Some,Half,All,More than half,Most,0.469340278,0.337977431,1,0,0,QQQ1,,,,,,,,English,2020-06-16_15h34.09.477,Experiment_English,3.2.4,MacIntel,60,,,,,,,,,,,,,,,,,,,,,1,0,340,65,1,339,ratio0Y_0_8_4.png,,,,,,,,,,,,
,,,,,,,,,,,,Some,Many,More than half,None,All,Few,Half,Less than half,Most,-0.06984375,-0.262300347,1,0,0,QQQ6,,,,,,,,English,2020-06-16_15h34.09.477,Experiment_English,3.2.4,MacIntel,60,,,,,,,,,,,,,,,,,,,,,1,0,340,142,1,339,ratio19_1_10_6.png,,,,,,,,,,,,
,,,,,,,,,,,,None,Many,Less than half,Few,Some,All,More than half,Half,Most,-0.507534722,-0.269917535,1,0,0,QQQ9,,,,,,,,English,2020-06-16_15h34.09.477,Experiment_English,3.2.4,MacIntel,60,,,,,,,,,,,,,,,,,,,,,1,0,340,161,1,339,ratio21_2_3_8.png,,,,,,,,,,,,
,,,,,,,,,,,,None,More than half,All,Less than half,Most,Many,Few,Some,Half,-0.050138889,-0.000290799,1,0,0,QQQ5,,,,,,,,English,2020-06-16_15h34.09.477,Experiment_English,3.2.4,MacIntel,60,,,,,,,,,,,,,,,,,,,,,1,0,340,163,1,339,ratio21_4_6_1.png,,,,,,,,,,,,
,,,,,,,,,,,,Many,Less than half,Half,None,All,Few,More than half,Most,Some,-0.388619792,-0.084270833,1,0,0,QQQ8,,,,,,,,English,2020-06-16_15h34.09.477,Experiment_English,3.2.4,MacIntel,60,,,,,,,,,,,,,,,,,,,,,1,0,340,304,1,339,ratio51_5_6_13.png,,,,,,,,,,,,
,,,,,,,,,,,,None,Many,Less than half,All,More than half,Most,Few,Some,Half,0.049965278,-0.351493056,1,0,0,QQQ6,,,,,,,,English,2020-06-16_15h34.09.477,Experiment_English,3.2.4,MacIntel,60,,,,,,,,,,,,,,,,,,,,,1,0,340,174,1,339,ratio21_10_15_1.png,,,,,,,,,,,,
,,,,,,,,,,,,All,Less than half,More than half,Few,Most,None,Many,Half,Some,0.06453559,0.319544271,1,0,0,QQQ4,,,,,,,,English,2020-06-16_15h34.09.477,Experiment_English,3.2.4,MacIntel,60,,,,,,,,,,,,,,,,,,,,,1,0,340,7,1,339,ratio12_3_9_2.png,,,,,,,,,,,,
,,,,,,,,,,,,Few,Half,Many,Less than half,Most,Some,All,None,More than half,0.064926215,0.007717014,1,0,0,QQQ5,,,,,,,,English,2020-06-16_15h34.09.477,Experiment_English,3.2.4,MacIntel,60,,,,,,,,,,,,,,,,,,,,,1,0,340,205,1,339,ratio31_6_8_2.png,,,,,,,,,,,,
,,,,,,,,,,,,All,More than half,Some,Most,None,Less than half,Many,Half,Few,0.142456597,-0.004027778,1,0,0,QQQ5,,,,,,,,English,2020-06-16_15h34.09.477,Experiment_English,3.2.4,MacIntel,60,,,,,,,,,,,,,,,,,,,,,1,0,340,66,1,339,ratio0Y_0_9_8.png,,,,,,,,,,,,
,,,,,,,,,,,,Few,All,Most,Less than half,Half,None,More than half,Some,Many,0.480112847,-0.318081597,1,0,0,QQQ3,,,,,,,,English,2020-06-16_15h34.09.477,Experiment_English,3.2.4,MacIntel,60,,,,,,,,,,,,,,,,,,,,,1,0,340,262,1,339,ratio41_4_5_4.png,,,,,,,,,,,,
,,,,,,,,,,,,Few,None,All,Most,More than half,Some,Half,Many,Less than half,0.551710069,0.229023438,1,0,0,QQQ1,,,,,,,,English,2020-06-16_15h34.09.477,Experiment_English,3.2.4,MacIntel,60,,,,,,,,,,,,,,,,,,,,,1,0,340,86,1,339,ratio13_2_8_6.png,0.332947049,-0.40625434,1,0,0,continue_button_pause,1,0,1,0,1,0
,,,,,,,,,,,,,,,,,,,,,,,,,,,,,,,,,,English,2020-06-16_15h34.09.477,Experiment_English,3.2.4,MacIntel,60,,,,,,,,,,,,,,,,,,,,,1,0,340,86,1,339,ratio13_2_8_6.png,,,,,,,,,,,,
,,,,,,,,,,,,Most,Less than half,None,More than half,Some,Few,All,Many,Half,0.548125,0.300681424,1,0,0,QQQ1,,,,,,,,English,2020-06-16_15h34.09.477,Experiment_English,3.2.4,MacIntel,60,,,,,,,,,,,,,,,,,,,,,1,0,340,178,1,339,ratio21_12_18_2.png,,,,,,,,,,,,
,,,,,,,,,,,,Half,None,Few,All,Most,Some,Less than half,More than half,Many,-0.397760417,0.296927083,1,0,0,QQQ7,,,,,,,,English,2020-06-16_15h34.09.477,Experiment_English,3.2.4,MacIntel,60,,,,,,,,,,,,,,,,,,,,,1,0,340,189,1,339,ratio23_4_10_8.png,,,,,,,,,,,,
,,,,,,,,,,,,Less than half,Many,None,More than half,Few,Some,Half,Most,All,-0.5340625,0.033185764,1,0,0,QQQ8,,,,,,,,English,2020-06-16_15h34.09.477,Experiment_English,3.2.4,MacIntel,60,,,,,,,,,,,,,,,,,,,,,1,0,340,320,1,339,ratio91_9_10_1.png,,,,,,,,,,,,
,,,,,,,,,,,,Less than half,Some,Many,Few,Most,Half,None,All,More than half,-0.004900174,0.313949653,1,0,0,QQQ4,,,,,,,,English,2020-06-16_15h34.09.477,Experiment_English,3.2.4,MacIntel,60,,,,,,,,,,,,,,,,,,,,,1,0,340,93,1,339,ratio13_4_16_7.png,,,,,,,,,,,,
,,,,,,,,,,,,All,Few,Less than half,More than half,Most,None,Some,Many,Half,-0.017061632,-0.034926215,1,0,0,QQQ5,,,,,,,,English,2020-06-16_15h34.09.477,Experiment_English,3.2.4,MacIntel,60,,,,,,,,,,,,,,,,,,,,,1,0,340,276,1,339,ratio41_16_20_4.png,,,,,,,,,,,,
,,,,,,,,,,,,Half,Few,Less than half,Many,Most,More than half,Some,All,None,-0.500238715,-0.05187934,1,0,0,QQQ8,,,,,,,,English,2020-06-16_15h34.09.477,Experiment_English,3.2.4,MacIntel,60,,,,,,,,,,,,,,,,,,,,,1,0,340,59,1,339,ratioX0_20_20_9.png,,,,,,,,,,,,
,,,,,,,,,,,,Few,Some,Less than half,Half,Most,Many,All,None,More than half,-0.45828559,-0.344986979,1,0,0,QQQ9,,,,,,,,English,2020-06-16_15h34.09.477,Experiment_English,3.2.4,MacIntel,60,,,,,,,,,,,,,,,,,,,,,1,0,340,26,1,339,ratio11_5_10_4.png,,,,,,,,,,,,
,,,,,,,,,,,,Many,Few,Some,More than half,All,Most,Less than half,Half,None,0.476497396,-0.274409722,1,0,0,QQQ3,,,,,,,,English,2020-06-16_15h34.09.477,Experiment_English,3.2.4,MacIntel,60,,,,,,,,,,,,,,,,,,,,,1,0,340,115,1,339,ratio14_4_20_1.png,,,,,,,,,,,,
,,,,,,,,,,,,Some,Most,Few,Half,Many,Less than half,None,All,More than half,0.426241319,-0.35452691,1,0,0,QQQ3,,,,,,,,English,2020-06-16_15h34.09.477,Experiment_English,3.2.4,MacIntel,60,,,,,,,,,,,,,,,,,,,,,1,0,340,144,1,339,ratio19_1_10_11.png,,,,,,,,,,,,
,,,,,,,,,,,,Half,None,All,Few,Less than half,More than half,Most,Many,Some,-0.120655382,-0.314092882,1,0,0,QQQ6,,,,,,,,English,2020-06-16_15h34.09.477,Experiment_English,3.2.4,MacIntel,60,,,,,,,,,,,,,,,,,,,,,1,0,340,293,1,339,ratio43_8_14_7.png,,,,,,,,,,,,
,,,,,,,,,,,,All,More than half,Few,Many,Less than half,Most,Some,None,Half,0.598723958,-0.219110243,1,0,0,QQQ3,,,,,,,,English,2020-06-16_15h34.09.477,Experiment_English,3.2.4,MacIntel,60,,,,,,,,,,,,,,,,,,,,,1,0,340,240,1,339,ratio34_3_7_4.png,,,,,,,,,,,,
,,,,,,,,,,,,Half,None,All,Less than half,Most,More than half,Some,Few,Many,-0.084166667,-0.294461806,1,0,0,QQQ6,,,,,,,,English,2020-06-16_15h34.09.477,Experiment_English,3.2.4,MacIntel,60,,,,,,,,,,,,,,,,,,,,,1,0,340,238,1,339,ratio32_12_20_9.png,,,,,,,,,,,,
,,,,,,,,,,,,Less than half,All,Half,Many,Most,More than half,Some,Few,None,-0.019613715,-0.00625434,1,0,0,QQQ5,,,,,,,,English,2020-06-16_15h34.09.477,Experiment_English,3.2.4,MacIntel,60,,,,,,,,,,,,,,,,,,,,,1,0,340,278,1,339,ratio41_16_20_9.png,,,,,,,,,,,,
,,,,,,,,,,,,More than half,Many,Half,None,Most,Some,All,Less than half,Few,0.407291667,0.058524306,1,0,0,QQQ2,,,,,,,,English,2020-06-16_15h34.09.477,Experiment_English,3.2.4,MacIntel,60,,,,,,,,,,,,,,,,,,,,,1,0,340,301,1,339,ratio51_5_6_4.png,,,,,,,,,,,,
,,,,,,,,,,,,Some,None,All,Half,Most,More than half,Many,Few,Less than half,-0.055972222,-0.296328125,1,0,0,QQQ6,,,,,,,,English,2020-06-16_15h34.09.477,Experiment_English,3.2.4,MacIntel,60,,,,,,,,,,,,,,,,,,,,,1,0,340,285,1,339,ratio43_4_7_14.png,,,,,,,,,,,,
,,,,,,,,,,,,More than half,Most,Half,Few,All,None,Some,Many,Less than half,-0.004322917,-0.334322917,1,0,0,QQQ6,,,,,,,,English,2020-06-16_15h34.09.477,Experiment_English,3.2.4,MacIntel,60,,,,,,,,,,,,,,,,,,,,,1,0,340,78,1,339,ratio0Y_0_19_1.png,,,,,,,,,,,,
,,,,,,,,,,,,None,All,More than half,Few,Some,Less than half,Many,Half,Most,-0.502738715,-0.264947917,1,0,0,QQQ9,,,,,,,,English,2020-06-16_15h34.09.477,Experiment_English,3.2.4,MacIntel,60,,,,,,,,,,,,,,,,,,,,,1,0,340,323,1,339,ratio91_9_10_5.png,,,,,,,,,,,,
,,,,,,,,,,,,Few,Some,Half,None,More than half,Most,All,Many,Less than half,0.554565972,0.309440104,1,0,0,QQQ1,,,,,,,,English,2020-06-16_15h34.09.477,Experiment_English,3.2.4,MacIntel,60,,,,,,,,,,,,,,,,,,,,,1,0,340,153,1,339,ratio19_2_20_8.png,,,,,,,,,,,,
,,,,,,,,,,,,Some,Most,Few,More than half,Many,Less than half,All,None,Half,0.059796007,0.305208333,1,0,0,QQQ4,,,,,,,,English,2020-06-16_15h34.09.477,Experiment_English,3.2.4,MacIntel,60,,,,,,,,,,,,,,,,,,,,,1,0,340,170,1,339,ratio21_6_9_8.png,,,,,,,,,,,,
,,,,,,,,,,,,All,Less than half,Many,More than half,Half,Most,Some,Few,None,0.012960069,-0.32765625,1,0,0,QQQ6,,,,,,,,English,2020-06-16_15h34.09.477,Experiment_English,3.2.4,MacIntel,60,,,,,,,,,,,,,,,,,,,,,1,0,340,265,1,339,ratio41_8_10_1.png,,,,,,,,,,,,
,,,,,,,,,,,,Less than half,More than half,Most,Half,Few,Some,None,All,Many,0.371054687,0.221449653,1,0,0,QQQ1,,,,,,,,English,2020-06-16_15h34.09.477,Experiment_English,3.2.4,MacIntel,60,,,,,,,,,,,,,,,,,,,,,1,0,340,1,1,339,ratio12_1_3_7.png,,,,,,,,,,,,
,,,,,,,,,,,,All,Some,Many,Few,None,Half,Most,Less than half,More than half,-0.055625,0.248016493,1,0,0,QQQ4,,,,,,,,English,2020-06-16_15h34.09.477,Experiment_English,3.2.4,MacIntel,60,,,,,,,,,,,,,,,,,,,,,1,0,340,162,1,339,ratio21_2_3_9.png,,,,,,,,,,,,
,,,,,,,,,,,,More than half,Some,Few,Most,All,None,Half,Many,Less than half,0.609765625,-0.256983507,1,0,0,QQQ3,,,,,,,,English,2020-06-16_15h34.09.477,Experiment_English,3.2.4,MacIntel,60,,,,,,,,,,,,,,,,,,,,,1,0,340,122,1,339,ratio15_1_6_7.png,,,,,,,,,,,,
,,,,,,,,,,,,Some,Many,All,None,Most,More than half,Half,Less than half,Few,0.561853299,-0.354678819,1,0,0,QQQ3,,,,,,,,English,2020-06-16_15h34.09.477,Experiment_English,3.2.4,MacIntel,60,,,,,,,,,,,,,,,,,,,,,1,0,340,46,1,339,ratioX0_9_9_3.png,,,,,,,,,,,,
,,,,,,,,,,,,Less than half,Some,All,None,Half,Most,More than half,Many,Few,-0.379040799,-0.253051215,1,0,0,QQQ9,,,,,,,,English,2020-06-16_15h34.09.477,Experiment_English,3.2.4,MacIntel,60,,,,,,,,,,,,,,,,,,,,,1,0,340,108,1,339,ratio14_2_10_6.png,,,,,,,,,,,,
,,,,,,,,,,,,Less than half,Many,None,Most,Few,All,Some,More than half,Half,-0.469735243,-0.27469184,1,0,0,QQQ9,,,,,,,,English,2020-06-16_15h34.09.477,Experiment_English,3.2.4,MacIntel,60,,,,,,,,,,,,,,,,,,,,,1,0,340,38,1,339,ratio11_10_20_5.png,,,,,,,,,,,,
,,,,,,,,,,,,Many,Some,Half,Less than half,All,More than half,None,Few,Most,-0.085872396,-0.233272569,1,0,0,QQQ6,,,,,,,,English,2020-06-16_15h34.09.477,Experiment_English,3.2.4,MacIntel,60,,,,,,,,,,,,,,,,,,,,,1,0,340,218,1,339,ratio31_15_20_7.png,,,,,,,,,,,,
,,,,,,,,,,,,Many,More than half,Half,None,Few,Some,Less than half,All,Most,-0.053511285,-0.060681424,1,0,0,QQQ5,,,,,,,,English,2020-06-16_15h34.09.477,Experiment_English,3.2.4,MacIntel,60,,,,,,,,,,,,,,,,,,,,,1,0,340,82,1,339,ratio13_1_4_7.png,,,,,,,,,,,,
,,,,,,,,,,,,Some,More than half,Many,Most,Few,Half,None,All,Less than half,-0.446614583,-0.316362847,1,0,0,QQQ9,,,,,,,,English,2020-06-16_15h34.09.477,Experiment_English,3.2.4,MacIntel,60,,,,,,,,,,,,,,,,,,,,,1,0,340,250,1,339,ratio34_6_14_1.png,,,,,,,,,,,,
,,,,,,,,,,,,All,Most,More than half,Some,Half,Few,Many,Less than half,None,-0.55359375,0.288567708,1,0,0,QQQ7,,,,,,,,English,2020-06-16_15h34.09.477,Experiment_English,3.2.4,MacIntel,60,,,,,,,,,,,,,,,,,,,,,1,0,340,295,1,339,ratio43_8_14_11.png,,,,,,,,,,,,
,,,,,,,,,,,,More than half,Some,Few,Less than half,None,All,Many,Most,Half,-0.012352431,-0.278650174,1,0,0,QQQ6,,,,,,,,English,2020-06-16_15h34.09.477,Experiment_English,3.2.4,MacIntel,60,,,,,,,,,,,,,,,,,,,,,1,0,340,44,1,339,ratioX0_7_7_5.png,,,,,,,,,,,,
,,,,,,,,,,,,Some,Half,Less than half,Many,None,All,Few,Most,More than half,-0.400017361,0.376002604,1,0,0,QQQ7,,,,,,,,English,2020-06-16_15h34.09.477,Experiment_English,3.2.4,MacIntel,60,,,,,,,,,,,,,,,,,,,,,1,0,340,136,1,339,ratio15_3_18_8.png,,,,,,,,,,,,
,,,,,,,,,,,,Some,Few,Many,All,Most,None,Half,More than half,Less than half,0.499001736,-0.035047743,1,0,0,QQQ2,,,,,,,,English,2020-06-16_15h34.09.477,Experiment_English,3.2.4,MacIntel,60,,,,,,,,,,,,,,,,,,,,,1,0,340,128,1,339,ratio15_2_12_8.png,,,,,,,,,,,,
,,,,,,,,,,,,Less than half,Most,None,Many,Few,Half,Some,All,More than half,-0.586549479,-0.382092014,1,0,0,QQQ9,,,,,,,,English,2020-06-16_15h34.09.477,Experiment_English,3.2.4,MacIntel,60,,,,,,,,,,,,,,,,,,,,,1,0,340,288,1,339,ratio43_4_7_18.png,0.420238715,-0.356705729,1,0,0,continue_button_pause,1,0,1,0,1,0
,,,,,,,,,,,,,,,,,,,,,,,,,,,,,,,,,,English,2020-06-16_15h34.09.477,Experiment_English,3.2.4,MacIntel,60,,,,,,,,,,,,,,,,,,,,,1,0,340,288,1,339,ratio43_4_7_18.png,,,,,,,,,,,,
,,,,,,,,,,,,Many,Half,Less than half,More than half,All,Few,Some,None,Most,0.607717014,-0.31437934,1,0,0,QQQ3,,,,,,,,English,2020-06-16_15h34.09.477,Experiment_English,3.2.4,MacIntel,60,,,,,,,,,,,,,,,,,,,,,1,0,340,6,1,339,ratio12_3_9_1.png,,,,,,,,,,,,
,,,,,,,,,,,,Less than half,None,Many,Most,More than half,Few,Half,Some,All,0.546892361,0.025247396,1,0,0,QQQ2,,,,,,,,English,2020-06-16_15h34.09.477,Experiment_English,3.2.4,MacIntel,60,,,,,,,,,,,,,,,,,,,,,1,0,340,67,1,339,ratio0Y_0_10_10.png,,,,,,,,,,,,
,,,,,,,,,,,,More than half,Few,All,Half,Some,None,Less than half,Most,Many,-0.474678819,-0.023580729,1,0,0,QQQ8,,,,,,,,English,2020-06-16_15h34.09.477,Experiment_English,3.2.4,MacIntel,60,,,,,,,,,,,,,,,,,,,,,1,0,340,215,1,339,ratio31_12_16_8.png,,,,,,,,,,,,
,,,,,,,,,,,,Many,Some,Most,All,None,Half,Less than half,Few,More than half,-0.452786458,-0.368090278,1,0,0,QQQ9,,,,,,,,English,2020-06-16_15h34.09.477,Experiment_English,3.2.4,MacIntel,60,,,,,,,,,,,,,,,,,,,,,1,0,340,226,1,339,ratio32_6_10_5.png,,,,,,,,,,,,
,,,,,,,,,,,,None,Few,Some,Half,Less than half,All,Most,More than half,Many,0.582530382,0.292074653,1,0,0,QQQ1,,,,,,,,English,2020-06-16_15h34.09.477,Experiment_English,3.2.4,MacIntel,60,,,,,,,,,,,,,,,,,,,,,1,0,340,72,1,339,ratio0Y_0_13_4.png,,,,,,,,,,,,
,,,,,,,,,,,,More than half,Some,Few,Many,All,Most,Half,Less than half,None,0.471119792,-0.262578125,1,0,0,QQQ3,,,,,,,,English,2020-06-16_15h34.09.477,Experiment_English,3.2.4,MacIntel,60,,,,,,,,,,,,,,,,,,,,,1,0,340,134,1,339,ratio15_3_18_5.png,,,,,,,,,,,,
,,,,,,,,,,,,Some,All,More than half,Most,None,Less than half,Half,Many,Few,0.025572917,-0.079887153,1,0,0,QQQ5,,,,,,,,English,2020-06-16_15h34.09.477,Experiment_English,3.2.4,MacIntel,60,,,,,,,,,,,,,,,,,,,,,1,0,340,64,1,339,ratio0Y_0_7_1.png,,,,,,,,,,,,
,,,,,,,,,,,,More than half,Some,Many,Most,Less than half,All,None,Few,Half,-0.018632812,0.207664931,1,0,0,QQQ4,,,,,,,,English,2020-06-16_15h34.09.477,Experiment_English,3.2.4,MacIntel,60,,,,,,,,,,,,,,,,,,,,,1,0,340,217,1,339,ratio31_15_20_5.png,,,,,,,,,,,,
,,,,,,,,,,,,Less than half,Half,More than half,All,Few,Many,Most,None,Some,0.480525174,-0.315238715,1,0,0,QQQ3,,,,,,,,English,2020-06-16_15h34.09.477,Experiment_English,3.2.4,MacIntel,60,,,,,,,,,,,,,,,,,,,,,1,0,340,282,1,339,ratio43_4_7_7.png,,,,,,,,,,,,
,,,,,,,,,,,,Less than half,Half,Most,More than half,All,Few,Many,Some,None,0.067282986,0.265638021,1,0,0,QQQ4,,,,,,,,English,2020-06-16_15h34.09.477,Experiment_English,3.2.4,MacIntel,60,,,,,,,,,,,,,,,,,,,,,1,0,340,221,1,339,ratio32_3_5_3.png,,,,,,,,,,,,
,,,,,,,,,,,,None,Many,Less than half,Some,Most,All,Few,More than half,Half,-0.012986111,-0.041679687,1,0,0,QQQ5,,,,,,,,English,2020-06-16_15h34.09.477,Experiment_English,3.2.4,MacIntel,60,,,,,,,,,,,,,,,,,,,,,1,0,340,333,1,339,ratio91_18_20_6.png,,,,,,,,,,,,
,,,,,,,,,,,,More than half,Half,None,Many,Most,Few,Some,All,Less than half,-0.039448785,-0.034865451,1,0,0,QQQ5,,,,,,,,English,2020-06-16_15h34.09.477,Experiment_English,3.2.4,MacIntel,60,,,,,,,,,,,,,,,,,,,,,1,0,340,312,1,339,ratio51_10_12_16.png,,,,,,,,,,,,
,,,,,,,,,,,,Most,Some,More than half,All,None,Half,Less than half,Few,Many,-0.471944444,-0.075512153,1,0,0,QQQ8,,,,,,,,English,2020-06-16_15h34.09.477,Experiment_English,3.2.4,MacIntel,60,,,,,,,,,,,,,,,,,,,,,1,0,340,16,1,339,ratio12_5_15_6.png,,,,,,,,,,,,
,,,,,,,,,,,,Most,All,Some,Less than half,None,Half,Few,More than half,Many,-0.452994792,0.016809896,1,0,0,QQQ8,,,,,,,,English,2020-06-16_15h34.09.477,Experiment_English,3.2.4,MacIntel,60,,,,,,,,,,,,,,,,,,,,,1,0,340,239,1,339,ratio32_12_20_10.png,,,,,,,,,,,,
,,,,,,,,,,,,Half,Few,Most,Less than half,Many,More than half,None,All,Some,0.003381076,0.306532118,1,0,0,QQQ4,,,,,,,,English,2020-06-16_15h34.09.477,Experiment_English,3.2.4,MacIntel,60,,,,,,,,,,,,,,,,,,,,,1,0,340,199,1,339,ratio23_8_20_8.png,,,,,,,,,,,,
,,,,,,,,,,,,Less than half,All,Half,Many,Some,More than half,Most,Few,None,0.575091146,0.329626736,1,0,0,QQQ1,,,,,,,,English,2020-06-16_15h34.09.477,Experiment_English,3.2.4,MacIntel,60,,,,,,,,,,,,,,,,,,,,,1,0,340,246,1,339,ratio34_3_7_11.png,,,,,,,,,,,,
,,,,,,,,,,,,Some,Few,Half,None,More than half,Many,All,Less than half,Most,0.546571181,0.023524306,1,0,0,QQQ2,,,,,,,,English,2020-06-16_15h34.09.477,Experiment_English,3.2.4,MacIntel,60,,,,,,,,,,,,,,,,,,,,,1,0,340,141,1,339,ratio19_1_10_2.png,,,,,,,,,,,,
,,,,,,,,,,,,Most,Half,More than half,Many,Some,All,Less than half,Few,None,0.563771701,-0.28734809,1,0,0,QQQ3,,,,,,,,English,2020-06-16_15h34.09.477,Experiment_English,3.2.4,MacIntel,60,,,,,,,,,,,,,,,,,,,,,1,0,340,298,1,339,ratio43_8_14_14.png,,,,,,,,,,,,
,,,,,,,,,,,,Many,Half,Most,None,Less than half,More than half,All,Few,Some,-0.478632813,-0.096427951,1,0,0,QQQ8,,,,,,,,English,2020-06-16_15h34.09.477,Experiment_English,3.2.4,MacIntel,60,,,,,,,,,,,,,,,,,,,,,1,0,340,146,1,339,ratio19_1_10_17.png,,,,,,,,,,,,
,,,,,,,,,,,,More than half,All,Less than half,Half,Some,Most,None,Few,Many,-0.453802083,-0.069457465,1,0,0,QQQ8,,,,,,,,English,2020-06-16_15h34.09.477,Experiment_English,3.2.4,MacIntel,60,,,,,,,,,,,,,,,,,,,,,1,0,340,105,1,339,ratio14_2_10_1.png,,,,,,,,,,,,
,,,,,,,,,,,,Few,Less than half,All,Half,None,Some,Many,Most,More than half,-0.065911458,-0.344040799,1,0,0,QQQ6,,,,,,,,English,2020-06-16_15h34.09.477,Experiment_English,3.2.4,MacIntel,60,,,,,,,,,,,,,,,,,,,,,1,0,340,97,1,339,ratio13_5_20_2.png,,,,,,,,,,,,
,,,,,,,,,,,,More than half,Most,Few,All,Many,Less than half,Half,Some,None,0.588619792,-0.340060764,1,0,0,QQQ3,,,,,,,,English,2020-06-16_15h34.09.477,Experiment_English,3.2.4,MacIntel,60,,,,,,,,,,,,,,,,,,,,,1,0,340,125,1,339,ratio15_1_6_19.png,,,,,,,,,,,,
,,,,,,,,,,,,More than half,Half,Many,Less than half,Most,All,None,Few,Some,-0.015364583,-0.050976563,1,0,0,QQQ5,,,,,,,,English,2020-06-16_15h34.09.477,Experiment_English,3.2.4,MacIntel,60,,,,,,,,,,,,,,,,,,,,,1,0,340,270,1,339,ratio41_12_15_3.png,,,,,,,,,,,,
,,,,,,,,,,,,Less than half,All,Many,Most,Few,Some,More than half,None,Half,0.063845486,-0.030112847,1,0,0,QQQ5,,,,,,,,English,2020-06-16_15h34.09.477,Experiment_English,3.2.4,MacIntel,60,,,,,,,,,,,,,,,,,,,,,1,0,340,3,1,339,ratio12_2_6_3.png,,,,,,,,,,,,
,,,,,,,,,,,,None,Few,More than half,All,Most,Less than half,Some,Half,Many,-0.531948785,-0.022018229,1,0,0,QQQ8,,,,,,,,English,2020-06-16_15h34.09.477,Experiment_English,3.2.4,MacIntel,60,,,,,,,,,,,,,,,,,,,,,1,0,340,39,1,339,ratio11_10_20_6.png,,,,,,,,,,,,
,,,,,,,,,,,,Less than half,More than half,Half,Few,Many,Most,Some,All,None,0.022230903,0.279110243,1,0,0,QQQ4,,,,,,,,English,2020-06-16_15h34.09.477,Experiment_English,3.2.4,MacIntel,60,,,,,,,,,,,,,,,,,,,,,1,0,340,94,1,339,ratio13_4_16_8.png,,,,,,,,,,,,
,,,,,,,,,,,,Many,Some,Few,Half,None,More than half,All,Most,Less than half,-0.462760417,-0.318372396,1,0,0,QQQ9,,,,,,,,English,2020-06-16_15h34.09.477,Experiment_English,3.2.4,MacIntel,60,,,,,,,,,,,,,,,,,,,,,1,0,340,18,1,339,ratio12_6_18_7.png,,,,,,,,,,,,
,,,,,,,,,,,,Many,More than half,Few,All,Most,Some,Half,Less than half,None,0.620065104,0.027170139,1,0,0,QQQ2,,,,,,,,English,2020-06-16_15h34.09.477,Experiment_English,3.2.4,MacIntel,60,,,,,,,,,,,,,,,,,,,,,1,0,340,280,1,339,ratio43_4_7_2.png,,,,,,,,,,,,
,,,,,,,,,,,,Less than half,None,All,Half,Many,Few,Most,Some,More than half,-0.614470486,0.344904514,1,0,0,QQQ7,,,,,,,,English,2020-06-16_15h34.09.477,Experiment_English,3.2.4,MacIntel,60,,,,,,,,,,,,,,,,,,,,,1,0,340,321,1,339,ratio91_9_10_2.png,,,,,,,,,,,,
,,,,,,,,,,,,All,More than half,Less than half,Some,Many,None,Most,Half,Few,0.388923611,-0.315277778,1,0,0,QQQ3,,,,,,,,English,2020-06-16_15h34.09.477,Experiment_English,3.2.4,MacIntel,60,,,,,,,,,,,,,,,,,,,,,1,0,340,12,1,339,ratio12_4_12_10.png,,,,,,,,,,,,
,,,,,,,,,,,,Some,Few,Less than half,Most,Half,All,Many,More than half,None,0.55656684,0.091054687,1,0,0,QQQ2,,,,,,,,English,2020-06-16_15h34.09.477,Experiment_English,3.2.4,MacIntel,60,,,,,,,,,,,,,,,,,,,,,1,0,340,106,1,339,ratio14_2_10_2.png,,,,,,,,,,,,
,,,,,,,,,,,,Most,Many,Half,Few,All,More than half,Some,Less than half,None,0.519639757,-0.333385417,1,0,0,QQQ3,,,,,,,,English,2020-06-16_15h34.09.477,Experiment_English,3.2.4,MacIntel,60,,,,,,,,,,,,,,,,,,,,,1,0,340,251,1,339,ratio34_6_14_2.png,,,,,,,,,,,,
,,,,,,,,,,,,Some,Few,Most,Many,None,Half,More than half,All,Less than half,0.459544271,-0.346076389,1,0,0,QQQ3,,,,,,,,English,2020-06-16_15h34.09.477,Experiment_English,3.2.4,MacIntel,60,,,,,,,,,,,,,,,,,,,,,1,0,340,336,1,339,ratio91_18_20_12.png,,,,,,,,,,,,
,,,,,,,,,,,,Most,All,Less than half,More than half,Half,Some,Few,Many,None,-0.459301215,-0.080642361,1,0,0,QQQ8,,,,,,,,English,2020-06-16_15h34.09.477,Experiment_English,3.2.4,MacIntel,60,,,,,,,,,,,,,,,,,,,,,1,0,340,309,1,339,ratio51_10_12_10.png,0.256154514,-0.395355903,1,0,0,continue_button_pause,1,0,1,0,1,0
,,,,,,,,,,,,,,,,,,,,,,,,,,,,,,,,,,English,2020-06-16_15h34.09.477,Experiment_English,3.2.4,MacIntel,60,,,,,,,,,,,,,,,,,,,,,1,0,340,309,1,339,ratio51_10_12_10.png,,,,,,,,,,,,
,,,,,,,,,,,,Less than half,Some,All,None,Half,More than half,Many,Most,Few,-0.485733507,-0.34265191,1,0,0,QQQ9,,,,,,,,English,2020-06-16_15h34.09.477,Experiment_English,3.2.4,MacIntel,60,,,,,,,,,,,,,,,,,,,,,1,0,340,2,1,339,ratio12_1_3_10.png,,,,,,,,,,,,
,,,,,,,,,,,,Few,None,Half,Less than half,Many,Some,More than half,Most,All,-0.107708333,0.201688368,1,0,0,QQQ4,,,,,,,,English,2020-06-16_15h34.09.477,Experiment_English,3.2.4,MacIntel,60,,,,,,,,,,,,,,,,,,,,,1,0,340,185,1,339,ratio23_4_10_1.png,,,,,,,,,,,,
,,,,,,,,,,,,Some,Few,More than half,All,Many,Less than half,Most,None,Half,0.475386285,0.00312066,1,0,0,QQQ2,,,,,,,,English,2020-06-16_15h34.09.477,Experiment_English,3.2.4,MacIntel,60,,,,,,,,,,,,,,,,,,,,,1,0,340,131,1,339,ratio15_2_12_14.png,,,,,,,,,,,,
,,,,,,,,,,,,Few,Less than half,Many,More than half,Half,All,None,Most,Some,0.095946181,0.279596354,1,0,0,QQQ4,,,,,,,,English,2020-06-16_15h34.09.477,Experiment_English,3.2.4,MacIntel,60,,,,,,,,,,,,,,,,,,,,,1,0,340,307,1,339,ratio51_10_12_1.png,,,,,,,,,,,,
,,,,,,,,,,,,None,More than half,Less than half,Few,Some,Half,Many,Most,All,0.480390625,-0.222769097,1,0,0,QQQ3,,,,,,,,English,2020-06-16_15h34.09.477,Experiment_English,3.2.4,MacIntel,60,,,,,,,,,,,,,,,,,,,,,1,0,340,198,1,339,ratio23_8_20_7.png,,,,,,,,,,,,
,,,,,,,,,,,,Most,Many,Less than half,Few,Half,Some,All,More than half,None,-0.025902778,0.244626736,1,0,0,QQQ4,,,,,,,,English,2020-06-16_15h34.09.477,Experiment_English,3.2.4,MacIntel,60,,,,,,,,,,,,,,,,,,,,,1,0,340,158,1,339,ratio19_2_20_17.png,,,,,,,,,,,,
,,,,,,,,,,,,Many,More than half,Half,Less than half,Few,Some,All,Most,None,-0.424240451,0.049227431,1,0,0,QQQ8,,,,,,,,English,2020-06-16_15h34.09.477,Experiment_English,3.2.4,MacIntel,60,,,,,,,,,,,,,,,,,,,,,1,0,340,229,1,339,ratio32_6_10_9.png,,,,,,,,,,,,
,,,,,,,,,,,,Some,Most,None,More than half,Half,Many,Few,Less than half,All,-0.546883681,-0.062664931,1,0,0,QQQ8,,,,,,,,English,2020-06-16_15h34.09.477,Experiment_English,3.2.4,MacIntel,60,,,,,,,,,,,,,,,,,,,,,1,0,340,181,1,339,ratio23_2_5_6.png,,,,,,,,,,,,
,,,,,,,,,,,,Less than half,Half,Few,More than half,Most,Many,None,All,Some,0.398337674,0.005915799,1,0,0,QQQ2,,,,,,,,English,2020-06-16_15h34.09.477,Experiment_English,3.2.4,MacIntel,60,,,,,,,,,,,,,,,,,,,,,1,0,340,292,1,339,ratio43_8_14_6.png,,,,,,,,,,,,
,,,,,,,,,,,,Some,Many,More than half,Most,Less than half,All,Half,Few,None,-0.431618924,0.001102431,1,0,0,QQQ8,,,,,,,,English,2020-06-16_15h34.09.477,Experiment_English,3.2.4,MacIntel,60,,,,,,,,,,,,,,,,,,,,,1,0,340,145,1,339,ratio19_1_10_15.png,,,,,,,,,,,,
,,,,,,,,,,,,Less than half,Half,Many,More than half,Some,None,Most,Few,All,0.537608507,0.302764757,1,0,0,QQQ1,,,,,,,,English,2020-06-16_15h34.09.477,Experiment_English,3.2.4,MacIntel,60,,,,,,,,,,,,,,,,,,,,,1,0,340,186,1,339,ratio23_4_10_2.png,,,,,,,,,,,,
,,,,,,,,,,,,Many,None,Half,Some,More than half,Few,All,Less than half,Most,-0.023498264,-0.344600694,1,0,0,QQQ6,,,,,,,,English,2020-06-16_15h34.09.477,Experiment_English,3.2.4,MacIntel,60,,,,,,,,,,,,,,,,,,,,,1,0,340,120,1,339,ratio15_1_6_1.png,,,,,,,,,,,,
,,,,,,,,,,,,Few,All,Some,Half,Many,None,More than half,Most,Less than half,0.01625434,-0.243480903,1,0,0,QQQ6,,,,,,,,English,2020-06-16_15h34.09.477,Experiment_English,3.2.4,MacIntel,60,,,,,,,,,,,,,,,,,,,,,1,0,340,62,1,339,ratio0Y_0_5_4.png,,,,,,,,,,,,
,,,,,,,,,,,,All,Many,Some,Few,None,Less than half,Half,Most,More than half,0.01625434,-0.239140625,1,0,0,QQQ6,,,,,,,,English,2020-06-16_15h34.09.477,Experiment_English,3.2.4,MacIntel,60,,,,,,,,,,,,,,,,,,,,,1,0,340,171,1,339,ratio21_8_12_4.png,,,,,,,,,,,,
,,,,,,,,,,,,Most,Half,All,Some,Many,More than half,None,Less than half,Few,0.01625434,-0.239140625,1,0,0,QQQ6,,,,,,,,English,2020-06-16_15h34.09.477,Experiment_English,3.2.4,MacIntel,60,,,,,,,,,,,,,,,,,,,,,1,0,340,212,1,339,ratio31_12_16_1.png,,,,,,,,,,,,
,,,,,,,,,,,,Some,More than half,None,Many,All,Few,Less than half,Half,Most,0.01625434,-0.239140625,1,0,0,QQQ6,,,,,,,,English,2020-06-16_15h34.09.477,Experiment_English,3.2.4,MacIntel,60,,,,,,,,,,,,,,,,,,,,,1,0,340,103,1,339,ratio14_1_5_9.png,,,,,,,,,,,,
,,,,,,,,,,,,More than half,All,Many,Half,Some,Less than half,Few,Most,None,-0.480642361,0.228758681,1,0,0,QQQ7,,,,,,,,English,2020-06-16_15h34.09.477,Experiment_English,3.2.4,MacIntel,60,,,,,,,,,,,,,,,,,,,,,1,0,340,112,1,339,ratio14_3_15_4.png,,,,,,,,,,,,
,,,,,,,,,,,,Many,Some,None,Half,All,Most,Few,Less than half,More than half,-0.38280816,-0.012382812,1,0,0,QQQ8,,,,,,,,English,2020-06-16_15h34.09.477,Experiment_English,3.2.4,MacIntel,60,,,,,,,,,,,,,,,,,,,,,1,0,340,299,1,339,ratio43_8_14_17.png,,,,,,,,,,,,
,,,,,,,,,,,,Many,Some,Most,Few,More than half,All,Half,Less than half,None,0.378776042,0.277361111,1,0,0,QQQ1,,,,,,,,English,2020-06-16_15h34.09.477,Experiment_English,3.2.4,MacIntel,60,,,,,,,,,,,,,,,,,,,,,1,0,340,203,1,339,ratio31_3_4_9.png,,,,,,,,,,,,
,,,,,,,,,,,,None,Few,Most,Less than half,Many,Some,All,Half,More than half,-0.455855035,-0.300555556,1,0,0,QQQ9,,,,,,,,English,2020-06-16_15h34.09.477,Experiment_English,3.2.4,MacIntel,60,,,,,,,,,,,,,,,,,,,,,1,0,340,284,1,339,ratio43_4_7_11.png,,,,,,,,,,,,
,,,,,,,,,,,,Less than half,More than half,Few,Most,All,Many,Some,Half,None,0.102934028,0.263025174,1,0,0,QQQ4,,,,,,,,English,2020-06-16_15h34.09.477,Experiment_English,3.2.4,MacIntel,60,,,,,,,,,,,,,,,,,,,,,1,0,340,272,1,339,ratio41_12_15_7.png,,,,,,,,,,,,
,,,,,,,,,,,,Many,Most,Less than half,Some,None,Few,More than half,Half,All,0.585286458,0.262925347,1,0,0,QQQ1,,,,,,,,English,2020-06-16_15h34.09.477,Experiment_English,3.2.4,MacIntel,60,,,,,,,,,,,,,,,,,,,,,1,0,340,308,1,339,ratio51_10_12_9.png,,,,,,,,,,,,
,,,,,,,,,,,,Few,All,More than half,Half,Many,None,Most,Less than half,Some,-0.485607639,0.294427083,1,0,0,QQQ7,,,,,,,,English,2020-06-16_15h34.09.477,Experiment_English,3.2.4,MacIntel,60,,,,,,,,,,,,,,,,,,,,,1,0,340,339,1,339,ratio91_18_20_19.png,,,,,,,,,,,,
,,,,,,,,,,,,Many,Half,Most,Less than half,None,Some,More than half,Few,All,0.000381944,0.264466146,1,0,0,QQQ4,,,,,,,,English,2020-06-16_15h34.09.477,Experiment_English,3.2.4,MacIntel,60,,,,,,,,,,,,,,,,,,,,,1,0,340,187,1,339,ratio23_4_10_5.png,,,,,,,,,,,,
,,,,,,,,,,,,All,Less than half,Half,Some,Most,Few,Many,None,More than half,0.027764757,-0.322417535,1,0,0,QQQ6,,,,,,,,English,2020-06-16_15h34.09.477,Experiment_English,3.2.4,MacIntel,60,,,,,,,,,,,,,,,,,,,,,1,0,340,132,1,339,ratio15_2_12_16.png,,,,,,,,,,,,
,,,,,,,,,,,,None,More than half,Some,All,Most,Half,Less than half,Few,Many,-0.422304687,0.389704861,1,0,0,QQQ7,,,,,,,,English,2020-06-16_15h34.09.477,Experiment_English,3.2.4,MacIntel,60,,,,,,,,,,,,,,,,,,,,,1,0,340,10,1,339,ratio12_4_12_4.png,,,,,,,,,,,,
,,,,,,,,,,,,More than half,Less than half,All,Half,None,Few,Many,Most,Some,-0.015234375,-0.341710069,1,0,0,QQQ6,,,,,,,,English,2020-06-16_15h34.09.477,Experiment_English,3.2.4,MacIntel,60,,,,,,,,,,,,,,,,,,,,,1,0,340,92,1,339,ratio13_4_16_3.png,,,,,,,,,,,,
,,,,,,,,,,,,None,More than half,Half,Less than half,Some,All,Few,Most,Many,-0.610460069,-0.024865451,1,0,0,QQQ8,,,,,,,,English,2020-06-16_15h34.09.477,Experiment_English,3.2.4,MacIntel,60,,,,,,,,,,,,,,,,,,,,,1,0,340,267,1,339,ratio41_8_10_4.png,,,,,,,,,,,,
,,,,,,,,,,,,Few,Some,More than half,None,Half,Many,All,Less than half,Most,0.419253472,-0.248493924,1,0,0,QQQ3,,,,,,,,English,2020-06-16_15h34.09.477,Experiment_English,3.2.4,MacIntel,60,,,,,,,,,,,,,,,,,,,,,1,0,340,220,1,339,ratio32_3_5_1.png,,,,,,,,,,,,
,,,,,,,,,,,,Most,More than half,Half,All,Few,Some,None,Less than half,Many,0.079101563,-0.030338542,1,0,0,QQQ5,,,,,,,,English,2020-06-16_15h34.09.477,Experiment_English,3.2.4,MacIntel,60,,,,,,,,,,,,,,,,,,,,,1,0,340,80,1,339,ratio13_1_4_3.png,,,,,,,,,,,,
,,,,,,,,,,,,Few,All,None,More than half,Many,Some,Most,Half,Less than half,-0.401124132,0.326462674,1,0,0,QQQ7,,,,,,,,English,2020-06-16_15h34.09.477,Experiment_English,3.2.4,MacIntel,60,,,,,,,,,,,,,,,,,,,,,1,0,340,337,1,339,ratio91_18_20_16.png,,,,,,,,,,,,
,,,,,,,,,,,,Some,Many,More than half,Most,Few,None,All,Less than half,Half,-0.378133681,-0.276905382,1,0,0,QQQ9,,,,,,,,English,2020-06-16_15h34.09.477,Experiment_English,3.2.4,MacIntel,60,,,,,,,,,,,,,,,,,,,,,1,0,340,23,1,339,ratio11_3_6_9.png,,,,,,,,,,,,
,,,,,,,,,,,,Most,None,Half,More than half,Some,Few,Many,Less than half,All,-0.514921875,-0.000399306,1,0,0,QQQ8,,,,,,,,English,2020-06-16_15h34.09.477,Experiment_English,3.2.4,MacIntel,60,,,,,,,,,,,,,,,,,,,,,1,0,340,192,1,339,ratio23_6_15_8.png,,,,,,,,,,,,
,,,,,,,,,,,,Some,Half,Few,More than half,Many,Most,Less than half,None,All,0.539900174,-0.317395833,1,0,0,QQQ3,,,,,,,,English,2020-06-16_15h34.09.477,Experiment_English,3.2.4,MacIntel,60,,,,,,,,,,,,,,,,,,,,,1,0,340,155,1,339,ratio19_2_20_13.png,0.379878472,-0.373736979,1,0,0,continue_button_pause,1,0,1,0,1,0
,,,,,,,,,,,,,,,,,,,,,,,,,,,,,,,,,,English,2020-06-16_15h34.09.477,Experiment_English,3.2.4,MacIntel,60,,,,,,,,,,,,,,,,,,,,,1,0,340,155,1,339,ratio19_2_20_13.png,,,,,,,,,,,,
,,,,,,,,,,,,Less than half,Some,None,Few,Most,All,More than half,Half,Many,0.489053819,0.253389757,1,0,0,QQQ1,,,,,,,,English,2020-06-16_15h34.09.477,Experiment_English,3.2.4,MacIntel,60,,,,,,,,,,,,,,,,,,,,,1,0,340,14,1,339,ratio12_5_15_4.png,,,,,,,,,,,,
,,,,,,,,,,,,More than half,Few,Many,Half,All,None,Some,Most,Less than half,0.48719184,-0.010551215,1,0,0,QQQ2,,,,,,,,English,2020-06-16_15h34.09.477,Experiment_English,3.2.4,MacIntel,60,,,,,,,,,,,,,,,,,,,,,1,0,340,121,1,339,ratio15_1_6_4.png,,,,,,,,,,,,
,,,,,,,,,,,,None,Some,More than half,Few,All,Many,Most,Half,Less than half,-0.483511285,-0.35562934,1,0,0,QQQ9,,,,,,,,English,2020-06-16_15h34.09.477,Experiment_English,3.2.4,MacIntel,60,,,,,,,,,,,,,,,,,,,,,1,0,340,11,1,339,ratio12_4_12_7.png,,,,,,,,,,,,
,,,,,,,,,,,,Half,Many,Less than half,More than half,Few,Most,All,None,Some,0.13140625,0.223224826,1,0,0,QQQ4,,,,,,,,English,2020-06-16_15h34.09.477,Experiment_English,3.2.4,MacIntel,60,,,,,,,,,,,,,,,,,,,,,1,0,340,269,1,339,ratio41_8_10_6.png,,,,,,,,,,,,
,,,,,,,,,,,,All,Some,None,Half,Less than half,Most,Few,Many,More than half,0.540399306,-0.239392361,1,0,0,QQQ3,,,,,,,,English,2020-06-16_15h34.09.477,Experiment_English,3.2.4,MacIntel,60,,,,,,,,,,,,,,,,,,,,,1,0,340,63,1,339,ratio0Y_0_6_8.png,,,,,,,,,,,,
,,,,,,,,,,,,Half,Most,Many,None,More than half,Less than half,Few,Some,All,0.496141493,0.034561632,1,0,0,QQQ2,,,,,,,,English,2020-06-16_15h34.09.477,Experiment_English,3.2.4,MacIntel,60,,,,,,,,,,,,,,,,,,,,,1,0,340,326,1,339,ratio91_9_10_10.png,,,,,,,,,,,,
,,,,,,,,,,,,Half,Some,Most,Less than half,Few,Many,None,More than half,All,-0.061019965,-0.328606771,1,0,0,QQQ6,,,,,,,,English,2020-06-16_15h34.09.477,Experiment_English,3.2.4,MacIntel,60,,,,,,,,,,,,,,,,,,,,,1,0,340,325,1,339,ratio91_9_10_8.png,,,,,,,,,,,,
,,,,,,,,,,,,None,Many,Few,More than half,Some,All,Less than half,Most,Half,0.007482639,-0.315481771,1,0,0,QQQ6,,,,,,,,English,2020-06-16_15h34.09.477,Experiment_English,3.2.4,MacIntel,60,,,,,,,,,,,,,,,,,,,,,1,0,340,55,1,339,ratioX0_16_16_3.png,,,,,,,,,,,,
,,,,,,,,,,,,All,Some,Many,Most,None,Few,More than half,Half,Less than half,0.119887153,0.288619792,1,0,0,QQQ4,,,,,,,,English,2020-06-16_15h34.09.477,Experiment_English,3.2.4,MacIntel,60,,,,,,,,,,,,,,,,,,,,,1,0,340,296,1,339,ratio43_8_14_12.png,,,,,,,,,,,,
,,,,,,,,,,,,Many,None,Less than half,Some,Few,More than half,Most,Half,All,-0.020182292,-0.377703993,1,0,0,QQQ6,,,,,,,,English,2020-06-16_15h34.09.477,Experiment_English,3.2.4,MacIntel,60,,,,,,,,,,,,,,,,,,,,,1,0,340,208,1,339,ratio31_9_12_3.png,,,,,,,,,,,,
,,,,,,,,,,,,Half,More than half,Some,Many,All,Most,Few,Less than half,None,-0.021948785,-0.353315972,1,0,0,QQQ6,,,,,,,,English,2020-06-16_15h34.09.477,Experiment_English,3.2.4,MacIntel,60,,,,,,,,,,,,,,,,,,,,,1,0,340,254,1,339,ratio34_6_14_9.png,,,,,,,,,,,,
,,,,,,,,,,,,Many,Most,None,Some,Few,More than half,All,Less than half,Half,0.489205729,-0.25578559,1,0,0,QQQ3,,,,,,,,English,2020-06-16_15h34.09.477,Experiment_English,3.2.4,MacIntel,60,,,,,,,,,,,,,,,,,,,,,1,0,340,61,1,339,ratio0Y_0_4_7.png,,,,,,,,,,,,
,,,,,,,,,,,,More than half,Less than half,None,Half,Many,Some,All,Few,Most,0.056150174,-0.03703125,1,0,0,QQQ5,,,,,,,,English,2020-06-16_15h34.09.477,Experiment_English,3.2.4,MacIntel,60,,,,,,,,,,,,,,,,,,,,,1,0,340,313,1,339,ratio51_15_18_2.png,,,,,,,,,,,,
,,,,,,,,,,,,More than half,None,All,Some,Half,Few,Most,Many,Less than half,-0.385885417,-0.328567708,1,0,0,QQQ9,,,,,,,,English,2020-06-16_15h34.09.477,Experiment_English,3.2.4,MacIntel,60,,,,,,,,,,,,,,,,,,,,,1,0,340,241,1,339,ratio34_3_7_5.png,,,,,,,,,,,,
,,,,,,,,,,,,More than half,All,None,Less than half,Half,Few,Some,Many,Most,-0.476875,-0.012717014,1,0,0,QQQ8,,,,,,,,English,2020-06-16_15h34.09.477,Experiment_English,3.2.4,MacIntel,60,,,,,,,,,,,,,,,,,,,,,1,0,340,335,1,339,ratio91_18_20_11.png,,,,,,,,,,,,
,,,,,,,,,,,,Half,Some,Few,Less than half,Most,None,More than half,All,Many,0.470043403,-0.216631944,1,0,0,QQQ3,,,,,,,,English,2020-06-16_15h34.09.477,Experiment_English,3.2.4,MacIntel,60,,,,,,,,,,,,,,,,,,,,,1,0,340,149,1,339,ratio19_1_10_20.png,,,,,,,,,,,,
,,,,,,,,,,,,More than half,Some,Half,Less than half,Many,Most,None,Few,All,-0.101944444,0.039340278,1,0,0,QQQ5,,,,,,,,English,2020-06-16_15h34.09.477,Experiment_English,3.2.4,MacIntel,60,,,,,,,,,,,,,,,,,,,,,1,0,340,260,1,339,ratio41_4_5_2.png,,,,,,,,,,,,
,,,,,,,,,,,,All,Few,More than half,Some,Most,Half,Less than half,Many,None,0.094991319,0.005768229,1,0,0,QQQ5,,,,,,,,English,2020-06-16_15h34.09.477,Experiment_English,3.2.4,MacIntel,60,,,,,,,,,,,,,,,,,,,,,1,0,340,338,1,339,ratio91_18_20_18.png,,,,,,,,,,,,
,,,,,,,,,,,,Many,Some,None,Half,More than half,Few,Less than half,All,Most,-0.53452691,-0.27047309,1,0,0,QQQ9,,,,,,,,English,2020-06-16_15h34.09.477,Experiment_English,3.2.4,MacIntel,60,,,,,,,,,,,,,,,,,,,,,1,0,340,331,1,339,ratio91_18_20_3.png,,,,,,,,,,,,
,,,,,,,,,,,,None,All,Half,Many,More than half,Most,Some,Few,Less than half,-0.105703125,-0.077447917,1,0,0,QQQ5,,,,,,,,English,2020-06-16_15h34.09.477,Experiment_English,3.2.4,MacIntel,60,,,,,,,,,,,,,,,,,,,,,1,0,340,235,1,339,ratio32_12_20_1.png,,,,,,,,,,,,
,,,,,,,,,,,,Half,Most,More than half,All,Some,None,Many,Less than half,Few,-0.524105903,-0.00969184,1,0,0,QQQ8,,,,,,,,English,2020-06-16_15h34.09.477,Experiment_English,3.2.4,MacIntel,60,,,,,,,,,,,,,,,,,,,,,1,0,340,287,1,339,ratio43_4_7_17.png,,,,,,,,,,,,
,,,,,,,,,,,,Many,More than half,All,Half,None,Most,Some,Few,Less than half,-0.458940972,-0.031979167,1,0,0,QQQ8,,,,,,,,English,2020-06-16_15h34.09.477,Experiment_English,3.2.4,MacIntel,60,,,,,,,,,,,,,,,,,,,,,1,0,340,182,1,339,ratio23_2_5_7.png,,,,,,,,,,,,
,,,,,,,,,,,,Most,More than half,Half,None,Few,Many,All,Less than half,Some,0.554609375,0.236731771,1,0,0,QQQ1,,,,,,,,English,2020-06-16_15h34.09.477,Experiment_English,3.2.4,MacIntel,60,,,,,,,,,,,,,,,,,,,,,1,0,340,273,1,339,ratio41_12_15_8.png,,,,,,,,,,,,
,,,,,,,,,,,,Most,Half,Few,Many,More than half,Some,All,None,Less than half,0.059166667,-0.017873264,1,0,0,QQQ5,,,,,,,,English,2020-06-16_15h34.09.477,Experiment_English,3.2.4,MacIntel,60,,,,,,,,,,,,,,,,,,,,,1,0,340,256,1,339,ratio34_6_14_11.png,,,,,,,,,,,,
,,,,,,,,,,,,Less than half,None,Most,Few,All,More than half,Half,Some,Many,-0.014861111,-0.34234809,1,0,0,QQQ6,,,,,,,,English,2020-06-16_15h34.09.477,Experiment_English,3.2.4,MacIntel,60,,,,,,,,,,,,,,,,,,,,,1,0,340,222,1,339,ratio32_3_5_4.png,,,,,,,,,,,,
,,,,,,,,,,,,Few,None,More than half,Most,All,Some,Half,Less than half,Many,-0.550946181,-0.324240451,1,0,0,QQQ9,,,,,,,,English,2020-06-16_15h34.09.477,Experiment_English,3.2.4,MacIntel,60,,,,,,,,,,,,,,,,,,,,,1,0,340,206,1,339,ratio31_6_8_6.png,,,,,,,,,,,,
,,,,,,,,,,,,Less than half,Most,Half,Few,All,Many,Some,None,More than half,0.545325521,-0.018628472,1,0,0,QQQ2,,,,,,,,English,2020-06-16_15h34.09.477,Experiment_English,3.2.4,MacIntel,60,,,,,,,,,,,,,,,,,,,,,1,0,340,330,1,339,ratio91_18_20_2.png,,,,,,,,,,,,
,,,,,,,,,,,,Half,None,Many,Some,Few,Most,More than half,All,Less than half,0.077899306,-0.323242188,1,0,0,QQQ6,,,,,,,,English,2020-06-16_15h34.09.477,Experiment_English,3.2.4,MacIntel,60,,,,,,,,,,,,,,,,,,,,,1,0,340,176,1,339,ratio21_10_15_3.png,,,,,,,,,,,,
,,,,,,,,,,,,More than half,Less than half,Few,All,Half,Many,Some,None,Most,-0.394249132,-0.059149306,1,0,0,QQQ8,,,,,,,,English,2020-06-16_15h34.09.477,Experiment_English,3.2.4,MacIntel,60,,,,,,,,,,,,,,,,,,,,,1,0,340,68,1,339,ratio0Y_0_11_3.png,,,,,,,,,,,,
,,,,,,,,,,,,Few,Most,Many,All,More than half,Some,None,Less than half,Half,-0.006957465,-0.047113715,1,0,0,QQQ5,,,,,,,,English,2020-06-16_15h34.09.477,Experiment_English,3.2.4,MacIntel,60,,,,,,,,,,,,,,,,,,,,,1,0,340,263,1,339,ratio41_4_5_5.png,,,,,,,,,,,,
,,,,,,,,,,,,Some,Many,All,None,Most,More than half,Half,Less than half,Few,-0.083164062,-0.314322917,1,0,0,QQQ6,,,,,,,,English,2020-06-16_15h34.09.477,Experiment_English,3.2.4,MacIntel,60,,,,,,,,,,,,,,,,,,,,,1,0,340,234,1,339,ratio32_9_15_10.png,,,,,,,,,,,,
,,,,,,,,,,,,Few,Half,Some,More than half,All,Many,Most,Less than half,None,-0.414561632,0.257105035,1,0,0,QQQ7,,,,,,,,English,2020-06-16_15h34.09.477,Experiment_English,3.2.4,MacIntel,60,,,,,,,,,,,,,,,,,,,,,1,0,340,329,1,339,ratio91_9_10_20.png,,,,,,,,,,,,
,,,,,,,,,,,,More than half,All,Some,Less than half,Many,Half,Few,None,Most,-0.000425347,-0.345360243,1,0,0,QQQ6,,,,,,,,English,2020-06-16_15h34.09.477,Experiment_English,3.2.4,MacIntel,60,,,,,,,,,,,,,,,,,,,,,1,0,340,191,1,339,ratio23_6_15_7.png,,,,,,,,,,,,
,,,,,,,,,,,,None,Few,Most,Half,Many,All,Less than half,Some,More than half,-0.434275174,0.255546875,1,0,0,QQQ7,,,,,,,,English,2020-06-16_15h34.09.477,Experiment_English,3.2.4,MacIntel,60,,,,,,,,,,,,,,,,,,,,,1,0,340,89,1,339,ratio13_3_12_6.png,0.357543403,-0.377526042,1,0,0,continue_button_pause,1,0,1,0,1,0
,,,,,,,,,,,,,,,,,,,,,,,,,,,,,,,,,,English,2020-06-16_15h34.09.477,Experiment_English,3.2.4,MacIntel,60,,,,,,,,,,,,,,,,,,,,,1,0,340,89,1,339,ratio13_3_12_6.png,,,,,,,,,,,,
,,,,,,,,,,,,All,Half,Many,Some,Few,Less than half,More than half,None,Most,-0.468606771,-0.348342014,1,0,0,QQQ9,,,,,,,,English,2020-06-16_15h34.09.477,Experiment_English,3.2.4,MacIntel,60,,,,,,,,,,,,,,,,,,,,,1,0,340,261,1,339,ratio41_4_5_3.png,,,,,,,,,,,,
,,,,,,,,,,,,None,Half,Less than half,Many,Most,Some,Few,All,More than half,-0.451397569,0.219405382,1,0,0,QQQ7,,,,,,,,English,2020-06-16_15h34.09.477,Experiment_English,3.2.4,MacIntel,60,,,,,,,,,,,,,,,,,,,,,1,0,340,129,1,339,ratio15_2_12_9.png,,,,,,,,,,,,
,,,,,,,,,,,,Few,Many,Half,Some,Most,All,Less than half,More than half,None,0.433038194,-0.346289063,1,0,0,QQQ3,,,,,,,,English,2020-06-16_15h34.09.477,Experiment_English,3.2.4,MacIntel,60,,,,,,,,,,,,,,,,,,,,,1,0,340,24,1,339,ratio11_4_8_3.png,,,,,,,,,,,,
,,,,,,,,,,,,More than half,Some,Many,Most,None,Less than half,Half,Few,All,0.013767361,0.263472222,1,0,0,QQQ4,,,,,,,,English,2020-06-16_15h34.09.477,Experiment_English,3.2.4,MacIntel,60,,,,,,,,,,,,,,,,,,,,,1,0,340,69,1,339,ratio0Y_0_11_6.png,,,,,,,,,,,,
,,,,,,,,,,,,Few,Some,Many,Most,All,None,More than half,Less than half,Half,0.080429687,0.294761285,1,0,0,QQQ4,,,,,,,,English,2020-06-16_15h34.09.477,Experiment_English,3.2.4,MacIntel,60,,,,,,,,,,,,,,,,,,,,,1,0,340,268,1,339,ratio41_8_10_5.png,,,,,,,,,,,,
,,,,,,,,,,,,Half,All,Few,Most,More than half,Many,None,Some,Less than half,-0.411427951,-0.304913194,1,0,0,QQQ9,,,,,,,,English,2020-06-16_15h34.09.477,Experiment_English,3.2.4,MacIntel,60,,,,,,,,,,,,,,,,,,,,,1,0,340,5,1,339,ratio12_2_6_9.png,,,,,,,,,,,,
,,,,,,,,,,,,All,Many,More than half,Few,Some,None,Less than half,Half,Most,0.054787326,0.316141493,1,0,0,QQQ4,,,,,,,,English,2020-06-16_15h34.09.477,Experiment_English,3.2.4,MacIntel,60,,,,,,,,,,,,,,,,,,,,,1,0,340,91,1,339,ratio13_3_12_10.png,,,,,,,,,,,,
,,,,,,,,,,,,Most,All,Few,Some,Less than half,Half,Many,None,More than half,0.421770833,-0.220681424,1,0,0,QQQ3,,,,,,,,English,2020-06-16_15h34.09.477,Experiment_English,3.2.4,MacIntel,60,,,,,,,,,,,,,,,,,,,,,1,0,340,124,1,339,ratio15_1_6_16.png,,,,,,,,,,,,
,,,,,,,,,,,,Most,All,None,Few,Many,More than half,Less than half,Some,Half,0.559826389,-0.0440625,1,0,0,QQQ2,,,,,,,,English,2020-06-16_15h34.09.477,Experiment_English,3.2.4,MacIntel,60,,,,,,,,,,,,,,,,,,,,,1,0,340,41,1,339,ratioX0_4_4_9.png,,,,,,,,,,,,
,,,,,,,,,,,,More than half,Most,Many,All,Few,Less than half,Half,None,Some,-0.356111111,0.006024306,1,0,0,QQQ8,,,,,,,,English,2020-06-16_15h34.09.477,Experiment_English,3.2.4,MacIntel,60,,,,,,,,,,,,,,,,,,,,,1,0,340,75,1,339,ratio0Y_0_16_10.png,,,,,,,,,,,,
,,,,,,,,,,,,Less than half,More than half,All,Few,Some,Most,None,Half,Many,0.400199653,-0.000837674,1,0,0,QQQ2,,,,,,,,English,2020-06-16_15h34.09.477,Experiment_English,3.2.4,MacIntel,60,,,,,,,,,,,,,,,,,,,,,1,0,340,259,1,339,ratio34_6_14_19.png,,,,,,,,,,,,
,,,,,,,,,,,,Few,Less than half,Some,Most,None,More than half,Many,Half,All,0.435013021,0.301775174,1,0,0,QQQ1,,,,,,,,English,2020-06-16_15h34.09.477,Experiment_English,3.2.4,MacIntel,60,,,,,,,,,,,,,,,,,,,,,1,0,340,4,1,339,ratio12_2_6_5.png,,,,,,,,,,,,
,,,,,,,,,,,,Less than half,All,None,Some,Half,Many,More than half,Few,Most,0.476532118,-0.334288194,1,0,0,QQQ3,,,,,,,,English,2020-06-16_15h34.09.477,Experiment_English,3.2.4,MacIntel,60,,,,,,,,,,,,,,,,,,,,,1,0,340,77,1,339,ratio0Y_0_18_3.png,,,,,,,,,,,,
,,,,,,,,,,,,More than half,Few,Many,None,Some,Most,Less than half,All,Half,-0.418424479,-0.314036458,1,0,0,QQQ9,,,,,,,,English,2020-06-16_15h34.09.477,Experiment_English,3.2.4,MacIntel,60,,,,,,,,,,,,,,,,,,,,,1,0,340,257,1,339,ratio34_6_14_12.png,,,,,,,,,,,,
,,,,,,,,,,,,Some,Less than half,Many,Most,Half,All,More than half,None,Few,0.097118056,0.342291667,1,0,0,QQQ4,,,,,,,,English,2020-06-16_15h34.09.477,Experiment_English,3.2.4,MacIntel,60,,,,,,,,,,,,,,,,,,,,,1,0,340,334,1,339,ratio91_18_20_9.png,,,,,,,,,,,,
,,,,,,,,,,,,All,Few,None,More than half,Most,Many,Some,Half,Less than half,0.52625434,0.272734375,1,0,0,QQQ1,,,,,,,,English,2020-06-16_15h34.09.477,Experiment_English,3.2.4,MacIntel,60,,,,,,,,,,,,,,,,,,,,,1,0,340,53,1,339,ratioX0_14_14_8.png,,,,,,,,,,,,
,,,,,,,,,,,,Most,Some,Less than half,Half,All,None,Many,More than half,Few,0.572361111,0.243923611,1,0,0,QQQ1,,,,,,,,English,2020-06-16_15h34.09.477,Experiment_English,3.2.4,MacIntel,60,,,,,,,,,,,,,,,,,,,,,1,0,340,210,1,339,ratio31_9_12_9.png,,,,,,,,,,,,
,,,,,,,,,,,,None,Many,Some,Half,Most,Less than half,More than half,All,Few,-0.465078125,-0.295894097,1,0,0,QQQ9,,,,,,,,English,2020-06-16_15h34.09.477,Experiment_English,3.2.4,MacIntel,60,,,,,,,,,,,,,,,,,,,,,1,0,340,152,1,339,ratio19_2_20_6.png,,,,,,,,,,,,
,,,,,,,,,,,,Some,Most,None,More than half,Many,Few,All,Half,Less than half,0.373242187,-0.036766493,1,0,0,QQQ2,,,,,,,,English,2020-06-16_15h34.09.477,Experiment_English,3.2.4,MacIntel,60,,,,,,,,,,,,,,,,,,,,,1,0,340,168,1,339,ratio21_6_9_3.png,,,,,,,,,,,,
,,,,,,,,,,,,Half,None,Many,Some,More than half,Few,Less than half,Most,All,0.574036458,-0.292573785,1,0,0,QQQ3,,,,,,,,English,2020-06-16_15h34.09.477,Experiment_English,3.2.4,MacIntel,60,,,,,,,,,,,,,,,,,,,,,1,0,340,34,1,339,ratio11_8_16_8.png,,,,,,,,,,,,
,,,,,,,,,,,,More than half,Few,None,Most,All,Some,Half,Many,Less than half,0.538693576,-0.029552951,1,0,0,QQQ2,,,,,,,,English,2020-06-16_15h34.09.477,Experiment_English,3.2.4,MacIntel,60,,,,,,,,,,,,,,,,,,,,,1,0,340,81,1,339,ratio13_1_4_5.png,,,,,,,,,,,,
,,,,,,,,,,,,Half,More than half,Few,Most,Less than half,Many,All,Some,None,-0.025542535,-0.049175347,1,0,0,QQQ5,,,,,,,,English,2020-06-16_15h34.09.477,Experiment_English,3.2.4,MacIntel,60,,,,,,,,,,,,,,,,,,,,,1,0,340,87,1,339,ratio13_2_8_8.png,,,,,,,,,,,,
,,,,,,,,,,,,More than half,Some,None,Most,Half,Less than half,Few,All,Many,-0.603793403,-0.314014757,1,0,0,QQQ9,,,,,,,,English,2020-06-16_15h34.09.477,Experiment_English,3.2.4,MacIntel,60,,,,,,,,,,,,,,,,,,,,,1,0,340,310,1,339,ratio51_10_12_12.png,,,,,,,,,,,,
,,,,,,,,,,,,Most,Many,Few,None,More than half,Half,All,Less than half,Some,-0.385082465,-0.07640191,1,0,0,QQQ8,,,,,,,,English,2020-06-16_15h34.09.477,Experiment_English,3.2.4,MacIntel,60,,,,,,,,,,,,,,,,,,,,,1,0,340,90,1,339,ratio13_3_12_7.png,,,,,,,,,,,,
,,,,,,,,,,,,More than half,Most,Half,Few,None,Many,Less than half,Some,All,-0.459448785,0.296197917,1,0,0,QQQ7,,,,,,,,English,2020-06-16_15h34.09.477,Experiment_English,3.2.4,MacIntel,60,,,,,,,,,,,,,,,,,,,,,1,0,340,195,1,339,ratio23_8_20_1.png,,,,,,,,,,,,
,,,,,,,,,,,,More than half,Some,Half,All,Less than half,Few,None,Most,Many,-0.027717014,-0.336740451,1,0,0,QQQ6,,,,,,,,English,2020-06-16_15h34.09.477,Experiment_English,3.2.4,MacIntel,60,,,,,,,,,,,,,,,,,,,,,1,0,340,139,1,339,ratio15_3_18_20.png,,,,,,,,,,,,
,,,,,,,,,,,,All,Some,Most,More than half,None,Many,Half,Less than half,Few,0.570217014,0.046380208,1,0,0,QQQ2,,,,,,,,English,2020-06-16_15h34.09.477,Experiment_English,3.2.4,MacIntel,60,,,,,,,,,,,,,,,,,,,,,1,0,340,28,1,339,ratio11_5_10_9.png,,,,,,,,,,,,
,,,,,,,,,,,,Half,Few,Many,Some,Most,None,All,Less than half,More than half,0.139032118,-0.004331597,1,0,0,QQQ5,,,,,,,,English,2020-06-16_15h34.09.477,Experiment_English,3.2.4,MacIntel,60,,,,,,,,,,,,,,,,,,,,,1,0,340,231,1,339,ratio32_9_15_2.png,,,,,,,,,,,,
,,,,,,,,,,,,All,None,More than half,Few,Half,Most,Some,Less than half,Many,-0.140095486,0.292647569,1,0,0,QQQ4,,,,,,,,English,2020-06-16_15h34.09.477,Experiment_English,3.2.4,MacIntel,60,,,,,,,,,,,,,,,,,,,,,1,0,340,156,1,339,ratio19_2_20_14.png,,,,,,,,,,,,
,,,,,,,,,,,,Some,None,More than half,All,Many,Most,Half,Few,Less than half,-0.461914063,-0.323111979,1,0,0,QQQ9,,,,,,,,English,2020-06-16_15h34.09.477,Experiment_English,3.2.4,MacIntel,60,,,,,,,,,,,,,,,,,,,,,1,0,340,249,1,339,ratio34_3_7_20.png,,,,,,,,,,,,
,,,,,,,,,,,,Some,All,Most,Few,Half,Many,None,Less than half,More than half,0.117556424,-0.281532118,1,0,0,QQQ6,,,,,,,,English,2020-06-16_15h34.09.477,Experiment_English,3.2.4,MacIntel,60,,,,,,,,,,,,,,,,,,,,,1,0,340,305,1,339,ratio51_5_6_14.png,,,,,,,,,,,,
,,,,,,,,,,,,Some,Half,Many,None,Most,Less than half,Few,More than half,All,0.008806424,0.298259549,1,0,0,QQQ4,,,,,,,,English,2020-06-16_15h34.09.477,Experiment_English,3.2.4,MacIntel,60,,,,,,,,,,,,,,,,,,,,,1,0,340,79,1,339,ratio0Y_0_20_4.png,,,,,,,,,,,,
,,,,,,,,,,,,None,Some,All,More than half,Less than half,Few,Half,Most,Many,-0.050351563,0.268207465,1,0,0,QQQ4,,,,,,,,English,2020-06-16_15h34.09.477,Experiment_English,3.2.4,MacIntel,60,,,,,,,,,,,,,,,,,,,,,1,0,340,165,1,339,ratio21_4_6_10.png,,,,,,,,,,,,
,,,,,,,,,,,,Few,More than half,Some,Half,Less than half,All,Most,Many,None,-0.404973958,0.238967014,1,0,0,QQQ7,,,,,,,,English,2020-06-16_15h34.09.477,Experiment_English,3.2.4,MacIntel,60,,,,,,,,,,,,,,,,,,,,,1,0,340,319,1,339,ratio51_15_18_20.png,0.351284722,-0.380221354,1,0,0,continue_button_pause,1,0,1,0,1,0
,,,,,,,,,,,,,,,,,,,,,,,,,,,,,,,,,,English,2020-06-16_15h34.09.477,Experiment_English,3.2.4,MacIntel,60,,,,,,,,,,,,,,,,,,,,,1,0,340,319,1,339,ratio51_15_18_20.png,,,,,,,,,,,,
,,,,,,,,,,,,None,Few,Some,Less than half,Many,All,Most,Half,More than half,0.494774306,-0.026779514,1,0,0,QQQ2,,,,,,,,English,2020-06-16_15h34.09.477,Experiment_English,3.2.4,MacIntel,60,,,,,,,,,,,,,,,,,,,,,1,0,340,101,1,339,ratio14_1_5_7.png,,,,,,,,,,,,
,,,,,,,,,,,,More than half,Most,Few,Less than half,None,Many,All,Some,Half,-0.027278646,-0.337773437,1,0,0,QQQ6,,,,,,,,English,2020-06-16_15h34.09.477,Experiment_English,3.2.4,MacIntel,60,,,,,,,,,,,,,,,,,,,,,1,0,340,232,1,339,ratio32_9_15_8.png,,,,,,,,,,,,
,,,,,,,,,,,,Many,Less than half,Most,Half,All,More than half,Some,None,Few,-0.524943576,-0.357903646,1,0,0,QQQ9,,,,,,,,English,2020-06-16_15h34.09.477,Experiment_English,3.2.4,MacIntel,60,,,,,,,,,,,,,,,,,,,,,1,0,340,159,1,339,ratio19_2_20_20.png,,,,,,,,,,,,
,,,,,,,,,,,,Many,Half,Most,All,None,More than half,Less than half,Few,Some,-0.012899306,0.26952691,1,0,0,QQQ4,,,,,,,,English,2020-06-16_15h34.09.477,Experiment_English,3.2.4,MacIntel,60,,,,,,,,,,,,,,,,,,,,,1,0,340,52,1,339,ratioX0_13_13_10.png,,,,,,,,,,,,
,,,,,,,,,,,,None,Some,Few,All,Many,Most,More than half,Half,Less than half,-0.402591146,0.319409722,1,0,0,QQQ7,,,,,,,,English,2020-06-16_15h34.09.477,Experiment_English,3.2.4,MacIntel,60,,,,,,,,,,,,,,,,,,,,,1,0,340,228,1,339,ratio32_6_10_7.png,,,,,,,,,,,,
,,,,,,,,,,,,Less than half,More than half,Half,Many,Most,None,Some,All,Few,-0.49640625,-0.060798611,1,0,0,QQQ8,,,,,,,,English,2020-06-16_15h34.09.477,Experiment_English,3.2.4,MacIntel,60,,,,,,,,,,,,,,,,,,,,,1,0,340,43,1,339,ratioX0_6_6_9.png,,,,,,,,,,,,
,,,,,,,,,,,,None,Few,Many,Some,More than half,Half,Most,Less than half,All,0.017135417,-0.039335938,1,0,0,QQQ5,,,,,,,,English,2020-06-16_15h34.09.477,Experiment_English,3.2.4,MacIntel,60,,,,,,,,,,,,,,,,,,,,,1,0,340,204,1,339,ratio31_6_8_1.png,,,,,,,,,,,,
,,,,,,,,,,,,All,Half,Most,None,More than half,Some,Less than half,Many,Few,0.436306424,-0.293229167,1,0,0,QQQ3,,,,,,,,English,2020-06-16_15h34.09.477,Experiment_English,3.2.4,MacIntel,60,,,,,,,,,,,,,,,,,,,,,1,0,340,332,1,339,ratio91_18_20_4.png,,,,,,,,,,,,
,,,,,,,,,,,,Many,Less than half,Some,More than half,All,Few,Most,Half,None,0.009678819,0.019752604,1,0,0,QQQ5,,,,,,,,English,2020-06-16_15h34.09.477,Experiment_English,3.2.4,MacIntel,60,,,,,,,,,,,,,,,,,,,,,1,0,340,54,1,339,ratioX0_15_15_5.png,,,,,,,,,,,,
,,,,,,,,,,,,All,Half,Less than half,More than half,Many,Some,None,Few,Most,-0.429739583,-0.292365451,1,0,0,QQQ9,,,,,,,,English,2020-06-16_15h34.09.477,Experiment_English,3.2.4,MacIntel,60,,,,,,,,,,,,,,,,,,,,,1,0,340,98,1,339,ratio13_5_20_3.png,,,,,,,,,,,,
,,,,,,,,,,,,Half,More than half,All,Most,Less than half,Few,Many,None,Some,0.04827691,0.344097222,1,0,0,QQQ4,,,,,,,,English,2020-06-16_15h34.09.477,Experiment_English,3.2.4,MacIntel,60,,,,,,,,,,,,,,,,,,,,,1,0,340,314,1,339,ratio51_15_18_4.png,,,,,,,,,,,,
,,,,,,,,,,,,All,Many,Less than half,None,Most,Half,More than half,Few,Some,0.606510417,-0.344101563,1,0,0,QQQ3,,,,,,,,English,2020-06-16_15h34.09.477,Experiment_English,3.2.4,MacIntel,60,,,,,,,,,,,,,,,,,,,,,1,0,340,96,1,339,ratio13_5_20_1.png,,,,,,,,,,,,
,,,,,,,,,,,,Some,More than half,None,Half,Many,All,Few,Less than half,Most,-0.049292535,0.38328559,1,0,0,QQQ4,,,,,,,,English,2020-06-16_15h34.09.477,Experiment_English,3.2.4,MacIntel,60,,,,,,,,,,,,,,,,,,,,,1,0,340,245,1,339,ratio34_3_7_10.png,,,,,,,,,,,,
,,,,,,,,,,,,None,Few,Many,Less than half,All,Half,Some,More than half,Most,-0.423172743,0.004661458,1,0,0,QQQ8,,,,,,,,English,2020-06-16_15h34.09.477,Experiment_English,3.2.4,MacIntel,60,,,,,,,,,,,,,,,,,,,,,1,0,340,236,1,339,ratio32_12_20_2.png,,,,,,,,,,,,
,,,,,,,,,,,,Few,All,None,Many,Some,Less than half,Most,Half,More than half,-0.369192708,-0.304192708,1,0,0,QQQ9,,,,,,,,English,2020-06-16_15h34.09.477,Experiment_English,3.2.4,MacIntel,60,,,,,,,,,,,,,,,,,,,,,1,0,340,201,1,339,ratio31_3_4_7.png,,,,,,,,,,,,
,,,,,,,,,,,,None,More than half,Most,Some,Many,Few,Half,Less than half,All,-0.408723958,-0.021427951,1,0,0,QQQ8,,,,,,,,English,2020-06-16_15h34.09.477,Experiment_English,3.2.4,MacIntel,60,,,,,,,,,,,,,,,,,,,,,1,0,340,255,1,339,ratio34_6_14_10.png,,,,,,,,,,,,
,,,,,,,,,,,,Some,All,Half,Many,Most,None,Less than half,Few,More than half,-0.483880208,0.312100694,1,0,0,QQQ7,,,,,,,,English,2020-06-16_15h34.09.477,Experiment_English,3.2.4,MacIntel,60,,,,,,,,,,,,,,,,,,,,,1,0,340,36,1,339,ratio11_9_18_1.png,,,,,,,,,,,,
,,,,,,,,,,,,Less than half,Some,Most,All,Half,None,More than half,Few,Many,-0.529131944,0.004817708,1,0,0,QQQ8,,,,,,,,English,2020-06-16_15h34.09.477,Experiment_English,3.2.4,MacIntel,60,,,,,,,,,,,,,,,,,,,,,1,0,340,151,1,339,ratio19_2_20_4.png,,,,,,,,,,,,
,,,,,,,,,,,,All,Half,More than half,None,Few,Less than half,Some,Most,Many,-0.422482639,-0.235798611,1,0,0,QQQ9,,,,,,,,English,2020-06-16_15h34.09.477,Experiment_English,3.2.4,MacIntel,60,,,,,,,,,,,,,,,,,,,,,1,0,340,213,1,339,ratio31_12_16_2.png,,,,,,,,,,,,
,,,,,,,,,,,,Many,Some,Few,Half,Less than half,None,More than half,All,Most,0.016462674,-0.01625,1,0,0,QQQ5,,,,,,,,English,2020-06-16_15h34.09.477,Experiment_English,3.2.4,MacIntel,60,,,,,,,,,,,,,,,,,,,,,1,0,340,99,1,339,ratio13_5_20_4.png,,,,,,,,,,,,
,,,,,,,,,,,,All,More than half,Some,Half,Few,None,Less than half,Many,Most,0.014201389,-0.012743056,1,0,0,QQQ5,,,,,,,,English,2020-06-16_15h34.09.477,Experiment_English,3.2.4,MacIntel,60,,,,,,,,,,,,,,,,,,,,,1,0,340,143,1,339,ratio19_1_10_9.png,,,,,,,,,,,,
,,,,,,,,,,,,Some,Many,Half,More than half,Most,Less than half,All,Few,None,0.004010417,0.230117187,1,0,0,QQQ4,,,,,,,,English,2020-06-16_15h34.09.477,Experiment_English,3.2.4,MacIntel,60,,,,,,,,,,,,,,,,,,,,,1,0,340,274,1,339,ratio41_12_15_9.png,,,,,,,,,,,,
,,,,,,,,,,,,Half,Less than half,None,More than half,Few,Some,Many,All,Most,-0.422552083,-0.30452691,1,0,0,QQQ9,,,,,,,,English,2020-06-16_15h34.09.477,Experiment_English,3.2.4,MacIntel,60,,,,,,,,,,,,,,,,,,,,,1,0,340,322,1,339,ratio91_9_10_3.png,,,,,,,,,,,,
,,,,,,,,,,,,Half,More than half,Many,None,Most,Few,All,Some,Less than half,0.47453125,0.283945312,1,0,0,QQQ1,,,,,,,,English,2020-06-16_15h34.09.477,Experiment_English,3.2.4,MacIntel,60,,,,,,,,,,,,,,,,,,,,,1,0,340,196,1,339,ratio23_8_20_5.png,,,,,,,,,,,,
,,,,,,,,,,,,Most,More than half,All,None,Few,Many,Some,Less than half,Half,0.511341146,-0.059479167,1,0,0,QQQ2,,,,,,,,English,2020-06-16_15h34.09.477,Experiment_English,3.2.4,MacIntel,60,,,,,,,,,,,,,,,,,,,,,1,0,340,167,1,339,ratio21_6_9_2.png,,,,,,,,,,,,
,,,,,,,,,,,,More than half,Half,Less than half,Few,Many,All,Most,None,Some,0.414722222,-0.287122396,1,0,0,QQQ3,,,,,,,,English,2020-06-16_15h34.09.477,Experiment_English,3.2.4,MacIntel,60,,,,,,,,,,,,,,,,,,,,,1,0,340,95,1,339,ratio13_4_16_10.png,,,,,,,,,,,,
,,,,,,,,,,,,Few,Half,More than half,None,Less than half,Some,Many,Most,All,0.538945312,0.338650174,1,0,0,QQQ1,,,,,,,,English,2020-06-16_15h34.09.477,Experiment_English,3.2.4,MacIntel,60,,,,,,,,,,,,,,,,,,,,,1,0,340,126,1,339,ratio15_2_12_1.png,,,,,,,,,,,,
,,,,,,,,,,,,Some,Less than half,Most,More than half,Many,None,Few,All,Half,-0.420130208,0.265039062,1,0,0,QQQ7,,,,,,,,English,2020-06-16_15h34.09.477,Experiment_English,3.2.4,MacIntel,60,,,,,,,,,,,,,,,,,,,,,1,0,340,223,1,339,ratio32_3_5_5.png,,,,,,,,,,,,
,,,,,,,,,,,,Few,Many,None,Some,Half,All,More than half,Less than half,Most,-0.420130208,0.265039062,1,0,0,QQQ7,,,,,,,,English,2020-06-16_15h34.09.477,Experiment_English,3.2.4,MacIntel,60,,,,,,,,,,,,,,,,,,,,,1,0,340,306,1,339,ratio51_5_6_18.png,,,,,,,,,,,,
,,,,,,,,,,,,None,All,Less than half,Few,Many,More than half,Half,Most,Some,0.425121528,0.280507813,1,0,0,QQQ1,,,,,,,,English,2020-06-16_15h34.09.477,Experiment_English,3.2.4,MacIntel,60,,,,,,,,,,,,,,,,,,,,,1,0,340,60,1,339,ratio0Y_0_3_5.png,,,,,,,,,,,,
,,,,,,,,,,,,Some,All,Few,Less than half,More than half,Many,Half,Most,None,0.014787326,-0.319197049,1,0,0,QQQ6,,,,,,,,English,2020-06-16_15h34.09.477,Experiment_English,3.2.4,MacIntel,60,,,,,,,,,,,,,,,,,,,,,1,0,340,300,1,339,ratio51_5_6_1.png,,,,,,,,,,,,
,,,,,,,,,,,,Many,None,Most,All,Few,Some,Less than half,More than half,Half,-0.417278646,0.266467014,1,0,0,QQQ7,,,,,,,,English,2020-06-16_15h34.09.477,Experiment_English,3.2.4,MacIntel,60,,,,,,,,,,,,,,,,,,,,,1,0,340,244,1,339,ratio34_3_7_9.png,,,,,,,,,,,,
,,,,,,,,,,,,Half,Few,Most,Less than half,More than half,All,None,Some,Many,0.657903646,0.381493056,1,0,0,QQQ1,,,,,,,,English,2020-06-16_15h34.09.477,Experiment_English,3.2.4,MacIntel,60,,,,,,,,,,,,,,,,,,,,,1,0,340,194,1,339,ratio23_6_15_10.png,,,,,,,,,,,,
,,,,,,,,,,,,Most,Few,None,Many,All,Half,Some,Less than half,More than half,-0.433363715,-0.005399306,1,0,0,QQQ8,,,,,,,,English,2020-06-16_15h34.09.477,Experiment_English,3.2.4,MacIntel,60,,,,,,,,,,,,,,,,,,,,,1,0,340,9,1,339,ratio12_3_9_5.png,0.373780382,-0.391770833,1,0,0,continue_button_pause,1,0,1,0,1,0
,,,,,,,,,,,,,,,,,,,,,,,,,,,,,,,,,,English,2020-06-16_15h34.09.477,Experiment_English,3.2.4,MacIntel,60,,,,,,,,,,,,,,,,,,,,,1,0,340,9,1,339,ratio12_3_9_5.png,,,,,,,,,,,,
,,,,,,,,,,,,Less than half,Some,Half,All,None,Most,More than half,Few,Many,0.003732639,-0.072226562,1,0,0,QQQ5,,,,,,,,English,2020-06-16_15h34.09.477,Experiment_English,3.2.4,MacIntel,60,,,,,,,,,,,,,,,,,,,,,1,0,340,73,1,339,ratio0Y_0_14_7.png,,,,,,,,,,,,
,,,,,,,,,,,,Less than half,All,None,Half,Many,Most,More than half,Few,Some,-0.443051215,0.212313368,1,0,0,QQQ7,,,,,,,,English,2020-06-16_15h34.09.477,Experiment_English,3.2.4,MacIntel,60,,,,,,,,,,,,,,,,,,,,,1,0,340,311,1,339,ratio51_10_12_14.png,,,,,,,,,,,,
,,,,,,,,,,,,None,Many,Some,Few,Less than half,All,Most,More than half,Half,-0.046436632,0.006440972,1,0,0,QQQ5,,,,,,,,English,2020-06-16_15h34.09.477,Experiment_English,3.2.4,MacIntel,60,,,,,,,,,,,,,,,,,,,,,1,0,340,13,1,339,ratio12_5_15_3.png,,,,,,,,,,,,
,,,,,,,,,,,,More than half,Half,None,All,Less than half,Many,Most,Few,Some,-0.007126736,0.346861979,1,0,0,QQQ4,,,,,,,,English,2020-06-16_15h34.09.477,Experiment_English,3.2.4,MacIntel,60,,,,,,,,,,,,,,,,,,,,,1,0,340,42,1,339,ratioX0_5_5_5.png,,,,,,,,,,,,
,,,,,,,,,,,,Few,None,More than half,Less than half,Half,Many,Most,All,Some,0.405585937,-0.295568576,1,0,0,QQQ3,,,,,,,,English,2020-06-16_15h34.09.477,Experiment_English,3.2.4,MacIntel,60,,,,,,,,,,,,,,,,,,,,,1,0,340,214,1,339,ratio31_12_16_5.png,,,,,,,,,,,,
,,,,,,,,,,,,Many,Some,More than half,All,Less than half,Most,Half,None,Few,0.413020833,-0.306184896,1,0,0,QQQ3,,,,,,,,English,2020-06-16_15h34.09.477,Experiment_English,3.2.4,MacIntel,60,,,,,,,,,,,,,,,,,,,,,1,0,340,281,1,339,ratio43_4_7_4.png,,,,,,,,,,,,
,,,,,,,,,,,,Many,Half,Less than half,Few,Most,None,More than half,Some,All,0.449175347,-0.05608941,1,0,0,QQQ2,,,,,,,,English,2020-06-16_15h34.09.477,Experiment_English,3.2.4,MacIntel,60,,,,,,,,,,,,,,,,,,,,,1,0,340,253,1,339,ratio34_6_14_5.png,,,,,,,,,,,,
,,,,,,,,,,,,Some,Many,All,Less than half,Half,More than half,None,Few,Most,-0.004991319,-0.277547743,1,0,0,QQQ6,,,,,,,,English,2020-06-16_15h34.09.477,Experiment_English,3.2.4,MacIntel,60,,,,,,,,,,,,,,,,,,,,,1,0,340,230,1,339,ratio32_9_15_1.png,,,,,,,,,,,,
,,,,,,,,,,,,All,Most,None,Half,Few,Many,Less than half,Some,More than half,-0.425711806,-0.295655382,1,0,0,QQQ9,,,,,,,,English,2020-06-16_15h34.09.477,Experiment_English,3.2.4,MacIntel,60,,,,,,,,,,,,,,,,,,,,,1,0,340,271,1,339,ratio41_12_15_6.png,,,,,,,,,,,,
,,,,,,,,,,,,None,Most,More than half,All,Many,Less than half,Few,Half,Some,-0.471171875,-0.004444444,1,0,0,QQQ8,,,,,,,,English,2020-06-16_15h34.09.477,Experiment_English,3.2.4,MacIntel,60,,,,,,,,,,,,,,,,,,,,,1,0,340,193,1,339,ratio23_6_15_9.png,,,,,,,,,,,,
,,,,,,,,,,,,Some,Few,Less than half,Most,More than half,Many,All,None,Half,0.555230035,0.006167535,1,0,0,QQQ2,,,,,,,,English,2020-06-16_15h34.09.477,Experiment_English,3.2.4,MacIntel,60,,,,,,,,,,,,,,,,,,,,,1,0,340,84,1,339,ratio13_2_8_1.png,,,,,,,,,,,,
,,,,,,,,,,,,Most,Many,Half,None,Some,All,More than half,Less than half,Few,-0.468402778,0.257612847,1,0,0,QQQ7,,,,,,,,English,2020-06-16_15h34.09.477,Experiment_English,3.2.4,MacIntel,60,,,,,,,,,,,,,,,,,,,,,1,0,340,49,1,339,ratioX0_11_11_2.png,,,,,,,,,,,,
,,,,,,,,,,,,All,Many,Half,Some,Most,None,Less than half,More than half,Few,-0.041614583,0.014565972,1,0,0,QQQ5,,,,,,,,English,2020-06-16_15h34.09.477,Experiment_English,3.2.4,MacIntel,60,,,,,,,,,,,,,,,,,,,,,1,0,340,294,1,339,ratio43_8_14_9.png,,,,,,,,,,,,
,,,,,,,,,,,,Many,More than half,Most,Less than half,None,Few,Half,All,Some,0.453611111,0.284861111,1,0,0,QQQ1,,,,,,,,English,2020-06-16_15h34.09.477,Experiment_English,3.2.4,MacIntel,60,,,,,,,,,,,,,,,,,,,,,1,0,340,207,1,339,ratio31_6_8_9.png,,,,,,,,,,,,
,,,,,,,,,,,,Half,More than half,All,Less than half,Some,None,Many,Most,Few,0.574049479,0.337196181,1,0,0,QQQ1,,,,,,,,English,2020-06-16_15h34.09.477,Experiment_English,3.2.4,MacIntel,60,,,,,,,,,,,,,,,,,,,,,1,0,340,243,1,339,ratio34_3_7_8.png,,,,,,,,,,,,
,,,,,,,,,,,,All,Most,Half,More than half,Few,Many,Some,Less than half,None,0.446814236,-0.003107639,1,0,0,QQQ2,,,,,,,,English,2020-06-16_15h34.09.477,Experiment_English,3.2.4,MacIntel,60,,,,,,,,,,,,,,,,,,,,,1,0,340,258,1,339,ratio34_6_14_14.png,,,,,,,,,,,,
,,,,,,,,,,,,Half,Some,Less than half,Many,Few,More than half,Most,None,All,0.535946181,-0.267638889,1,0,0,QQQ3,,,,,,,,English,2020-06-16_15h34.09.477,Experiment_English,3.2.4,MacIntel,60,,,,,,,,,,,,,,,,,,,,,1,0,340,21,1,339,ratio11_2_4_10.png,,,,,,,,,,,,
,,,,,,,,,,,,Less than half,Few,More than half,Half,All,Most,Many,Some,None,0.149479167,0.262356771,1,0,0,QQQ4,,,,,,,,English,2020-06-16_15h34.09.477,Experiment_English,3.2.4,MacIntel,60,,,,,,,,,,,,,,,,,,,,,1,0,340,20,1,339,ratio11_2_4_3.png,,,,,,,,,,,,
,,,,,,,,,,,,All,Half,Most,None,More than half,Some,Less than half,Many,Few,0.490251736,-0.051766493,1,0,0,QQQ2,,,,,,,,English,2020-06-16_15h34.09.477,Experiment_English,3.2.4,MacIntel,60,,,,,,,,,,,,,,,,,,,,,1,0,340,30,1,339,ratio11_6_12_6.png,,,,,,,,,,,,
,,,,,,,,,,,,Many,None,Most,Few,Less than half,Half,All,More than half,Some,0.134153646,0.224440104,1,0,0,QQQ4,,,,,,,,English,2020-06-16_15h34.09.477,Experiment_English,3.2.4,MacIntel,60,,,,,,,,,,,,,,,,,,,,,1,0,340,147,1,339,ratio19_1_10_18.png,,,,,,,,,,,,
,,,,,,,,,,,,Some,Many,All,Most,More than half,Few,Half,Less than half,None,0.464509549,-0.245616319,1,0,0,QQQ3,,,,,,,,English,2020-06-16_15h34.09.477,Experiment_English,3.2.4,MacIntel,60,,,,,,,,,,,,,,,,,,,,,1,0,340,40,1,339,ratioX0_3_3_5.png,,,,,,,,,,,,
,,,,,,,,,,,,More than half,None,Few,Half,Most,All,Some,Many,Less than half,0.009761285,-0.036918403,1,0,0,QQQ5,,,,,,,,English,2020-06-16_15h34.09.477,Experiment_English,3.2.4,MacIntel,60,,,,,,,,,,,,,,,,,,,,,1,0,340,327,1,339,ratio91_9_10_11.png,,,,,,,,,,,,
,,,,,,,,,,,,Many,All,More than half,Less than half,Most,Some,Half,Few,None,0.009761285,-0.036918403,1,0,0,QQQ5,,,,,,,,English,2020-06-16_15h34.09.477,Experiment_English,3.2.4,MacIntel,60,,,,,,,,,,,,,,,,,,,,,1,0,340,58,1,339,ratioX0_19_19_4.png,,,,,,,,,,,,
,,,,,,,,,,,,Less than half,Some,Few,None,All,Most,Many,Half,More than half,0.49453559,0.293697917,1,0,0,QQQ1,,,,,,,,English,2020-06-16_15h34.09.477,Experiment_English,3.2.4,MacIntel,60,,,,,,,,,,,,,,,,,,,,,1,0,340,180,1,339,ratio23_2_5_4.png,,,,,,,,,,,,
,,,,,,,,,,,,None,Less than half,More than half,Most,All,Many,Half,Some,Few,-0.528411458,-0.29905816,1,0,0,QQQ9,,,,,,,,English,2020-06-16_15h34.09.477,Experiment_English,3.2.4,MacIntel,60,,,,,,,,,,,,,,,,,,,,,1,0,340,102,1,339,ratio14_1_5_8.png,,,,,,,,,,,,
,,,,,,,,,,,,All,Most,Some,More than half,Less than half,Many,Half,Few,None,0.491818576,-0.045659722,1,0,0,QQQ2,,,,,,,,English,2020-06-16_15h34.09.477,Experiment_English,3.2.4,MacIntel,60,,,,,,,,,,,,,,,,,,,,,1,0,340,179,1,339,ratio21_12_18_8.png,,,,,,,,,,,,
,,,,,,,,,,,,Some,Half,None,Less than half,Most,Many,Few,All,More than half,0.075581597,0.289769965,1,0,0,QQQ4,,,,,,,,English,2020-06-16_15h34.09.477,Experiment_English,3.2.4,MacIntel,60,,,,,,,,,,,,,,,,,,,,,1,0,340,184,1,339,ratio23_2_5_10.png,,,,,,,,,,,,
,,,,,,,,,,,,Few,Half,Less than half,More than half,Many,Some,None,Most,All,0.494466146,-0.309991319,1,0,0,QQQ3,,,,,,,,English,2020-06-16_15h34.09.477,Experiment_English,3.2.4,MacIntel,60,,,,,,,,,,,,,,,,,,,,,1,0,340,188,1,339,ratio23_4_10_6.png,,,,,,,,,,,,
,,,,,,,,,,,,Less than half,None,Many,Most,All,Some,Few,More than half,Half,0.53780816,0.260399306,1,0,0,QQQ1,,,,,,,,English,2020-06-16_15h34.09.477,Experiment_English,3.2.4,MacIntel,60,,,,,,,,,,,,,,,,,,,,,1,0,340,15,1,339,ratio12_5_15_5.png,,,,,,,,,,,,
,,,,,,,,,,,,Few,Most,More than half,Half,Some,All,Many,None,Less than half,0.421571181,-0.049765625,1,0,0,QQQ2,,,,,,,,English,2020-06-16_15h34.09.477,Experiment_English,3.2.4,MacIntel,60,,,,,,,,,,,,,,,,,,,,,1,0,340,279,1,339,ratio41_16_20_10.png,,,,,,,,,,,,
,,,,,,,,,,,,Many,Most,Half,None,All,Some,Few,More than half,Less than half,0.421571181,-0.049765625,1,0,0,QQQ2,,,,,,,,English,2020-06-16_15h34.09.477,Experiment_English,3.2.4,MacIntel,60,,,,,,,,,,,,,,,,,,,,,1,0,340,173,1,339,ratio21_8_12_9.png,,,,,,,,,,,,
,,,,,,,,,,,,Less than half,More than half,Few,Half,Most,None,Some,Many,All,0.421571181,-0.049765625,1,0,0,QQQ2,,,,,,,,English,2020-06-16_15h34.09.477,Experiment_English,3.2.4,MacIntel,60,,,,,,,,,,,,,,,,,,,,,1,0,340,32,1,339,ratio11_7_14_5.png,,,,,,,,,,,,
,,,,,,,,,,,,Many,None,More than half,Most,Some,All,Less than half,Few,Half,-0.545125868,0.061019965,1,0,0,QQQ8,,,,,,,,English,2020-06-16_15h34.09.477,Experiment_English,3.2.4,MacIntel,60,,,,,,,,,,,,,,,,,,,,,1,0,340,114,1,339,ratio14_3_15_10.png,,,,,,,,,,,,
,,,,,,,,,,,,Few,Some,All,Most,Half,Many,More than half,Less than half,None,-0.507252604,0.224305556,1,0,0,QQQ7,,,,,,,,English,2020-06-16_15h34.09.477,Experiment_English,3.2.4,MacIntel,60,,,,,,,,,,,,,,,,,,,,,1,0,340,286,1,339,ratio43_4_7_15.png,0.34594184,-0.395490451,1,0,0,continue_button_pause,1,0,1,0,1,0
,,,,,,,,,,,,,,,,,,,,,,,,,,,,,,,,,,English,2020-06-16_15h34.09.477,Experiment_English,3.2.4,MacIntel,60,,,,,,,,,,,,,,,,,,,,,1,0,340,286,1,339,ratio43_4_7_15.png,,,,,,,,,,,,
,,,,,,,,,,,,Half,Some,More than half,Many,None,All,Most,Less than half,Few,0.535282118,-0.315277778,1,0,0,QQQ3,,,,,,,,English,2020-06-16_15h34.09.477,Experiment_English,3.2.4,MacIntel,60,,,,,,,,,,,,,,,,,,,,,1,0,340,289,1,339,ratio43_4_7_20.png,,,,,,,,,,,,
,,,,,,,,,,,,Most,Many,Half,Few,All,More than half,None,Less than half,Some,-0.530394965,-0.029045139,1,0,0,QQQ8,,,,,,,,English,2020-06-16_15h34.09.477,Experiment_English,3.2.4,MacIntel,60,,,,,,,,,,,,,,,,,,,,,1,0,340,19,1,339,ratio12_6_18_9.png,,,,,,,,,,,,
,,,,,,,,,,,,All,Many,Less than half,More than half,None,Half,Few,Most,Some,0.468732639,-0.289348958,1,0,0,QQQ3,,,,,,,,English,2020-06-16_15h34.09.477,Experiment_English,3.2.4,MacIntel,60,,,,,,,,,,,,,,,,,,,,,1,0,340,183,1,339,ratio23_2_5_9.png,,,,,,,,,,,,
,,,,,,,,,,,,More than half,Many,Some,Half,All,None,Few,Less than half,Most,0.435386285,0.206788194,1,0,0,QQQ1,,,,,,,,English,2020-06-16_15h34.09.477,Experiment_English,3.2.4,MacIntel,60,,,,,,,,,,,,,,,,,,,,,1,0,340,224,1,339,ratio32_3_5_10.png,,,,,,,,,,,,
,,,,,,,,,,,,All,More than half,Many,Some,Less than half,None,Half,Most,Few,0.564392361,-0.308767361,1,0,0,QQQ3,,,,,,,,English,2020-06-16_15h34.09.477,Experiment_English,3.2.4,MacIntel,60,,,,,,,,,,,,,,,,,,,,,1,0,340,324,1,339,ratio91_9_10_7.png,,,,,,,,,,,,
,,,,,,,,,,,,Few,Most,All,None,Less than half,More than half,Half,Many,Some,-0.496835937,0.276471354,1,0,0,QQQ7,,,,,,,,English,2020-06-16_15h34.09.477,Experiment_English,3.2.4,MacIntel,60,,,,,,,,,,,,,,,,,,,,,1,0,340,17,1,339,ratio12_6_18_5.png,,,,,,,,,,,,
,,,,,,,,,,,,Half,Many,All,More than half,Few,Less than half,Some,None,Most,-0.004991319,-0.315642361,1,0,0,QQQ6,,,,,,,,English,2020-06-16_15h34.09.477,Experiment_English,3.2.4,MacIntel,60,,,,,,,,,,,,,,,,,,,,,1,0,340,248,1,339,ratio34_3_7_19.png,,,,,,,,,,,,
,,,,,,,,,,,,Some,Most,All,None,More than half,Half,Many,Less than half,Few,-0.41218316,0.030920139,1,0,0,QQQ8,,,,,,,,English,2020-06-16_15h34.09.477,Experiment_English,3.2.4,MacIntel,60,,,,,,,,,,,,,,,,,,,,,1,0,340,107,1,339,ratio14_2_10_5.png,,,,,,,,,,,,
,,,,,,,,,,,,Most,Many,Few,Less than half,Some,None,Half,More than half,All,-0.447413194,-0.009270833,1,0,0,QQQ8,,,,,,,,English,2020-06-16_15h34.09.477,Experiment_English,3.2.4,MacIntel,60,,,,,,,,,,,,,,,,,,,,,1,0,340,172,1,339,ratio21_8_12_6.png,,,,,,,,,,,,
,,,,,,,,,,,,Some,Few,More than half,None,Half,Many,Most,All,Less than half,0.488767361,-0.046184896,1,0,0,QQQ2,,,,,,,,English,2020-06-16_15h34.09.477,Experiment_English,3.2.4,MacIntel,60,,,,,,,,,,,,,,,,,,,,,1,0,340,148,1,339,ratio19_1_10_19.png,,,,,,,,,,,,
,,,,,,,,,,,,Some,None,Half,Most,More than half,All,Less than half,Few,Many,-0.409891493,-0.228311632,1,0,0,QQQ9,,,,,,,,English,2020-06-16_15h34.09.477,Experiment_English,3.2.4,MacIntel,60,,,,,,,,,,,,,,,,,,,,,1,0,340,264,1,339,ratio41_4_5_6.png,,,,,,,,,,,,
,,,,,,,,,,,,Most,None,More than half,Many,Half,Few,All,Less than half,Some,0.033615451,-0.378233507,1,0,0,QQQ6,,,,,,,,English,2020-06-16_15h34.09.477,Experiment_English,3.2.4,MacIntel,60,,,,,,,,,,,,,,,,,,,,,1,0,340,111,1,339,ratio14_3_15_3.png,,,,,,,,,,,,
,,,,,,,,,,,,All,Some,Most,Less than half,Few,Many,More than half,None,Half,-0.01296441,-0.000195313,1,0,0,QQQ5,,,,,,,,English,2020-06-16_15h34.09.477,Experiment_English,3.2.4,MacIntel,60,,,,,,,,,,,,,,,,,,,,,1,0,340,154,1,339,ratio19_2_20_11.png,,,,,,,,,,,,
,,,,,,,,,,,,More than half,Most,All,Some,Few,Less than half,None,Many,Half,0.01515191,0.021223958,1,0,0,QQQ5,,,,,,,,English,2020-06-16_15h34.09.477,Experiment_English,3.2.4,MacIntel,60,,,,,,,,,,,,,,,,,,,,,1,0,340,83,1,339,ratio13_1_4_10.png,,,,,,,,,,,,
,,,,,,,,,,,,More than half,Few,All,Most,None,Some,Less than half,Half,Many,0.458515625,-0.053155382,1,0,0,QQQ2,,,,,,,,English,2020-06-16_15h34.09.477,Experiment_English,3.2.4,MacIntel,60,,,,,,,,,,,,,,,,,,,,,1,0,340,104,1,339,ratio14_1_5_10.png,,,,,,,,,,,,
,,,,,,,,,,,,Many,Most,Half,None,More than half,Few,Less than half,All,Some,-0.482417535,0.334188368,1,0,0,QQQ7,,,,,,,,English,2020-06-16_15h34.09.477,Experiment_English,3.2.4,MacIntel,60,,,,,,,,,,,,,,,,,,,,,1,0,340,27,1,339,ratio11_5_10_7.png,,,,,,,,,,,,
,,,,,,,,,,,,Less than half,More than half,Many,Half,None,Some,All,Few,Most,-0.418645833,0.320963542,1,0,0,QQQ7,,,,,,,,English,2020-06-16_15h34.09.477,Experiment_English,3.2.4,MacIntel,60,,,,,,,,,,,,,,,,,,,,,1,0,340,47,1,339,ratioX0_9_9_4.png,,,,,,,,,,,,
,,,,,,,,,,,,Half,All,Most,Few,None,Less than half,More than half,Many,Some,0.010794271,0.2775,1,0,0,QQQ4,,,,,,,,English,2020-06-16_15h34.09.477,Experiment_English,3.2.4,MacIntel,60,,,,,,,,,,,,,,,,,,,,,1,0,340,113,1,339,ratio14_3_15_8.png,,,,,,,,,,,,
,,,,,,,,,,,,More than half,Less than half,All,Some,Half,None,Few,Many,Most,0.380815972,0.24609809,1,0,0,QQQ1,,,,,,,,English,2020-06-16_15h34.09.477,Experiment_English,3.2.4,MacIntel,60,,,,,,,,,,,,,,,,,,,,,1,0,340,303,1,339,ratio51_5_6_6.png,,,,,,,,,,,,
,,,,,,,,,,,,Few,Most,Half,Some,Many,More than half,Less than half,All,None,0.466575521,0.376128472,1,0,0,QQQ1,,,,,,,,English,2020-06-16_15h34.09.477,Experiment_English,3.2.4,MacIntel,60,,,,,,,,,,,,,,,,,,,,,1,0,340,110,1,339,ratio14_3_15_2.png,,,,,,,,,,,,
,,,,,,,,,,,,More than half,Half,Less than half,Most,Some,Many,All,None,Few,0.638802083,-0.280920139,1,0,0,QQQ3,,,,,,,,English,2020-06-16_15h34.09.477,Experiment_English,3.2.4,MacIntel,60,,,,,,,,,,,,,,,,,,,,,1,0,340,35,1,339,ratio11_8_16_10.png,,,,,,,,,,,,
,,,,,,,,,,,,Most,None,Many,Some,Less than half,Half,All,Few,More than half,-0.519986979,-0.398446181,1,0,0,QQQ9,,,,,,,,English,2020-06-16_15h34.09.477,Experiment_English,3.2.4,MacIntel,60,,,,,,,,,,,,,,,,,,,,,1,0,340,164,1,339,ratio21_4_6_6.png,,,,,,,,,,,,
,,,,,,,,,,,,Some,More than half,Many,Less than half,None,All,Few,Half,Most,0.382486979,-0.370351563,1,0,0,QQQ3,,,,,,,,English,2020-06-16_15h34.09.477,Experiment_English,3.2.4,MacIntel,60,,,,,,,,,,,,,,,,,,,,,1,0,340,177,1,339,ratio21_12_18_1.png,,,,,,,,,,,,
,,,,,,,,,,,,Less than half,Many,All,More than half,None,Half,Few,Some,Most,-0.417174479,-0.375060764,1,0,0,QQQ9,,,,,,,,English,2020-06-16_15h34.09.477,Experiment_English,3.2.4,MacIntel,60,,,,,,,,,,,,,,,,,,,,,1,0,340,37,1,339,ratio11_9_18_8.png,,,,,,,,,,,,
,,,,,,,,,,,,None,Many,Half,All,Few,Less than half,More than half,Most,Some,-0.418628472,0.223880208,1,0,0,QQQ7,,,,,,,,English,2020-06-16_15h34.09.477,Experiment_English,3.2.4,MacIntel,60,,,,,,,,,,,,,,,,,,,,,1,0,340,25,1,339,ratio11_4_8_10.png,,,,,,,,,,,,
,,,,,,,,,,,,Half,Many,None,Few,Most,All,Less than half,Some,More than half,0.051158854,0.301006944,1,0,0,QQQ4,,,,,,,,English,2020-06-16_15h34.09.477,Experiment_English,3.2.4,MacIntel,60,,,,,,,,,,,,,,,,,,,,,1,0,340,127,1,339,ratio15_2_12_2.png,,,,,,,,,,,,
,,,,,,,,,,,,Most,Few,All,Half,None,Less than half,Some,Many,More than half,-0.379375,-0.065203993,1,0,0,QQQ8,,,,,,,,English,2020-06-16_15h34.09.477,Experiment_English,3.2.4,MacIntel,60,,,,,,,,,,,,,,,,,,,,,1,0,340,202,1,339,ratio31_3_4_8.png,,,,,,,,,,,,
,,,,,,,,,,,,None,More than half,Some,Few,Most,Less than half,Many,Half,All,-0.072756076,-0.062144097,1,0,0,QQQ5,,,,,,,,English,2020-06-16_15h34.09.477,Experiment_English,3.2.4,MacIntel,60,,,,,,,,,,,,,,,,,,,,,1,0,340,277,1,339,ratio41_16_20_8.png,,,,,,,,,,,,
,,,,,,,,,,,,Less than half,More than half,Few,None,Some,Most,Many,Half,All,0.061297743,-0.398480903,1,0,0,QQQ6,,,,,,,,English,2020-06-16_15h34.09.477,Experiment_English,3.2.4,MacIntel,60,,,,,,,,,,,,,,,,,,,,,1,0,340,219,1,339,ratio31_15_20_10.png,,,,,,,,,,,,
,,,,,,,,,,,,None,Most,All,More than half,Some,Few,Many,Half,Less than half,0.469270833,0.373046875,1,0,0,QQQ1,,,,,,,,English,2020-06-16_15h34.09.477,Experiment_English,3.2.4,MacIntel,60,,,,,,,,,,,,,,,,,,,,,1,0,340,70,1,339,ratio0Y_0_12_5.png,,,,,,,,,,,,
,,,,,,,,,,,,Most,None,More than half,Half,Many,Less than half,All,Some,Few,-0.521106771,-0.322447917,1,0,0,QQQ9,,,,,,,,English,2020-06-16_15h34.09.477,Experiment_English,3.2.4,MacIntel,60,,,,,,,,,,,,,,,,,,,,,1,0,340,150,1,339,ratio19_2_20_1.png,,,,,,,,,,,,
,,,,,,,,,,,,Many,Most,Few,None,More than half,Half,Some,All,Less than half,0.472096354,-0.230052083,1,0,0,QQQ3,,,,,,,,English,2020-06-16_15h34.09.477,Experiment_English,3.2.4,MacIntel,60,,,,,,,,,,,,,,,,,,,,,1,0,340,137,1,339,ratio15_3_18_16.png,,,,,,,,,,,,
,,,,,,,,,,,,All,None,Some,Many,Less than half,Few,Most,Half,More than half,-0.503676215,-0.02921875,1,0,0,QQQ8,,,,,,,,English,2020-06-16_15h34.09.477,Experiment_English,3.2.4,MacIntel,60,,,,,,,,,,,,,,,,,,,,,1,0,340,227,1,339,ratio32_6_10_6.png,,,,,,,,,,,,
,,,,,,,,,,,,Less than half,Few,Some,All,None,Half,Most,Many,More than half,-0.436657986,0.264900174,1,0,0,QQQ7,,,,,,,,English,2020-06-16_15h34.09.477,Experiment_English,3.2.4,MacIntel,60,,,,,,,,,,,,,,,,,,,,,1,0,340,328,1,339,ratio91_9_10_15.png,,,,,,,,,,,,
