continue_mouse.x,continue_mouse.y,continue_mouse.leftButton,continue_mouse.midButton,continue_mouse.rightButton,continue_mouse.clicked_name,continue_mouse_2.x,continue_mouse_2.y,continue_mouse_2.leftButton,continue_mouse_2.midButton,continue_mouse_2.rightButton,continue_mouse_2.clicked_name,Q1,Q2,Q3,Q4,Q5,Q6,Q7,Q8,Q9,select_answer.x,select_answer.y,select_answer.leftButton,select_answer.midButton,select_answer.rightButton,select_answer.clicked_name,trial.thisRepN,trial.thisTrialN,trial.thisN,trial.thisIndex,trial.ran,trial.order,trials,Native tongue*,date,expName,psychopyVersion,OS,frameRate,key_resp.keys,key_resp.rt,Actual_Experiment.thisRepN,Actual_Experiment.thisTrialN,Actual_Experiment.thisN,Actual_Experiment.thisIndex,Actual_Experiment.ran,Actual_Experiment.order,Pic,mouse_pause.x,mouse_pause.y,mouse_pause.leftButton,mouse_pause.midButton,mouse_pause.rightButton,mouse_pause.clicked_name,pause.thisRepN,pause.thisTrialN,pause.thisN,pause.thisIndex,pause.ran,pause.order
0.287037072,-0.412963047,1,0,0,continue_button,0.307407443,-0.41759262,1,0,0,continue_button_2,Some,None,Half,Few,Many,Most,All,More than half,Less than half,0.463888929,0.320370351,1,0,0,QQQ1,1,0,16,13,1,15,ratio12_5_15_1.png,English,2020-07-02_10h59.28.780,Experiment_English,3.2.4,Win32,60,,,,,,,,,,,,,,,,,,,,,
,,,,,,,,,,,,None,Less than half,Many,Some,All,Most,Few,More than half,Half,-0.429629588,0.235185177,1,0,0,QQQ7,1,0,16,9,1,15,ratio19_1_10_8.png,English,2020-07-02_10h59.28.780,Experiment_English,3.2.4,Win32,60,,,,,,,,,,,,,,,,,,,,,
,,,,,,,,,,,,More than half,Most,Some,None,All,Few,Half,Many,Less than half,0.407407446,0.287037017,1,0,0,QQQ1,1,0,16,2,1,15,ratio43_8_14_19.png,English,2020-07-02_10h59.28.780,Experiment_English,3.2.4,Win32,60,,,,,,,,,,,,,,,,,,,,,
,,,,,,,,,,,,All,None,Most,Few,Some,Less than half,Half,Many,More than half,0.015740824,0.237962955,1,0,0,QQQ4,1,0,16,10,1,15,ratio15_2_12_4.png,English,2020-07-02_10h59.28.780,Experiment_English,3.2.4,Win32,60,,,,,,,,,,,,,,,,,,,,,
,,,,,,,,,,,,None,Half,Many,All,Most,More than half,Few,Less than half,Some,2.6491E-08,0.044444431,1,0,0,QQQ5,1,0,16,1,1,15,ratio51_5_6_8.png,English,2020-07-02_10h59.28.780,Experiment_English,3.2.4,Win32,60,,,,,,,,,,,,,,,,,,,,,
,,,,,,,,,,,,Many,All,Half,Most,Less than half,None,More than half,Some,Few,-0.411111097,-0.298148172,1,0,0,QQQ9,,,,,,,,English,2020-07-02_10h59.28.780,Experiment_English,3.2.4,Win32,60,b,6.279000044,1,0,340,0,1,339,ratio12_1_3_3.png,,,,,,,,,,,,
,,,,,,,,,,,,None,Half,Less than half,Few,More than half,Some,Many,Most,All,-0.411111097,-0.298148172,1,0,0,QQQ9,,,,,,,,English,2020-07-02_10h59.28.780,Experiment_English,3.2.4,Win32,60,,,1,0,340,265,1,339,ratio41_8_10_1.png,,,,,,,,,,,,
,,,,,,,,,,,,More than half,All,Some,Less than half,Most,Many,Half,Few,None,-0.434259246,-0.057407424,1,0,0,QQQ8,,,,,,,,English,2020-07-02_10h59.28.780,Experiment_English,3.2.4,Win32,60,,,1,0,340,113,1,339,ratio14_3_15_8.png,,,,,,,,,,,,
,,,,,,,,,,,,Half,Some,Many,None,All,Less than half,Most,Few,More than half,-0.38518517,0.365740737,1,0,0,QQQ7,,,,,,,,English,2020-07-02_10h59.28.780,Experiment_English,3.2.4,Win32,60,,,1,0,340,216,1,339,ratio31_15_20_3.png,,,,,,,,,,,,
,,,,,,,,,,,,Many,Some,All,None,Half,Less than half,Few,Most,More than half,-0.464814802,0.272222215,1,0,0,QQQ7,,,,,,,,English,2020-07-02_10h59.28.780,Experiment_English,3.2.4,Win32,60,,,1,0,340,131,1,339,ratio15_2_12_14.png,,,,,,,,,,,,
,,,,,,,,,,,,More than half,Some,Half,Less than half,Many,Few,None,Most,All,0.411764751,-0.016724387,1,0,0,QQQ2,,,,,,,,English,2020-07-02_10h59.28.780,Experiment_English,3.2.4,Win32,60,,,1,0,340,226,1,339,ratio32_6_10_5.png,,,,,,,,,,,,
,,,,,,,,,,,,Some,Few,More than half,None,Half,Many,All,Less than half,Most,-0.385236426,-0.32929652,1,0,0,QQQ9,,,,,,,,English,2020-07-02_10h59.28.780,Experiment_English,3.2.4,Win32,60,,,1,0,340,215,1,339,ratio31_12_16_8.png,,,,,,,,,,,,
,,,,,,,,,,,,Most,Few,None,Half,All,Many,Some,Less than half,More than half,0.489042723,0.30276816,1,0,0,QQQ1,,,,,,,,English,2020-07-02_10h59.28.780,Experiment_English,3.2.4,Win32,60,,,1,0,340,315,1,339,ratio51_15_18_10.png,,,,,,,,,,,,
,,,,,,,,,,,,More than half,Less than half,Few,Many,Some,Half,All,Most,None,0.522491398,-0.353517974,1,0,0,QQQ3,,,,,,,,English,2020-07-02_10h59.28.780,Experiment_English,3.2.4,Win32,60,,,1,0,340,108,1,339,ratio14_2_10_6.png,,,,,,,,,,,,
,,,,,,,,,,,,Some,Less than half,More than half,Most,All,Half,None,Few,Many,-0.393310244,0.014417482,1,0,0,QQQ8,,,,,,,,English,2020-07-02_10h59.28.780,Experiment_English,3.2.4,Win32,60,,,1,0,340,107,1,339,ratio14_2_10_5.png,,,,,,,,,,,,
,,,,,,,,,,,,None,All,Half,Many,Most,Few,Less than half,More than half,Some,-0.489042657,-0.012110742,1,0,0,QQQ8,,,,,,,,English,2020-07-02_10h59.28.780,Experiment_English,3.2.4,Win32,60,,,1,0,340,293,1,339,ratio43_8_14_7.png,,,,,,,,,,,,
,,,,,,,,,,,,Some,Most,Half,All,Less than half,Few,None,More than half,Many,0.441753218,0.21280276,1,0,0,QQQ1,,,,,,,,English,2020-07-02_10h59.28.780,Experiment_English,3.2.4,Win32,60,,,1,0,340,103,1,339,ratio14_1_5_9.png,,,,,,,,,,,,
,,,,,,,,,,,,Some,All,Few,Most,More than half,None,Many,Half,Less than half,-0.479815437,0.320069199,1,0,0,QQQ7,,,,,,,,English,2020-07-02_10h59.28.780,Experiment_English,3.2.4,Win32,60,,,1,0,340,204,1,339,ratio31_6_8_1.png,,,,,,,,,,,,
,,,,,,,,,,,,Half,All,More than half,Few,Most,Some,Many,Less than half,None,0.02998857,-0.035178793,1,0,0,QQQ5,,,,,,,,English,2020-07-02_10h59.28.780,Experiment_English,3.2.4,Win32,60,,,1,0,340,320,1,339,ratio91_9_10_1.png,,,,,,,,,,,,
,,,,,,,,,,,,More than half,Few,None,Less than half,Many,Some,Half,All,Most,-0.392156841,-0.30276819,1,0,0,QQQ9,,,,,,,,English,2020-07-02_10h59.28.780,Experiment_English,3.2.4,Win32,60,,,1,0,340,272,1,339,ratio41_12_15_7.png,,,,,,,,,,,,
,,,,,,,,,,,,Most,Few,Half,Many,All,More than half,None,Less than half,Some,0.448673633,-0.005190326,1,0,0,QQQ2,,,,,,,,English,2020-07-02_10h59.28.780,Experiment_English,3.2.4,Win32,60,,,1,0,340,154,1,339,ratio19_2_20_11.png,,,,,,,,,,,,
,,,,,,,,,,,,Some,Few,All,Less than half,Many,None,Most,Half,More than half,0.448673633,-0.005190326,1,0,0,QQQ2,,,,,,,,English,2020-07-02_10h59.28.780,Experiment_English,3.2.4,Win32,60,,,1,0,340,314,1,339,ratio51_15_18_4.png,,,,,,,,,,,,
,,,,,,,,,,,,Many,Half,All,Less than half,Most,Few,More than half,None,Some,-0.023068018,-0.075547919,1,0,0,QQQ5,,,,,,,,English,2020-07-02_10h59.28.780,Experiment_English,3.2.4,Win32,60,,,1,0,340,201,1,339,ratio31_3_4_7.png,,,,,,,,,,,,
,,,,,,,,,,,,More than half,All,Some,None,Most,Half,Many,Less than half,Few,-0.483275645,-0.264705905,1,0,0,QQQ9,,,,,,,,English,2020-07-02_10h59.28.780,Experiment_English,3.2.4,Win32,60,,,1,0,340,102,1,339,ratio14_1_5_8.png,,,,,,,,,,,,
,,,,,,,,,,,,Many,Some,More than half,Few,Most,All,Less than half,Half,None,-0.063437038,-0.01557095,1,0,0,QQQ5,,,,,,,,English,2020-07-02_10h59.28.780,Experiment_English,3.2.4,Win32,60,,,1,0,340,173,1,339,ratio21_8_12_9.png,,,,,,,,,,,,
,,,,,,,,,,,,Few,More than half,Half,Some,Many,None,Less than half,Most,All,0.449827036,0.336216835,1,0,0,QQQ1,,,,,,,,English,2020-07-02_10h59.28.780,Experiment_English,3.2.4,Win32,60,,,1,0,340,89,1,339,ratio13_3_12_6.png,,,,,,,,,,,,
,,,,,,,,,,,,Many,Few,Most,More than half,Less than half,Half,None,Some,All,-0.483275645,0.256632057,1,0,0,QQQ7,,,,,,,,English,2020-07-02_10h59.28.780,Experiment_English,3.2.4,Win32,60,,,1,0,340,79,1,339,ratio0Y_0_20_4.png,,,,,,,,,,,,
,,,,,,,,,,,,Most,Half,Few,Some,None,Many,Less than half,More than half,All,-0.416378295,-0.273933196,1,0,0,QQQ9,,,,,,,,English,2020-07-02_10h59.28.780,Experiment_English,3.2.4,Win32,60,,,1,0,340,40,1,339,ratioX0_3_3_5.png,,,,,,,,,,,,
,,,,,,,,,,,,Many,None,Most,Less than half,Half,All,More than half,Few,Some,-0.439446347,-0.064013858,1,0,0,QQQ8,,,,,,,,English,2020-07-02_10h59.28.780,Experiment_English,3.2.4,Win32,60,,,1,0,340,135,1,339,ratio15_3_18_7.png,,,,,,,,,,,,
,,,,,,,,,,,,None,Less than half,More than half,Some,Most,Many,All,Few,Half,-0.054209888,0.049019559,1,0,0,QQQ5,,,,,,,,English,2020-07-02_10h59.28.780,Experiment_English,3.2.4,Win32,60,,,1,0,340,271,1,339,ratio41_12_15_6.png,,,,,,,,,,,,
,,,,,,,,,,,,Few,Some,Many,More than half,None,Half,All,Most,Less than half,-0.393310244,-0.019031157,1,0,0,QQQ8,,,,,,,,English,2020-07-02_10h59.28.780,Experiment_English,3.2.4,Win32,60,,,1,0,340,224,1,339,ratio32_3_5_10.png,,,,,,,,,,,,
,,,,,,,,,,,,More than half,All,Some,Most,Many,None,Less than half,Half,Few,0.506343762,0.269319468,1,0,0,QQQ1,,,,,,,,English,2020-07-02_10h59.28.780,Experiment_English,3.2.4,Win32,60,,,1,0,340,245,1,339,ratio34_3_7_10.png,,,,,,,,,,,,
,,,,,,,,,,,,More than half,None,Half,All,Most,Few,Some,Many,Less than half,0.487889321,0.243944629,1,0,0,QQQ1,,,,,,,,English,2020-07-02_10h59.28.780,Experiment_English,3.2.4,Win32,60,,,1,0,340,169,1,339,ratio21_6_9_7.png,,,,,,,,,,,,
,,,,,,,,,,,,Less than half,Many,Few,Most,More than half,All,Half,Some,None,-0.472895021,0.06055362,1,0,0,QQQ8,,,,,,,,English,2020-07-02_10h59.28.780,Experiment_English,3.2.4,Win32,60,,,1,0,340,29,1,339,ratio11_6_12_1.png,,,,,,,,,,,,
,,,,,,,,,,,,None,Most,Less than half,Some,More than half,All,Few,Many,Half,-0.104959531,-0.070934273,1,0,0,QQQ5,,,,,,,,English,2020-07-02_10h59.28.780,Experiment_English,3.2.4,Win32,60,,,1,0,340,221,1,339,ratio32_3_5_3.png,,,,,,,,,,,,
,,,,,,,,,,,,Some,Few,Most,Less than half,Many,Half,None,More than half,All,0.558246878,0.291234134,1,0,0,QQQ1,,,,,,,,English,2020-07-02_10h59.28.780,Experiment_English,3.2.4,Win32,60,,,1,0,340,13,1,339,ratio12_5_15_3.png,,,,,,,,,,,,
,,,,,,,,,,,,Some,None,Most,All,Few,More than half,Half,Less than half,Many,0.51441758,-0.028258378,1,0,0,QQQ2,,,,,,,,English,2020-07-02_10h59.28.780,Experiment_English,3.2.4,Win32,60,,,1,0,340,78,1,339,ratio0Y_0_19_1.png,,,,,,,,,,,,
,,,,,,,,,,,,Half,None,Few,Most,Some,Less than half,Many,More than half,All,-0.422145308,0.268166083,1,0,0,QQQ7,,,,,,,,English,2020-07-02_10h59.28.780,Experiment_English,3.2.4,Win32,60,,,1,0,340,274,1,339,ratio41_12_15_9.png,,,,,,,,,,,,
,,,,,,,,,,,,Less than half,All,Few,Some,None,Half,More than half,Most,Many,-0.512110709,-0.019031157,1,0,0,QQQ8,,,,,,,,English,2020-07-02_10h59.28.780,Experiment_English,3.2.4,Win32,60,,,1,0,340,336,1,339,ratio91_18_20_12.png,0.412918154,-0.408881297,1,0,0,continue_button_pause,1,0,1,0,1,0
,,,,,,,,,,,,,,,,,,,,,,,,,,,,,,,,,,English,2020-07-02_10h59.28.780,Experiment_English,3.2.4,Win32,60,,,1,0,340,336,1,339,ratio91_18_20_12.png,,,,,,,,,,,,
,,,,,,,,,,,,None,Most,All,Some,Less than half,More than half,Many,Few,Half,-0.366781985,0.090542052,1,0,0,QQQ8,,,,,,,,English,2020-07-02_10h59.28.780,Experiment_English,3.2.4,Win32,60,,,1,0,340,156,1,339,ratio19_2_20_14.png,,,,,,,,,,,,
,,,,,,,,,,,,More than half,Few,Half,All,Many,Most,Some,Less than half,None,0.084198421,-0.320069229,1,0,0,QQQ6,,,,,,,,English,2020-07-02_10h59.28.780,Experiment_English,3.2.4,Win32,60,,,1,0,340,308,1,339,ratio51_10_12_9.png,,,,,,,,,,,,
,,,,,,,,,,,,Most,Half,Some,Many,Less than half,More than half,None,Few,All,-0.423298711,-0.313148813,1,0,0,QQQ9,,,,,,,,English,2020-07-02_10h59.28.780,Experiment_English,3.2.4,Win32,60,,,1,0,340,45,1,339,ratioX0_8_8_3.png,,,,,,,,,,,,
,,,,,,,,,,,,Some,More than half,All,Half,None,Less than half,Most,Few,Many,-0.456747385,0.26701268,1,0,0,QQQ7,,,,,,,,English,2020-07-02_10h59.28.780,Experiment_English,3.2.4,Win32,60,,,1,0,340,262,1,339,ratio41_4_5_4.png,,,,,,,,,,,,
,,,,,,,,,,,,More than half,None,Half,Some,Many,Most,Few,All,Less than half,0.101499459,-0.009803972,1,0,0,QQQ5,,,,,,,,English,2020-07-02_10h59.28.780,Experiment_English,3.2.4,Win32,60,,,1,0,340,334,1,339,ratio91_18_20_9.png,,,,,,,,,,,,
,,,,,,,,,,,,More than half,Most,Less than half,Many,Half,All,Few,Some,None,-0.465974606,0.21510953,1,0,0,QQQ7,,,,,,,,English,2020-07-02_10h59.28.780,Experiment_English,3.2.4,Win32,60,,,1,0,340,83,1,339,ratio13_1_4_10.png,,,,,,,,,,,,
,,,,,,,,,,,,More than half,Less than half,Some,Few,Half,All,Most,Many,None,0.091118836,0.044405984,1,0,0,QQQ5,,,,,,,,English,2020-07-02_10h59.28.780,Experiment_English,3.2.4,Win32,60,,,1,0,340,294,1,339,ratio43_8_14_9.png,,,,,,,,,,,,
,,,,,,,,,,,,Most,Many,All,Less than half,None,More than half,Half,Some,Few,-0.381776218,-0.331603254,1,0,0,QQQ9,,,,,,,,English,2020-07-02_10h59.28.780,Experiment_English,3.2.4,Win32,60,,,1,0,340,84,1,339,ratio13_2_8_1.png,,,,,,,,,,,,
,,,,,,,,,,,,Less than half,Half,Few,All,None,Most,Some,Many,More than half,-0.426758919,0.305074965,1,0,0,QQQ7,,,,,,,,English,2020-07-02_10h59.28.780,Experiment_English,3.2.4,Win32,60,,,1,0,340,255,1,339,ratio34_6_14_10.png,,,,,,,,,,,,
,,,,,,,,,,,,Some,Few,None,Many,All,Half,More than half,Most,Less than half,0.399077323,0.311995381,1,0,0,QQQ1,,,,,,,,English,2020-07-02_10h59.28.780,Experiment_English,3.2.4,Win32,60,,,1,0,340,90,1,339,ratio13_3_12_7.png,,,,,,,,,,,,
,,,,,,,,,,,,Many,Half,All,More than half,Some,Less than half,Most,Few,None,0.442906621,0.256632057,1,0,0,QQQ1,,,,,,,,English,2020-07-02_10h59.28.780,Experiment_English,3.2.4,Win32,60,,,1,0,340,238,1,339,ratio32_12_20_9.png,,,,,,,,,,,,
,,,,,,,,,,,,Few,Most,All,None,Less than half,Half,More than half,Many,Some,0.529411813,0.049019559,1,0,0,QQQ2,,,,,,,,English,2020-07-02_10h59.28.780,Experiment_English,3.2.4,Win32,60,,,1,0,340,301,1,339,ratio51_5_6_4.png,,,,,,,,,,,,
,,,,,,,,,,,,All,Many,More than half,Few,None,Some,Less than half,Half,Most,0.489042723,0.309688576,1,0,0,QQQ1,,,,,,,,English,2020-07-02_10h59.28.780,Experiment_English,3.2.4,Win32,60,,,1,0,340,57,1,339,ratioX0_18_18_1.png,,,,,,,,,,,,
,,,,,,,,,,,,All,Few,Half,Less than half,Some,None,Most,Many,More than half,0.004613643,0.279700091,1,0,0,QQQ4,,,,,,,,English,2020-07-02_10h59.28.780,Experiment_English,3.2.4,Win32,60,,,1,0,340,28,1,339,ratio11_5_10_9.png,,,,,,,,,,,,
,,,,,,,,,,,,Few,Most,Half,More than half,Many,All,Less than half,None,Some,0.454440646,-0.06978087,1,0,0,QQQ2,,,,,,,,English,2020-07-02_10h59.28.780,Experiment_English,3.2.4,Win32,60,,,1,0,340,328,1,339,ratio91_9_10_15.png,,,,,,,,,,,,
,,,,,,,,,,,,All,Most,Half,Some,Few,Less than half,None,More than half,Many,0.448673633,-0.305075066,1,0,0,QQQ3,,,,,,,,English,2020-07-02_10h59.28.780,Experiment_English,3.2.4,Win32,60,,,1,0,340,24,1,339,ratio11_4_8_3.png,,,,,,,,,,,,
,,,,,,,,,,,,More than half,Few,Some,Less than half,Many,None,Most,All,Half,-0.001153299,0.235870776,1,0,0,QQQ4,,,,,,,,English,2020-07-02_10h59.28.780,Experiment_English,3.2.4,Win32,60,,,1,0,340,250,1,339,ratio34_6_14_1.png,,,,,,,,,,,,
,,,,,,,,,,,,More than half,Many,Most,Less than half,All,Some,Half,Few,None,0.047289609,-0.337370267,1,0,0,QQQ6,,,,,,,,English,2020-07-02_10h59.28.780,Experiment_English,3.2.4,Win32,60,,,1,0,340,16,1,339,ratio12_5_15_6.png,,,,,,,,,,,,
,,,,,,,,,,,,Many,More than half,Less than half,Some,Half,All,Few,Most,None,0.03460211,0.335063415,1,0,0,QQQ4,,,,,,,,English,2020-07-02_10h59.28.780,Experiment_English,3.2.4,Win32,60,,,1,0,340,11,1,339,ratio12_4_12_7.png,,,,,,,,,,,,
,,,,,,,,,,,,Most,Many,Less than half,None,Half,More than half,All,Some,Few,-0.442906555,-0.313148813,1,0,0,QQQ9,,,,,,,,English,2020-07-02_10h59.28.780,Experiment_English,3.2.4,Win32,60,,,1,0,340,82,1,339,ratio13_1_4_7.png,,,,,,,,,,,,
,,,,,,,,,,,,Few,Half,Most,More than half,Less than half,All,Many,None,Some,-0.040369057,0.286620507,1,0,0,QQQ4,,,,,,,,English,2020-07-02_10h59.28.780,Experiment_English,3.2.4,Win32,60,,,1,0,340,280,1,339,ratio43_4_7_2.png,,,,,,,,,,,,
,,,,,,,,,,,,More than half,Less than half,Some,Half,None,Few,Most,Many,All,0.038062318,-0.315455689,1,0,0,QQQ6,,,,,,,,English,2020-07-02_10h59.28.780,Experiment_English,3.2.4,Win32,60,,,1,0,340,123,1,339,ratio15_1_6_12.png,,,,,,,,,,,,
,,,,,,,,,,,,More than half,Many,Some,Few,Half,Less than half,None,Most,All,0.083045018,0.246251399,1,0,0,QQQ4,,,,,,,,English,2020-07-02_10h59.28.780,Experiment_English,3.2.4,Win32,60,,,1,0,340,254,1,339,ratio34_6_14_9.png,,,,,,,,,,,,
,,,,,,,,,,,,None,Less than half,All,Most,Some,Few,Half,More than half,Many,-0.472895021,-0.042099209,1,0,0,QQQ8,,,,,,,,English,2020-07-02_10h59.28.780,Experiment_English,3.2.4,Win32,60,,,1,0,340,180,1,339,ratio23_2_5_4.png,,,,,,,,,,,,
,,,,,,,,,,,,Few,Some,Less than half,All,Many,None,Half,More than half,Most,-0.472895021,-0.042099209,1,0,0,QQQ8,,,,,,,,English,2020-07-02_10h59.28.780,Experiment_English,3.2.4,Win32,60,,,1,0,340,264,1,339,ratio41_4_5_6.png,,,,,,,,,,,,
,,,,,,,,,,,,None,Half,All,More than half,Most,Some,Few,Many,Less than half,0.579008124,0.299307952,1,0,0,QQQ1,,,,,,,,English,2020-07-02_10h59.28.780,Experiment_English,3.2.4,Win32,60,,,1,0,340,60,1,339,ratio0Y_0_3_5.png,,,,,,,,,,,,
,,,,,,,,,,,,All,None,Many,Less than half,Some,Few,Half,Most,More than half,0.508650567,0.054786607,1,0,0,QQQ2,,,,,,,,English,2020-07-02_10h59.28.780,Experiment_English,3.2.4,Win32,60,,,1,0,340,74,1,339,ratio0Y_0_15_10.png,,,,,,,,,,,,
,,,,,,,,,,,,More than half,None,Less than half,Most,Some,Half,All,Many,Few,0.083045018,0.300461337,1,0,0,QQQ4,,,,,,,,English,2020-07-02_10h59.28.780,Experiment_English,3.2.4,Win32,60,,,1,0,340,168,1,339,ratio21_6_9_3.png,,,,,,,,,,,,
,,,,,,,,,,,,None,Most,Less than half,All,Many,Half,Few,Some,More than half,-0.407151075,-0.341983877,1,0,0,QQQ9,,,,,,,,English,2020-07-02_10h59.28.780,Experiment_English,3.2.4,Win32,60,,,1,0,340,236,1,339,ratio32_12_20_2.png,,,,,,,,,,,,
,,,,,,,,,,,,None,Less than half,Some,All,Many,Half,More than half,Most,Few,-0.056516623,0.028258313,1,0,0,QQQ5,,,,,,,,English,2020-07-02_10h59.28.780,Experiment_English,3.2.4,Win32,60,,,1,0,340,316,1,339,ratio51_15_18_11.png,,,,,,,,,,,,
,,,,,,,,,,,,Many,Half,More than half,All,Some,Most,Less than half,Few,None,-0.056516623,0.028258313,1,0,0,QQQ5,,,,,,,,English,2020-07-02_10h59.28.780,Experiment_English,3.2.4,Win32,60,,,1,0,340,95,1,339,ratio13_4_16_10.png,,,,,,,,,,,,
,,,,,,,,,,,,Few,All,Less than half,Most,None,Some,More than half,Half,Many,-0.05074968,-0.269319515,1,0,0,QQQ6,,,,,,,,English,2020-07-02_10h59.28.780,Experiment_English,3.2.4,Win32,60,,,1,0,340,189,1,339,ratio23_4_10_8.png,,,,,,,,,,,,
,,,,,,,,,,,,None,Many,All,Most,Some,Few,Half,More than half,Less than half,-0.023068018,-0.079008126,1,0,0,QQQ5,,,,,,,,English,2020-07-02_10h59.28.780,Experiment_English,3.2.4,Win32,60,,,1,0,340,35,1,339,ratio11_8_16_10.png,,,,,,,,,,,,
,,,,,,,,,,,,All,Many,Few,Less than half,Half,Most,More than half,None,Some,-0.023068018,-0.079008126,1,0,0,QQQ5,,,,,,,,English,2020-07-02_10h59.28.780,Experiment_English,3.2.4,Win32,60,,,1,0,340,27,1,339,ratio11_5_10_7.png,0.314878935,-0.392733591,1,0,0,continue_button_pause,1,0,1,0,1,0
,,,,,,,,,,,,,,,,,,,,,,,,,,,,,,,,,,English,2020-07-02_10h59.28.780,Experiment_English,3.2.4,Win32,60,,,1,0,340,27,1,339,ratio11_5_10_7.png,,,,,,,,,,,,
,,,,,,,,,,,,All,Few,Half,Some,Most,Less than half,Many,More than half,None,-0.029988434,0.307381753,1,0,0,QQQ4,,,,,,,,English,2020-07-02_10h59.28.780,Experiment_English,3.2.4,Win32,60,,,1,0,340,256,1,339,ratio34_6_14_11.png,,,,,,,,,,,,
,,,,,,,,,,,,Most,Few,More than half,Half,Less than half,None,All,Some,Many,-0.029988434,0.307381753,1,0,0,QQQ4,,,,,,,,English,2020-07-02_10h59.28.780,Experiment_English,3.2.4,Win32,60,,,1,0,340,249,1,339,ratio34_3_7_20.png,,,,,,,,,,,,
,,,,,,,,,,,,Some,Many,Less than half,Few,Most,Half,More than half,All,None,0.021914682,0.26585926,1,0,0,QQQ4,,,,,,,,English,2020-07-02_10h59.28.780,Experiment_English,3.2.4,Win32,60,,,1,0,340,133,1,339,ratio15_3_18_3.png,,,,,,,,,,,,
,,,,,,,,,,,,Few,Half,None,Less than half,All,More than half,Some,Many,Most,0.450980439,0.348904245,1,0,0,QQQ1,,,,,,,,English,2020-07-02_10h59.28.780,Experiment_English,3.2.4,Win32,60,,,1,0,340,114,1,339,ratio14_3_15_10.png,,,,,,,,,,,,
,,,,,,,,,,,,Some,Few,None,Most,All,Many,Half,More than half,Less than half,0.430219192,-0.293540969,1,0,0,QQQ3,,,,,,,,English,2020-07-02_10h59.28.780,Experiment_English,3.2.4,Win32,60,,,1,0,340,77,1,339,ratio0Y_0_18_3.png,,,,,,,,,,,,
,,,,,,,,,,,,Less than half,Many,All,More than half,Most,Half,None,Some,Few,-0.536332163,-0.06978087,1,0,0,QQQ8,,,,,,,,English,2020-07-02_10h59.28.780,Experiment_English,3.2.4,Win32,60,,,1,0,340,193,1,339,ratio23_6_15_9.png,,,,,,,,,,,,
,,,,,,,,,,,,Half,Most,Some,None,More than half,Less than half,All,Many,Few,0.03921572,-0.293540969,1,0,0,QQQ6,,,,,,,,English,2020-07-02_10h59.28.780,Experiment_English,3.2.4,Win32,60,,,1,0,340,190,1,339,ratio23_6_15_3.png,,,,,,,,,,,,
,,,,,,,,,,,,Many,All,Half,Few,Less than half,Most,More than half,None,Some,0.462514464,-0.263552573,1,0,0,QQQ3,,,,,,,,English,2020-07-02_10h59.28.780,Experiment_English,3.2.4,Win32,60,,,1,0,340,31,1,339,ratio11_6_12_9.png,,,,,,,,,,,,
,,,,,,,,,,,,More than half,Many,Some,None,All,Half,Few,Less than half,Most,0.411764751,-0.25317195,1,0,0,QQQ3,,,,,,,,English,2020-07-02_10h59.28.780,Experiment_English,3.2.4,Win32,60,,,1,0,340,99,1,339,ratio13_5_20_4.png,,,,,,,,,,,,
,,,,,,,,,,,,More than half,Few,Half,Most,Some,None,All,Many,Less than half,0.448673633,-0.040945841,1,0,0,QQQ2,,,,,,,,English,2020-07-02_10h59.28.780,Experiment_English,3.2.4,Win32,60,,,1,0,340,8,1,339,ratio12_3_9_4.png,,,,,,,,,,,,
,,,,,,,,,,,,All,Some,None,Many,More than half,Less than half,Half,Few,Most,-0.407151075,-0.309688605,1,0,0,QQQ9,,,,,,,,English,2020-07-02_10h59.28.780,Experiment_English,3.2.4,Win32,60,,,1,0,340,324,1,339,ratio91_9_10_7.png,,,,,,,,,,,,
,,,,,,,,,,,,Many,Some,Half,All,More than half,Few,Less than half,Most,None,0.122260706,-0.288927359,1,0,0,QQQ6,,,,,,,,English,2020-07-02_10h59.28.780,Experiment_English,3.2.4,Win32,60,,,1,0,340,158,1,339,ratio19_2_20_17.png,,,,,,,,,,,,
,,,,,,,,,,,,Less than half,More than half,Half,All,Few,Some,Many,Most,None,-0.021914545,-0.320069229,1,0,0,QQQ6,,,,,,,,English,2020-07-02_10h59.28.780,Experiment_English,3.2.4,Win32,60,,,1,0,340,240,1,339,ratio34_3_7_4.png,,,,,,,,,,,,
,,,,,,,,,,,,More than half,Most,All,Many,Half,None,Less than half,Some,Few,0.467128075,0.246251399,1,0,0,QQQ1,,,,,,,,English,2020-07-02_10h59.28.780,Experiment_English,3.2.4,Win32,60,,,1,0,340,234,1,339,ratio32_9_15_10.png,,,,,,,,,,,,
,,,,,,,,,,,,More than half,Some,None,Half,Many,Most,Few,All,Less than half,-0.439446347,0.380046115,1,0,0,QQQ7,,,,,,,,English,2020-07-02_10h59.28.780,Experiment_English,3.2.4,Win32,60,,,1,0,340,129,1,339,ratio15_2_12_9.png,,,,,,,,,,,,
,,,,,,,,,,,,Many,None,Few,Less than half,All,Most,More than half,Half,Some,-0.441753152,-0.352364501,1,0,0,QQQ9,,,,,,,,English,2020-07-02_10h59.28.780,Experiment_English,3.2.4,Win32,60,,,1,0,340,15,1,339,ratio12_5_15_5.png,,,,,,,,,,,,
,,,,,,,,,,,,All,Few,Less than half,Half,Some,None,Most,Many,More than half,-0.109573211,-0.294694442,1,0,0,QQQ6,,,,,,,,English,2020-07-02_10h59.28.780,Experiment_English,3.2.4,Win32,60,,,1,0,340,68,1,339,ratio0Y_0_11_3.png,,,,,,,,,,,,
,,,,,,,,,,,,Some,Most,More than half,Many,Less than half,None,Half,Few,All,-0.432525931,-0.05824688,1,0,0,QQQ8,,,,,,,,English,2020-07-02_10h59.28.780,Experiment_English,3.2.4,Win32,60,,,1,0,340,142,1,339,ratio19_1_10_6.png,,,,,,,,,,,,
,,,,,,,,,,,,More than half,Some,All,None,Half,Many,Less than half,Most,Few,-0.435986139,-0.034025426,1,0,0,QQQ8,,,,,,,,English,2020-07-02_10h59.28.780,Experiment_English,3.2.4,Win32,60,,,1,0,340,326,1,339,ratio91_9_10_10.png,,,,,,,,,,,,
,,,,,,,,,,,,Few,Half,Most,Many,None,All,Less than half,Some,More than half,0.546712852,-0.022491365,1,0,0,QQQ2,,,,,,,,English,2020-07-02_10h59.28.780,Experiment_English,3.2.4,Win32,60,,,1,0,340,20,1,339,ratio11_2_4_3.png,,,,,,,,,,,,
,,,,,,,,,,,,Some,Few,Half,None,Most,More than half,All,Many,Less than half,0.459054257,0.282006914,1,0,0,QQQ1,,,,,,,,English,2020-07-02_10h59.28.780,Experiment_English,3.2.4,Win32,60,,,1,0,340,112,1,339,ratio14_3_15_4.png,,,,,,,,,,,,
,,,,,,,,,,,,Half,None,Some,More than half,Less than half,Few,Most,Many,All,0.104959667,-0.223183413,1,0,0,QQQ6,,,,,,,,English,2020-07-02_10h59.28.780,Experiment_English,3.2.4,Win32,60,,,1,0,340,146,1,339,ratio19_1_10_17.png,,,,,,,,,,,,
,,,,,,,,,,,,Few,Many,Less than half,None,All,Half,More than half,Most,Some,0.402537531,0.276239883,1,0,0,QQQ1,,,,,,,,English,2020-07-02_10h59.28.780,Experiment_English,3.2.4,Win32,60,,,1,0,340,87,1,339,ratio13_2_8_8.png,,,,,,,,,,,,
,,,,,,,,,,,,Most,Few,None,Many,All,Some,Less than half,Half,More than half,0.461361062,0.021337897,1,0,0,QQQ2,,,,,,,,English,2020-07-02_10h59.28.780,Experiment_English,3.2.4,Win32,60,,,1,0,340,151,1,339,ratio19_2_20_4.png,,,,,,,,,,,,
,,,,,,,,,,,,Some,Half,Most,Many,Few,Less than half,All,More than half,None,-0.461360996,-0.000576716,1,0,0,QQQ8,,,,,,,,English,2020-07-02_10h59.28.780,Experiment_English,3.2.4,Win32,60,,,1,0,340,220,1,339,ratio32_3_5_1.png,,,,,,,,,,,,
,,,,,,,,,,,,None,Many,Some,Few,All,Less than half,Most,Half,More than half,0.068050855,0.019031128,1,0,0,QQQ5,,,,,,,,English,2020-07-02_10h59.28.780,Experiment_English,3.2.4,Win32,60,,,1,0,340,53,1,339,ratioX0_14_14_8.png,,,,,,,,,,,,
,,,,,,,,,,,,Some,None,Half,All,More than half,Most,Few,Less than half,Many,-0.430219126,-0.392733591,1,0,0,QQQ9,,,,,,,,English,2020-07-02_10h59.28.780,Experiment_English,3.2.4,Win32,60,,,1,0,340,279,1,339,ratio41_16_20_10.png,,,,,,,,,,,,
,,,,,,,,,,,,Most,Half,None,Few,More than half,Some,Less than half,All,Many,-0.044982667,0.067474036,1,0,0,QQQ5,,,,,,,,English,2020-07-02_10h59.28.780,Experiment_English,3.2.4,Win32,60,,,1,0,340,203,1,339,ratio31_3_4_9.png,,,,,,,,,,,,
,,,,,,,,,,,,None,Half,Less than half,Some,Many,Few,Most,All,More than half,-0.480968839,-0.245098061,1,0,0,QQQ9,,,,,,,,English,2020-07-02_10h59.28.780,Experiment_English,3.2.4,Win32,60,,,1,0,340,202,1,339,ratio31_3_4_8.png,,,,,,,,,,,,
,,,,,,,,,,,,Some,All,Few,Less than half,None,Many,Half,Most,More than half,0.002306909,0.012110712,1,0,0,QQQ5,,,,,,,,English,2020-07-02_10h59.28.780,Experiment_English,3.2.4,Win32,60,,,1,0,340,75,1,339,ratio0Y_0_16_10.png,,,,,,,,,,,,
,,,,,,,,,,,,Few,Most,Half,Many,None,All,More than half,Some,Less than half,-0.401384062,-0.012110742,1,0,0,QQQ8,,,,,,,,English,2020-07-02_10h59.28.780,Experiment_English,3.2.4,Win32,60,,,1,0,340,253,1,339,ratio34_6_14_5.png,,,,,,,,,,,,
,,,,,,,,,,,,Most,None,Less than half,Some,All,More than half,Many,Half,Few,-0.442906555,-0.265859308,1,0,0,QQQ9,,,,,,,,English,2020-07-02_10h59.28.780,Experiment_English,3.2.4,Win32,60,,,1,0,340,155,1,339,ratio19_2_20_13.png,,,,,,,,,,,,
,,,,,,,,,,,,Many,Most,More than half,All,Less than half,None,Few,Some,Half,-0.370242193,0.26585926,1,0,0,QQQ7,,,,,,,,English,2020-07-02_10h59.28.780,Experiment_English,3.2.4,Win32,60,,,1,0,340,104,1,339,ratio14_1_5_10.png,,,,,,,,,,,,
,,,,,,,,,,,,Few,Less than half,More than half,Most,Half,All,Some,None,Many,-0.042675792,0.097462467,1,0,0,QQQ5,,,,,,,,English,2020-07-02_10h59.28.780,Experiment_English,3.2.4,Win32,60,,,1,0,340,39,1,339,ratio11_10_20_6.png,0.42906579,-0.420415252,1,0,0,continue_button_pause,1,0,1,0,1,0
,,,,,,,,,,,,,,,,,,,,,,,,,,,,,,,,,,English,2020-07-02_10h59.28.780,Experiment_English,3.2.4,Win32,60,,,1,0,340,39,1,339,ratio11_10_20_6.png,,,,,,,,,,,,
,,,,,,,,,,,,Few,Some,Most,Many,Half,All,None,More than half,Less than half,-0.365628582,0.318915796,1,0,0,QQQ7,,,,,,,,English,2020-07-02_10h59.28.780,Experiment_English,3.2.4,Win32,60,,,1,0,340,63,1,339,ratio0Y_0_6_8.png,,,,,,,,,,,,
,,,,,,,,,,,,Most,Few,Many,Less than half,More than half,Some,Half,None,All,0.415224959,0.034025361,1,0,0,QQQ2,,,,,,,,English,2020-07-02_10h59.28.780,Experiment_English,3.2.4,Win32,60,,,1,0,340,111,1,339,ratio14_3_15_3.png,,,,,,,,,,,,
,,,,,,,,,,,,Less than half,None,All,Few,Some,Most,Many,Half,More than half,0.028835097,0.002883492,1,0,0,QQQ5,,,,,,,,English,2020-07-02_10h59.28.780,Experiment_English,3.2.4,Win32,60,,,1,0,340,247,1,339,ratio34_3_7_12.png,,,,,,,,,,,,
,,,,,,,,,,,,Most,All,None,Some,Few,Less than half,More than half,Many,Half,0.424452179,0.25778546,1,0,0,QQQ1,,,,,,,,English,2020-07-02_10h59.28.780,Experiment_English,3.2.4,Win32,60,,,1,0,340,325,1,339,ratio91_9_10_8.png,,,,,,,,,,,,
,,,,,,,,,,,,Many,Some,Half,Less than half,Few,All,More than half,Most,None,-0.424452113,0.278546706,1,0,0,QQQ7,,,,,,,,English,2020-07-02_10h59.28.780,Experiment_English,3.2.4,Win32,60,,,1,0,340,225,1,339,ratio32_6_10_4.png,,,,,,,,,,,,
,,,,,,,,,,,,Many,More than half,All,Less than half,Half,Most,Some,Few,None,-0.41407149,-0.017877755,1,0,0,QQQ8,,,,,,,,English,2020-07-02_10h59.28.780,Experiment_English,3.2.4,Win32,60,,,1,0,340,109,1,339,ratio14_2_10_9.png,,,,,,,,,,,,
,,,,,,,,,,,,Many,Some,Most,Half,Less than half,Few,All,More than half,None,-0.025374753,0.021337897,1,0,0,QQQ5,,,,,,,,English,2020-07-02_10h59.28.780,Experiment_English,3.2.4,Win32,60,,,1,0,340,81,1,339,ratio13_1_4_5.png,,,,,,,,,,,,
,,,,,,,,,,,,More than half,Few,Many,Some,Less than half,Most,Half,All,None,-0.506343696,-0.022491365,1,0,0,QQQ8,,,,,,,,English,2020-07-02_10h59.28.780,Experiment_English,3.2.4,Win32,60,,,1,0,340,59,1,339,ratioX0_20_20_9.png,,,,,,,,,,,,
,,,,,,,,,,,,Less than half,More than half,Many,Some,None,Half,All,Most,Few,0.073817798,0.373125699,1,0,0,QQQ4,,,,,,,,English,2020-07-02_10h59.28.780,Experiment_English,3.2.4,Win32,60,,,1,0,340,296,1,339,ratio43_8_14_12.png,,,,,,,,,,,,
,,,,,,,,,,,,Some,Half,Most,Many,More than half,Few,None,Less than half,All,-0.054209888,-0.270472988,1,0,0,QQQ6,,,,,,,,English,2020-07-02_10h59.28.780,Experiment_English,3.2.4,Win32,60,,,1,0,340,159,1,339,ratio19_2_20_20.png,,,,,,,,,,,,
,,,,,,,,,,,,Some,None,Few,Half,More than half,Most,Less than half,All,Many,-0.047289472,-0.233564036,1,0,0,QQQ6,,,,,,,,English,2020-07-02_10h59.28.780,Experiment_English,3.2.4,Win32,60,,,1,0,340,260,1,339,ratio41_4_5_2.png,,,,,,,,,,,,
,,,,,,,,,,,,None,Less than half,Few,Half,Many,More than half,Some,Most,All,0.434832803,-0.065167295,1,0,0,QQQ2,,,,,,,,English,2020-07-02_10h59.28.780,Experiment_English,3.2.4,Win32,60,,,1,0,340,248,1,339,ratio34_3_7_19.png,,,,,,,,,,,,
,,,,,,,,,,,,Many,Most,Less than half,Few,Half,More than half,All,Some,None,0.444060023,0.279700091,1,0,0,QQQ1,,,,,,,,English,2020-07-02_10h59.28.780,Experiment_English,3.2.4,Win32,60,,,1,0,340,319,1,339,ratio51_15_18_20.png,,,,,,,,,,,,
,,,,,,,,,,,,More than half,Less than half,Half,All,Most,Many,Some,Few,None,-0.529411747,0.235870776,1,0,0,QQQ7,,,,,,,,English,2020-07-02_10h59.28.780,Experiment_English,3.2.4,Win32,60,,,1,0,340,97,1,339,ratio13_5_20_2.png,,,,,,,,,,,,
,,,,,,,,,,,,More than half,Some,Most,Half,Less than half,Many,Few,None,All,-0.034602044,0.009803907,1,0,0,QQQ5,,,,,,,,English,2020-07-02_10h59.28.780,Experiment_English,3.2.4,Win32,60,,,1,0,340,182,1,339,ratio23_2_5_7.png,,,,,,,,,,,,
,,,,,,,,,,,,Most,Many,All,None,More than half,Few,Less than half,Half,Some,0.095732446,-0.295847775,1,0,0,QQQ6,,,,,,,,English,2020-07-02_10h59.28.780,Experiment_English,3.2.4,Win32,60,,,1,0,340,143,1,339,ratio19_1_10_9.png,,,,,,,,,,,,
,,,,,,,,,,,,Half,Most,Few,More than half,Less than half,None,All,Many,Some,-0.472895021,-0.070934273,1,0,0,QQQ8,,,,,,,,English,2020-07-02_10h59.28.780,Experiment_English,3.2.4,Win32,60,,,1,0,340,176,1,339,ratio21_10_15_3.png,,,,,,,,,,,,
,,,,,,,,,,,,Half,None,Many,Few,Most,Some,More than half,All,Less than half,0.490196126,0.320069199,1,0,0,QQQ1,,,,,,,,English,2020-07-02_10h59.28.780,Experiment_English,3.2.4,Win32,60,,,1,0,340,21,1,339,ratio11_2_4_10.png,,,,,,,,,,,,
,,,,,,,,,,,,Many,Less than half,None,Half,Most,More than half,Few,Some,All,0.537485631,-0.314302216,1,0,0,QQQ3,,,,,,,,English,2020-07-02_10h59.28.780,Experiment_English,3.2.4,Win32,60,,,1,0,340,71,1,339,ratio0Y_0_12_10.png,,,,,,,,,,,,
,,,,,,,,,,,,Many,All,Less than half,None,Most,Some,More than half,Few,Half,0.004613643,-0.299307982,1,0,0,QQQ6,,,,,,,,English,2020-07-02_10h59.28.780,Experiment_English,3.2.4,Win32,60,,,1,0,340,242,1,339,ratio34_3_7_6.png,,,,,,,,,,,,
,,,,,,,,,,,,More than half,Few,None,Less than half,Many,Half,Most,All,Some,-0.042675792,0.014417482,1,0,0,QQQ5,,,,,,,,English,2020-07-02_10h59.28.780,Experiment_English,3.2.4,Win32,60,,,1,0,340,333,1,339,ratio91_18_20_6.png,,,,,,,,,,,,
,,,,,,,,,,,,Some,Most,All,Many,Half,None,More than half,Few,Less than half,-0.020761213,0.233564006,1,0,0,QQQ4,,,,,,,,English,2020-07-02_10h59.28.780,Experiment_English,3.2.4,Win32,60,,,1,0,340,321,1,339,ratio91_9_10_2.png,,,,,,,,,,,,
,,,,,,,,,,,,Many,None,Few,Less than half,Half,More than half,Some,All,Most,0.371395661,-0.317762423,1,0,0,QQQ3,,,,,,,,English,2020-07-02_10h59.28.780,Experiment_English,3.2.4,Win32,60,,,1,0,340,85,1,339,ratio13_2_8_5.png,,,,,,,,,,,,
,,,,,,,,,,,,Few,Less than half,Some,All,More than half,Half,Many,None,Most,0.521337995,-0.310842008,1,0,0,QQQ3,,,,,,,,English,2020-07-02_10h59.28.780,Experiment_English,3.2.4,Win32,60,,,1,0,340,194,1,339,ratio23_6_15_10.png,,,,,,,,,,,,
,,,,,,,,,,,,Less than half,Most,All,None,More than half,Some,Half,Many,Few,0.513264177,-0.016724387,1,0,0,QQQ2,,,,,,,,English,2020-07-02_10h59.28.780,Experiment_English,3.2.4,Win32,60,,,1,0,340,217,1,339,ratio31_15_20_5.png,,,,,,,,,,,,
,,,,,,,,,,,,More than half,Many,Some,Few,None,Half,All,Most,Less than half,0.131487926,0.30276816,1,0,0,QQQ4,,,,,,,,English,2020-07-02_10h59.28.780,Experiment_English,3.2.4,Win32,60,,,1,0,340,91,1,339,ratio13_3_12_10.png,,,,,,,,,,,,
,,,,,,,,,,,,Most,Some,More than half,All,Many,None,Less than half,Few,Half,-0.017301006,-0.354671306,1,0,0,QQQ6,,,,,,,,English,2020-07-02_10h59.28.780,Experiment_English,3.2.4,Win32,60,,,1,0,340,62,1,339,ratio0Y_0_5_4.png,,,,,,,,,,,,
,,,,,,,,,,,,Less than half,None,More than half,Some,Many,Half,Few,All,Most,-0.509803904,0.310841961,1,0,0,QQQ7,,,,,,,,English,2020-07-02_10h59.28.780,Experiment_English,3.2.4,Win32,60,,,1,0,340,122,1,339,ratio15_1_6_7.png,,,,,,,,,,,,
,,,,,,,,,,,,More than half,Less than half,Few,All,Many,Some,None,Half,Most,0.122260706,-0.315455689,1,0,0,QQQ6,,,,,,,,English,2020-07-02_10h59.28.780,Experiment_English,3.2.4,Win32,60,,,1,0,340,7,1,339,ratio12_3_9_2.png,,,,,,,,,,,,
,,,,,,,,,,,,More than half,All,Most,Many,Few,Half,Some,None,Less than half,-0.521337894,0.239330984,1,0,0,QQQ7,,,,,,,,English,2020-07-02_10h59.28.780,Experiment_English,3.2.4,Win32,60,,,1,0,340,167,1,339,ratio21_6_9_2.png,,,,,,,,,,,,
,,,,,,,,,,,,More than half,None,Many,Half,Some,Less than half,Most,All,Few,-0.519031124,0.292387537,1,0,0,QQQ7,,,,,,,,English,2020-07-02_10h59.28.780,Experiment_English,3.2.4,Win32,60,,,1,0,340,273,1,339,ratio41_12_15_8.png,,,,,,,,,,,,
,,,,,,,,,,,,More than half,Many,Half,Most,None,Few,Some,Less than half,All,-0.401384062,0.310841961,1,0,0,QQQ7,,,,,,,,English,2020-07-02_10h59.28.780,Experiment_English,3.2.4,Win32,60,,,1,0,340,259,1,339,ratio34_6_14_19.png,,,,,,,,,,,,
,,,,,,,,,,,,None,Many,Most,Few,Half,More than half,Less than half,All,Some,-0.065743914,-0.249711742,1,0,0,QQQ6,,,,,,,,English,2020-07-02_10h59.28.780,Experiment_English,3.2.4,Win32,60,,,1,0,340,200,1,339,ratio31_3_4_4.png,,,,,,,,,,,,
,,,,,,,,,,,,All,Half,Few,None,More than half,Some,Many,Most,Less than half,-0.065743914,-0.249711742,1,0,0,QQQ6,,,,,,,,English,2020-07-02_10h59.28.780,Experiment_English,3.2.4,Win32,60,,,1,0,340,251,1,339,ratio34_6_14_2.png,0.286043871,-0.385813175,1,0,0,continue_button_pause,1,0,1,0,1,0
,,,,,,,,,,,,,,,,,,,,,,,,,,,,,,,,,,English,2020-07-02_10h59.28.780,Experiment_English,3.2.4,Win32,60,,,1,0,340,251,1,339,ratio34_6_14_2.png,,,,,,,,,,,,
,,,,,,,,,,,,Some,None,More than half,All,Many,Less than half,Few,Half,Most,-0.492502865,0.393886946,1,0,0,QQQ7,,,,,,,,English,2020-07-02_10h59.28.780,Experiment_English,3.2.4,Win32,60,,,1,0,340,138,1,339,ratio15_3_18_17.png,,,,,,,,,,,,
,,,,,,,,,,,,Most,Half,Many,Few,Less than half,All,None,More than half,Some,-0.382929621,-0.324682839,1,0,0,QQQ9,,,,,,,,English,2020-07-02_10h59.28.780,Experiment_English,3.2.4,Win32,60,,,1,0,340,185,1,339,ratio23_4_10_1.png,,,,,,,,,,,,
,,,,,,,,,,,,Less than half,Few,Many,Half,All,None,Most,Some,More than half,0.400230725,-0.047866257,1,0,0,QQQ2,,,,,,,,English,2020-07-02_10h59.28.780,Experiment_English,3.2.4,Win32,60,,,1,0,340,126,1,339,ratio15_2_12_1.png,,,,,,,,,,,,
,,,,,,,,,,,,More than half,Few,Less than half,None,Half,Many,Some,Most,All,0.450980439,0.305074965,1,0,0,QQQ1,,,,,,,,English,2020-07-02_10h59.28.780,Experiment_English,3.2.4,Win32,60,,,1,0,340,232,1,339,ratio32_9_15_8.png,,,,,,,,,,,,
,,,,,,,,,,,,None,More than half,Some,Many,Less than half,Most,Half,All,Few,-0.403690867,-0.023644803,1,0,0,QQQ8,,,,,,,,English,2020-07-02_10h59.28.780,Experiment_English,3.2.4,Win32,60,,,1,0,340,48,1,339,ratioX0_10_10_1.png,,,,,,,,,,,,
,,,,,,,,,,,,Half,Many,All,None,Few,Some,Most,More than half,Less than half,-0.455593983,-0.02479817,1,0,0,QQQ8,,,,,,,,English,2020-07-02_10h59.28.780,Experiment_English,3.2.4,Win32,60,,,1,0,340,172,1,339,ratio21_8_12_6.png,,,,,,,,,,,,
,,,,,,,,,,,,Most,None,Few,Some,More than half,Many,Less than half,All,Half,-0.034602044,0.340830445,1,0,0,QQQ4,,,,,,,,English,2020-07-02_10h59.28.780,Experiment_English,3.2.4,Win32,60,,,1,0,340,137,1,339,ratio15_3_18_16.png,,,,,,,,,,,,
,,,,,,,,,,,,Less than half,None,Few,More than half,Half,Most,Some,Many,All,0.017301072,0.258938845,1,0,0,QQQ4,,,,,,,,English,2020-07-02_10h59.28.780,Experiment_English,3.2.4,Win32,60,,,1,0,340,267,1,339,ratio41_8_10_4.png,,,,,,,,,,,,
,,,,,,,,,,,,Many,Few,More than half,Half,All,Less than half,Some,None,Most,0.377162674,0.044405984,1,0,0,QQQ2,,,,,,,,English,2020-07-02_10h59.28.780,Experiment_English,3.2.4,Win32,60,,,1,0,340,86,1,339,ratio13_2_8_6.png,,,,,,,,,,,,
,,,,,,,,,,,,Few,Less than half,Some,Many,None,Most,Half,All,More than half,0.416378361,0.286620507,1,0,0,QQQ1,,,,,,,,English,2020-07-02_10h59.28.780,Experiment_English,3.2.4,Win32,60,,,1,0,340,88,1,339,ratio13_3_12_5.png,,,,,,,,,,,,
,,,,,,,,,,,,More than half,Less than half,Most,Half,Many,Some,None,All,Few,0.041522526,0.016724322,1,0,0,QQQ5,,,,,,,,English,2020-07-02_10h59.28.780,Experiment_English,3.2.4,Win32,60,,,1,0,340,270,1,339,ratio41_12_15_3.png,,,,,,,,,,,,
,,,,,,,,,,,,Half,Many,Few,Some,None,Less than half,More than half,Most,All,-0.500576683,-0.367358804,1,0,0,QQQ9,,,,,,,,English,2020-07-02_10h59.28.780,Experiment_English,3.2.4,Win32,60,,,1,0,340,56,1,339,ratioX0_17_17_10.png,,,,,,,,,,,,
,,,,,,,,,,,,Few,More than half,None,Most,Some,Half,Less than half,Many,All,-0.455593983,0.021337897,1,0,0,QQQ8,,,,,,,,English,2020-07-02_10h59.28.780,Experiment_English,3.2.4,Win32,60,,,1,0,340,297,1,339,ratio43_8_14_13.png,,,,,,,,,,,,
,,,,,,,,,,,,Few,More than half,All,Many,Some,None,Most,Less than half,Half,0.10611307,0.293540922,1,0,0,QQQ4,,,,,,,,English,2020-07-02_10h59.28.780,Experiment_English,3.2.4,Win32,60,,,1,0,340,179,1,339,ratio21_12_18_8.png,,,,,,,,,,,,
,,,,,,,,,,,,Most,Less than half,Some,All,Few,Many,More than half,None,Half,0.10611307,0.293540922,1,0,0,QQQ4,,,,,,,,English,2020-07-02_10h59.28.780,Experiment_English,3.2.4,Win32,60,,,1,0,340,58,1,339,ratioX0_19_19_4.png,,,,,,,,,,,,
,,,,,,,,,,,,More than half,Less than half,Few,All,None,Many,Some,Most,Half,0.417531764,0.230103798,1,0,0,QQQ1,,,,,,,,English,2020-07-02_10h59.28.780,Experiment_English,3.2.4,Win32,60,,,1,0,340,230,1,339,ratio32_9_15_1.png,,,,,,,,,,,,
,,,,,,,,,,,,Less than half,None,Many,Most,All,Some,Half,More than half,Few,-0.457900788,-0.331603254,1,0,0,QQQ9,,,,,,,,English,2020-07-02_10h59.28.780,Experiment_English,3.2.4,Win32,60,,,1,0,340,136,1,339,ratio15_3_18_8.png,,,,,,,,,,,,
,,,,,,,,,,,,Half,Many,None,Few,Some,All,More than half,Less than half,Most,-0.396770452,0.217416352,1,0,0,QQQ7,,,,,,,,English,2020-07-02_10h59.28.780,Experiment_English,3.2.4,Win32,60,,,1,0,340,219,1,339,ratio31_15_20_10.png,,,,,,,,,,,,
,,,,,,,,,,,,None,Some,All,Few,Half,Many,More than half,Less than half,Most,0.044982733,0.322376004,1,0,0,QQQ4,,,,,,,,English,2020-07-02_10h59.28.780,Experiment_English,3.2.4,Win32,60,,,1,0,340,106,1,339,ratio14_2_10_2.png,,,,,,,,,,,,
,,,,,,,,,,,,More than half,Many,None,All,Some,Few,Half,Most,Less than half,0.091118836,-0.264705905,1,0,0,QQQ6,,,,,,,,English,2020-07-02_10h59.28.780,Experiment_English,3.2.4,Win32,60,,,1,0,340,149,1,339,ratio19_1_10_20.png,,,,,,,,,,,,
,,,,,,,,,,,,Many,Some,More than half,Less than half,Few,Half,All,None,Most,0.389850102,-0.01326418,1,0,0,QQQ2,,,,,,,,English,2020-07-02_10h59.28.780,Experiment_English,3.2.4,Win32,60,,,1,0,340,12,1,339,ratio12_4_12_10.png,,,,,,,,,,,,
,,,,,,,,,,,,All,Some,Half,Many,Less than half,Most,None,Few,More than half,0.389850102,-0.01326418,1,0,0,QQQ2,,,,,,,,English,2020-07-02_10h59.28.780,Experiment_English,3.2.4,Win32,60,,,1,0,340,116,1,339,ratio14_4_20_3.png,,,,,,,,,,,,
,,,,,,,,,,,,None,Many,Most,Few,All,Less than half,Some,Half,More than half,0.435986205,-0.290080762,1,0,0,QQQ3,,,,,,,,English,2020-07-02_10h59.28.780,Experiment_English,3.2.4,Win32,60,,,1,0,340,339,1,339,ratio91_18_20_19.png,,,,,,,,,,,,
,,,,,,,,,,,,Some,Half,All,More than half,Many,Few,None,Less than half,Most,0.432525997,-0.323529436,1,0,0,QQQ3,,,,,,,,English,2020-07-02_10h59.28.780,Experiment_English,3.2.4,Win32,60,,,1,0,340,43,1,339,ratioX0_6_6_9.png,,,,,,,,,,,,
,,,,,,,,,,,,Few,Half,Less than half,All,More than half,Most,Some,Many,None,0.010380656,0.021337897,1,0,0,QQQ5,,,,,,,,English,2020-07-02_10h59.28.780,Experiment_English,3.2.4,Win32,60,,,1,0,340,162,1,339,ratio21_2_3_9.png,,,,,,,,,,,,
,,,,,,,,,,,,Most,Some,More than half,All,Few,Many,Less than half,None,Half,-0.500576683,0.33391003,1,0,0,QQQ7,,,,,,,,English,2020-07-02_10h59.28.780,Experiment_English,3.2.4,Win32,60,,,1,0,340,187,1,339,ratio23_4_10_5.png,,,,,,,,,,,,
,,,,,,,,,,,,Most,Many,Less than half,Half,More than half,Few,All,None,Some,-0.003460175,0.382352938,1,0,0,QQQ4,,,,,,,,English,2020-07-02_10h59.28.780,Experiment_English,3.2.4,Win32,60,,,1,0,340,30,1,339,ratio11_6_12_6.png,,,,,,,,,,,,
,,,,,,,,,,,,Some,Many,Less than half,None,Few,Most,Half,All,More than half,-0.475201827,-0.028258378,1,0,0,QQQ8,,,,,,,,English,2020-07-02_10h59.28.780,Experiment_English,3.2.4,Win32,60,,,1,0,340,47,1,339,ratioX0_9_9_4.png,,,,,,,,,,,,
,,,,,,,,,,,,All,Many,Less than half,More than half,Most,None,Some,Few,Half,-0.044982667,-0.007497132,1,0,0,QQQ5,,,,,,,,English,2020-07-02_10h59.28.780,Experiment_English,3.2.4,Win32,60,,,1,0,340,318,1,339,ratio51_15_18_18.png,,,,,,,,,,,,
,,,,,,,,,,,,More than half,Less than half,All,Most,Half,Few,Some,Many,None,-0.498269878,-0.06978087,1,0,0,QQQ8,,,,,,,,English,2020-07-02_10h59.28.780,Experiment_English,3.2.4,Win32,60,,,1,0,340,239,1,339,ratio32_12_20_10.png,,,,,,,,,,,,
,,,,,,,,,,,,Less than half,None,All,Most,Half,Few,More than half,Many,Some,-0.376009205,-0.009803972,1,0,0,QQQ8,,,,,,,,English,2020-07-02_10h59.28.780,Experiment_English,3.2.4,Win32,60,,,1,0,340,298,1,339,ratio43_8_14_14.png,,,,,,,,,,,,
,,,,,,,,,,,,Half,Most,Less than half,All,Few,None,More than half,Some,Many,-0.359861569,0.001730089,1,0,0,QQQ8,,,,,,,,English,2020-07-02_10h59.28.780,Experiment_English,3.2.4,Win32,60,,,1,0,340,92,1,339,ratio13_4_16_3.png,,,,,,,,,,,,
,,,,,,,,,,,,Some,More than half,Half,Many,None,Less than half,All,Few,Most,0.003460241,0.01557092,1,0,0,QQQ5,,,,,,,,English,2020-07-02_10h59.28.780,Experiment_English,3.2.4,Win32,60,,,1,0,340,67,1,339,ratio0Y_0_10_10.png,,,,,,,,,,,,
,,,,,,,,,,,,Few,Less than half,All,More than half,Half,None,Many,Most,Some,-0.04152246,-0.34775089,1,0,0,QQQ6,,,,,,,,English,2020-07-02_10h59.28.780,Experiment_English,3.2.4,Win32,60,,,1,0,340,69,1,339,ratio0Y_0_11_6.png,0.302191507,-0.370819012,1,0,0,continue_button_pause,1,0,1,0,1,0
,,,,,,,,,,,,,,,,,,,,,,,,,,,,,,,,,,English,2020-07-02_10h59.28.780,Experiment_English,3.2.4,Win32,60,,,1,0,340,69,1,339,ratio0Y_0_11_6.png,,,,,,,,,,,,
,,,,,,,,,,,,Some,More than half,None,Few,Most,Less than half,Half,All,Many,0.418685167,-0.002883557,1,0,0,QQQ2,,,,,,,,English,2020-07-02_10h59.28.780,Experiment_English,3.2.4,Win32,60,,,1,0,340,291,1,339,ratio43_8_14_5.png,,,,,,,,,,,,
,,,,,,,,,,,,All,Most,More than half,Half,Few,Many,Some,None,Less than half,0.472895087,0.269319468,1,0,0,QQQ1,,,,,,,,English,2020-07-02_10h59.28.780,Experiment_English,3.2.4,Win32,60,,,1,0,340,51,1,339,ratioX0_12_12_9.png,,,,,,,,,,,,
,,,,,,,,,,,,Some,Many,Most,All,More than half,Less than half,Half,None,Few,0.569780903,0.317762376,1,0,0,QQQ1,,,,,,,,English,2020-07-02_10h59.28.780,Experiment_English,3.2.4,Win32,60,,,1,0,340,18,1,339,ratio12_6_18_7.png,,,,,,,,,,,,
,,,,,,,,,,,,Some,Half,Few,All,Less than half,Many,None,Most,More than half,-0.590542049,-0.358131513,1,0,0,QQQ9,,,,,,,,English,2020-07-02_10h59.28.780,Experiment_English,3.2.4,Win32,60,,,1,0,340,290,1,339,ratio43_8_14_3.png,,,,,,,,,,,,
,,,,,,,,,,,,None,Most,All,More than half,Half,Some,Few,Many,Less than half,0.021914682,-0.361591721,1,0,0,QQQ6,,,,,,,,English,2020-07-02_10h59.28.780,Experiment_English,3.2.4,Win32,60,,,1,0,340,199,1,339,ratio23_8_20_8.png,,,,,,,,,,,,
,,,,,,,,,,,,Few,None,More than half,Many,Some,Most,All,Half,Less than half,0.558246878,0.332756627,1,0,0,QQQ1,,,,,,,,English,2020-07-02_10h59.28.780,Experiment_English,3.2.4,Win32,60,,,1,0,340,153,1,339,ratio19_2_20_8.png,,,,,,,,,,,,
,,,,,,,,,,,,Few,Some,All,None,Less than half,Many,More than half,Half,Most,0.013840864,-0.308535273,1,0,0,QQQ6,,,,,,,,English,2020-07-02_10h59.28.780,Experiment_English,3.2.4,Win32,60,,,1,0,340,175,1,339,ratio21_10_15_2.png,,,,,,,,,,,,
,,,,,,,,,,,,Most,Many,None,All,More than half,Some,Less than half,Half,Few,-0.402537465,-0.284313819,1,0,0,QQQ9,,,,,,,,English,2020-07-02_10h59.28.780,Experiment_English,3.2.4,Win32,60,,,1,0,340,105,1,339,ratio14_2_10_1.png,,,,,,,,,,,,
,,,,,,,,,,,,Half,All,Few,More than half,Many,Less than half,None,Some,Most,-0.062283706,0.25778546,1,0,0,QQQ4,,,,,,,,English,2020-07-02_10h59.28.780,Experiment_English,3.2.4,Win32,60,,,1,0,340,284,1,339,ratio43_4_7_11.png,,,,,,,,,,,,
,,,,,,,,,,,,Few,Most,Half,None,More than half,Some,Many,Less than half,All,0.495963139,0.0513264,1,0,0,QQQ2,,,,,,,,English,2020-07-02_10h59.28.780,Experiment_English,3.2.4,Win32,60,,,1,0,340,322,1,339,ratio91_9_10_3.png,,,,,,,,,,,,
,,,,,,,,,,,,More than half,None,Less than half,Some,Most,Half,Many,All,Few,0.054210024,0.393886946,1,0,0,QQQ4,,,,,,,,English,2020-07-02_10h59.28.780,Experiment_English,3.2.4,Win32,60,,,1,0,340,246,1,339,ratio34_3_7_11.png,,,,,,,,,,,,
,,,,,,,,,,,,Most,Half,All,Some,More than half,Few,Many,None,Less than half,-0.034602044,0.076701221,1,0,0,QQQ5,,,,,,,,English,2020-07-02_10h59.28.780,Experiment_English,3.2.4,Win32,60,,,1,0,340,285,1,339,ratio43_4_7_14.png,,,,,,,,,,,,
,,,,,,,,,,,,Few,Most,None,All,Less than half,Some,More than half,Half,Many,-0.395617049,-0.089388749,1,0,0,QQQ8,,,,,,,,English,2020-07-02_10h59.28.780,Experiment_English,3.2.4,Win32,60,,,1,0,340,38,1,339,ratio11_10_20_5.png,,,,,,,,,,,,
,,,,,,,,,,,,Most,Many,Few,More than half,All,Less than half,Half,Some,None,0.415224959,-0.362745124,1,0,0,QQQ3,,,,,,,,English,2020-07-02_10h59.28.780,Experiment_English,3.2.4,Win32,60,,,1,0,340,150,1,339,ratio19_2_20_1.png,,,,,,,,,,,,
,,,,,,,,,,,,Half,Most,Many,None,All,More than half,Less than half,Some,Few,0.449827036,-0.044406049,1,0,0,QQQ2,,,,,,,,English,2020-07-02_10h59.28.780,Experiment_English,3.2.4,Win32,60,,,1,0,340,327,1,339,ratio91_9_10_11.png,,,,,,,,,,,,
,,,,,,,,,,,,None,Some,Less than half,Half,More than half,Most,All,Few,Many,-0.351787751,0.025951543,1,0,0,QQQ8,,,,,,,,English,2020-07-02_10h59.28.780,Experiment_English,3.2.4,Win32,60,,,1,0,340,94,1,339,ratio13_4_16_8.png,,,,,,,,,,,,
,,,,,,,,,,,,Few,Half,Many,More than half,All,Less than half,Some,None,Most,-0.025374753,-0.022491365,1,0,0,QQQ5,,,,,,,,English,2020-07-02_10h59.28.780,Experiment_English,3.2.4,Win32,60,,,1,0,340,42,1,339,ratioX0_5_5_5.png,,,,,,,,,,,,
,,,,,,,,,,,,Some,Half,Many,None,All,Most,Few,More than half,Less than half,0.465974672,-0.354671306,1,0,0,QQQ3,,,,,,,,English,2020-07-02_10h59.28.780,Experiment_English,3.2.4,Win32,60,,,1,0,340,33,1,339,ratio11_7_14_8.png,,,,,,,,,,,,
,,,,,,,,,,,,Few,Many,More than half,None,Most,Some,All,Half,Less than half,0.442906621,0.260092265,1,0,0,QQQ1,,,,,,,,English,2020-07-02_10h59.28.780,Experiment_English,3.2.4,Win32,60,,,1,0,340,121,1,339,ratio15_1_6_4.png,,,,,,,,,,,,
,,,,,,,,,,,,Most,All,Half,Few,Some,None,Less than half,More than half,Many,-0.024221421,-0.014417547,1,0,0,QQQ5,,,,,,,,English,2020-07-02_10h59.28.780,Experiment_English,3.2.4,Win32,60,,,1,0,340,117,1,339,ratio14_4_20_6.png,,,,,,,,,,,,
,,,,,,,,,,,,All,Some,Half,More than half,Many,Less than half,Few,None,Most,-0.435986139,0.285467122,1,0,0,QQQ7,,,,,,,,English,2020-07-02_10h59.28.780,Experiment_English,3.2.4,Win32,60,,,1,0,340,125,1,339,ratio15_1_6_19.png,,,,,,,,,,,,
,,,,,,,,,,,,None,Most,More than half,Few,Many,Less than half,Some,All,Half,0.139561744,-0.038639001,1,0,0,QQQ5,,,,,,,,English,2020-07-02_10h59.28.780,Experiment_English,3.2.4,Win32,60,,,1,0,340,307,1,339,ratio51_10_12_1.png,,,,,,,,,,,,
,,,,,,,,,,,,Most,Half,More than half,Some,None,Few,Less than half,All,Many,-0.011533922,0.261245668,1,0,0,QQQ4,,,,,,,,English,2020-07-02_10h59.28.780,Experiment_English,3.2.4,Win32,60,,,1,0,340,119,1,339,ratio14_4_20_10.png,,,,,,,,,,,,
,,,,,,,,,,,,Most,More than half,Few,Many,All,Less than half,Half,None,Some,0.568627501,0.045559351,1,0,0,QQQ2,,,,,,,,English,2020-07-02_10h59.28.780,Experiment_English,3.2.4,Win32,60,,,1,0,340,160,1,339,ratio21_2_3_2.png,,,,,,,,,,,,
,,,,,,,,,,,,Less than half,More than half,None,Half,Many,Most,Few,Some,All,0.534025424,0.240484421,1,0,0,QQQ1,,,,,,,,English,2020-07-02_10h59.28.780,Experiment_English,3.2.4,Win32,60,,,1,0,340,4,1,339,ratio12_2_6_5.png,,,,,,,,,,,,
,,,,,,,,,,,,More than half,None,Some,All,Less than half,Few,Most,Half,Many,-0.502883488,-0.301614858,1,0,0,QQQ9,,,,,,,,English,2020-07-02_10h59.28.780,Experiment_English,3.2.4,Win32,60,,,1,0,340,211,1,339,ratio31_9_12_10.png,,,,,,,,,,,,
,,,,,,,,,,,,Some,Many,None,Less than half,All,Half,More than half,Few,Most,-0.05997683,-0.052479832,1,0,0,QQQ5,,,,,,,,English,2020-07-02_10h59.28.780,Experiment_English,3.2.4,Win32,60,,,1,0,340,44,1,339,ratioX0_7_7_5.png,,,,,,,,,,,,
,,,,,,,,,,,,More than half,Half,Less than half,All,Most,Some,Few,Many,None,-0.05997683,-0.052479832,1,0,0,QQQ5,,,,,,,,English,2020-07-02_10h59.28.780,Experiment_English,3.2.4,Win32,60,,,1,0,340,312,1,339,ratio51_10_12_16.png,,,,,,,,,,,,
,,,,,,,,,,,,All,Half,Most,Some,None,More than half,Few,Less than half,Many,0.384083089,-0.280853612,1,0,0,QQQ3,,,,,,,,English,2020-07-02_10h59.28.780,Experiment_English,3.2.4,Win32,60,,,1,0,340,300,1,339,ratio51_5_6_1.png,,,,,,,,,,,,
,,,,,,,,,,,,Few,All,Some,Less than half,More than half,Most,None,Half,Many,-0.40945788,-0.309688605,1,0,0,QQQ9,,,,,,,,English,2020-07-02_10h59.28.780,Experiment_English,3.2.4,Win32,60,,,1,0,340,213,1,339,ratio31_12_16_2.png,,,,,,,,,,,,
,,,,,,,,,,,,Half,None,More than half,Few,Less than half,All,Most,Some,Many,0.02998857,0.02018453,1,0,0,QQQ5,,,,,,,,English,2020-07-02_10h59.28.780,Experiment_English,3.2.4,Win32,60,,,1,0,340,197,1,339,ratio23_8_20_6.png,,,,,,,,,,,,
,,,,,,,,,,,,Most,Less than half,Some,None,All,Few,Many,More than half,Half,0.083045018,-0.333910059,1,0,0,QQQ6,,,,,,,,English,2020-07-02_10h59.28.780,Experiment_English,3.2.4,Win32,60,,,1,0,340,96,1,339,ratio13_5_20_1.png,,,,,,,,,,,,
,,,,,,,,,,,,Many,All,Some,Less than half,Few,More than half,None,Most,Half,-0.40945788,-0.019031157,1,0,0,QQQ8,,,,,,,,English,2020-07-02_10h59.28.780,Experiment_English,3.2.4,Win32,60,,,1,0,340,166,1,339,ratio21_6_9_1.png,,,,,,,,,,,,
,,,,,,,,,,,,Half,Few,All,More than half,Most,Some,Many,Less than half,None,-0.432525931,-0.010957339,1,0,0,QQQ8,,,,,,,,English,2020-07-02_10h59.28.780,Experiment_English,3.2.4,Win32,60,,,1,0,340,244,1,339,ratio34_3_7_9.png,0.305651715,-0.405421089,1,0,0,continue_button_pause,1,0,1,0,1,0
,,,,,,,,,,,,,,,,,,,,,,,,,,,,,,,,,,English,2020-07-02_10h59.28.780,Experiment_English,3.2.4,Win32,60,,,1,0,340,244,1,339,ratio34_3_7_9.png,,,,,,,,,,,,
,,,,,,,,,,,,Some,All,Half,None,More than half,Few,Most,Many,Less than half,0.520184593,0.279700091,1,0,0,QQQ1,,,,,,,,English,2020-07-02_10h59.28.780,Experiment_English,3.2.4,Win32,60,,,1,0,340,17,1,339,ratio12_6_18_5.png,,,,,,,,,,,,
,,,,,,,,,,,,All,Some,Many,None,Less than half,Few,Half,More than half,Most,0.392156907,-0.050173027,1,0,0,QQQ2,,,,,,,,English,2020-07-02_10h59.28.780,Experiment_English,3.2.4,Win32,60,,,1,0,340,37,1,339,ratio11_9_18_8.png,,,,,,,,,,,,
,,,,,,,,,,,,Few,Most,Half,None,Less than half,All,Many,Some,More than half,0.392156907,-0.050173027,1,0,0,QQQ2,,,,,,,,English,2020-07-02_10h59.28.780,Experiment_English,3.2.4,Win32,60,,,1,0,340,303,1,339,ratio51_5_6_6.png,,,,,,,,,,,,
,,,,,,,,,,,,Some,All,Less than half,Many,None,Most,More than half,Half,Few,-0.424452113,0.0513264,1,0,0,QQQ8,,,,,,,,English,2020-07-02_10h59.28.780,Experiment_English,3.2.4,Win32,60,,,1,0,340,26,1,339,ratio11_5_10_4.png,,,,,,,,,,,,
,,,,,,,,,,,,None,All,Some,More than half,Half,Less than half,Few,Most,Many,-0.035755376,0.225490153,1,0,0,QQQ4,,,,,,,,English,2020-07-02_10h59.28.780,Experiment_English,3.2.4,Win32,60,,,1,0,340,233,1,339,ratio32_9_15_9.png,,,,,,,,,,,,
,,,,,,,,,,,,Most,Some,None,Half,Few,More than half,Less than half,Many,All,-0.083044952,-0.007497132,1,0,0,QQQ5,,,,,,,,English,2020-07-02_10h59.28.780,Experiment_English,3.2.4,Win32,60,,,1,0,340,110,1,339,ratio14_3_15_2.png,,,,,,,,,,,,
,,,,,,,,,,,,More than half,All,Few,Many,Less than half,Half,Some,None,Most,0.51441758,-0.260092365,1,0,0,QQQ3,,,,,,,,English,2020-07-02_10h59.28.780,Experiment_English,3.2.4,Win32,60,,,1,0,340,210,1,339,ratio31_9_12_9.png,,,,,,,,,,,,
,,,,,,,,,,,,Half,None,More than half,Some,Many,All,Most,Less than half,Few,0.520184593,-0.066320663,1,0,0,QQQ2,,,,,,,,English,2020-07-02_10h59.28.780,Experiment_English,3.2.4,Win32,60,,,1,0,340,64,1,339,ratio0Y_0_7_1.png,,,,,,,,,,,,
,,,,,,,,,,,,Most,Half,Many,Less than half,None,All,Some,More than half,Few,0.460207659,-0.250865074,1,0,0,QQQ3,,,,,,,,English,2020-07-02_10h59.28.780,Experiment_English,3.2.4,Win32,60,,,1,0,340,331,1,339,ratio91_18_20_3.png,,,,,,,,,,,,
,,,,,,,,,,,,Many,None,More than half,Few,Less than half,Most,Some,Half,All,-0.520184527,0.26701268,1,0,0,QQQ7,,,,,,,,English,2020-07-02_10h59.28.780,Experiment_English,3.2.4,Win32,60,,,1,0,340,186,1,339,ratio23_4_10_2.png,,,,,,,,,,,,
,,,,,,,,,,,,Some,Half,All,Few,Less than half,More than half,Most,Many,None,-0.509803904,0.046712789,1,0,0,QQQ8,,,,,,,,English,2020-07-02_10h59.28.780,Experiment_English,3.2.4,Win32,60,,,1,0,340,309,1,339,ratio51_10_12_10.png,,,,,,,,,,,,
,,,,,,,,,,,,Some,Less than half,Few,None,All,Half,Many,Most,More than half,0.50980397,0.222029945,1,0,0,QQQ1,,,,,,,,English,2020-07-02_10h59.28.780,Experiment_English,3.2.4,Win32,60,,,1,0,340,191,1,339,ratio23_6_15_7.png,,,,,,,,,,,,
,,,,,,,,,,,,None,All,Half,Some,Many,Most,More than half,Less than half,Few,-0.504036891,-0.224336815,1,0,0,QQQ9,,,,,,,,English,2020-07-02_10h59.28.780,Experiment_English,3.2.4,Win32,60,,,1,0,340,139,1,339,ratio15_3_18_20.png,,,,,,,,,,,,
,,,,,,,,,,,,Less than half,Few,Many,More than half,Most,Some,Half,All,None,0.51441758,0.242791191,1,0,0,QQQ1,,,,,,,,English,2020-07-02_10h59.28.780,Experiment_English,3.2.4,Win32,60,,,1,0,340,5,1,339,ratio12_2_6_9.png,,,,,,,,,,,,
,,,,,,,,,,,,All,Few,Half,Many,Some,Less than half,Most,More than half,None,0.497116541,0.079008061,1,0,0,QQQ2,,,,,,,,English,2020-07-02_10h59.28.780,Experiment_English,3.2.4,Win32,60,,,1,0,340,134,1,339,ratio15_3_18_5.png,,,,,,,,,,,,
,,,,,,,,,,,,Some,Many,All,Less than half,None,Few,More than half,Half,Most,0.475201893,0.025951543,1,0,0,QQQ2,,,,,,,,English,2020-07-02_10h59.28.780,Experiment_English,3.2.4,Win32,60,,,1,0,340,174,1,339,ratio21_10_15_1.png,,,,,,,,,,,,
,,,,,,,,,,,,None,More than half,Few,Most,Many,All,Half,Less than half,Some,0.386389895,-0.290080762,1,0,0,QQQ3,,,,,,,,English,2020-07-02_10h59.28.780,Experiment_English,3.2.4,Win32,60,,,1,0,340,128,1,339,ratio15_2_12_8.png,,,,,,,,,,,,
,,,,,,,,,,,,More than half,Most,All,Many,Less than half,Half,None,Some,Few,0.441753218,0.261245668,1,0,0,QQQ1,,,,,,,,English,2020-07-02_10h59.28.780,Experiment_English,3.2.4,Win32,60,,,1,0,340,299,1,339,ratio43_8_14_17.png,,,,,,,,,,,,
,,,,,,,,,,,,Some,None,Few,Many,More than half,Half,Most,Less than half,All,0.041522526,0.075547854,1,0,0,QQQ5,,,,,,,,English,2020-07-02_10h59.28.780,Experiment_English,3.2.4,Win32,60,,,1,0,340,229,1,339,ratio32_6_10_9.png,,,,,,,,,,,,
,,,,,,,,,,,,None,Most,Half,Less than half,Some,More than half,Few,All,Many,-0.425605516,0.293540922,1,0,0,QQQ7,,,,,,,,English,2020-07-02_10h59.28.780,Experiment_English,3.2.4,Win32,60,,,1,0,340,181,1,339,ratio23_2_5_6.png,,,,,,,,,,,,
,,,,,,,,,,,,Some,Half,Most,Few,Less than half,Many,None,All,More than half,0.452133841,-0.044406049,1,0,0,QQQ2,,,,,,,,English,2020-07-02_10h59.28.780,Experiment_English,3.2.4,Win32,60,,,1,0,340,22,1,339,ratio11_3_6_6.png,,,,,,,,,,,,
,,,,,,,,,,,,Few,Many,More than half,All,Most,None,Some,Less than half,Half,0.39792392,-0.263552573,1,0,0,QQQ3,,,,,,,,English,2020-07-02_10h59.28.780,Experiment_English,3.2.4,Win32,60,,,1,0,340,228,1,339,ratio32_6_10_7.png,,,,,,,,,,,,
,,,,,,,,,,,,None,Many,Half,More than half,Most,Some,Less than half,All,Few,0.096885849,-0.073241078,1,0,0,QQQ5,,,,,,,,English,2020-07-02_10h59.28.780,Experiment_English,3.2.4,Win32,60,,,1,0,340,330,1,339,ratio91_18_20_2.png,,,,,,,,,,,,
,,,,,,,,,,,,Many,More than half,Some,None,All,Half,Few,Less than half,Most,-0.515570917,-0.355824708,1,0,0,QQQ9,,,,,,,,English,2020-07-02_10h59.28.780,Experiment_English,3.2.4,Win32,60,,,1,0,340,306,1,339,ratio51_5_6_18.png,,,,,,,,,,,,
,,,,,,,,,,,,Many,Few,Some,Most,None,All,Half,Less than half,More than half,-0.545559348,-0.245098061,1,0,0,QQQ9,,,,,,,,English,2020-07-02_10h59.28.780,Experiment_English,3.2.4,Win32,60,,,1,0,340,281,1,339,ratio43_4_7_4.png,,,,,,,,,,,,
,,,,,,,,,,,,Few,Most,Some,Less than half,Many,More than half,None,All,Half,-0.061130303,-0.020184595,1,0,0,QQQ5,,,,,,,,English,2020-07-02_10h59.28.780,Experiment_English,3.2.4,Win32,60,,,1,0,340,337,1,339,ratio91_18_20_16.png,,,,,,,,,,,,
,,,,,,,,,,,,Half,Less than half,None,All,Most,Many,Few,More than half,Some,0.026528363,-0.241637854,1,0,0,QQQ6,,,,,,,,English,2020-07-02_10h59.28.780,Experiment_English,3.2.4,Win32,60,,,1,0,340,235,1,339,ratio32_12_20_1.png,,,,,,,,,,,,
,,,,,,,,,,,,All,Many,None,Less than half,Most,More than half,Half,Some,Few,-0.491349463,-0.256632158,1,0,0,QQQ9,,,,,,,,English,2020-07-02_10h59.28.780,Experiment_English,3.2.4,Win32,60,,,1,0,340,152,1,339,ratio19_2_20_6.png,,,,,,,,,,,,
,,,,,,,,,,,,All,Most,Less than half,Few,None,Many,Half,More than half,Some,0.048442941,-0.264705905,1,0,0,QQQ6,,,,,,,,English,2020-07-02_10h59.28.780,Experiment_English,3.2.4,Win32,60,,,1,0,340,171,1,339,ratio21_8_12_4.png,,,,,,,,,,,,
,,,,,,,,,,,,Less than half,Some,Many,More than half,None,Few,Half,All,Most,0.414071556,0.02018453,1,0,0,QQQ2,,,,,,,,English,2020-07-02_10h59.28.780,Experiment_English,3.2.4,Win32,60,,,1,0,340,292,1,339,ratio43_8_14_6.png,,,,,,,,,,,,
,,,,,,,,,,,,All,Less than half,More than half,Most,None,Half,Few,Many,Some,-0.422145308,-0.007497132,1,0,0,QQQ8,,,,,,,,English,2020-07-02_10h59.28.780,Experiment_English,3.2.4,Win32,60,,,1,0,340,266,1,339,ratio41_8_10_2.png,,,,,,,,,,,,
,,,,,,,,,,,,None,Less than half,Some,Half,More than half,Most,Few,All,Many,0.524798203,0.280853511,1,0,0,QQQ1,,,,,,,,English,2020-07-02_10h59.28.780,Experiment_English,3.2.4,Win32,60,,,1,0,340,76,1,339,ratio0Y_0_17_10.png,,,,,,,,,,,,
,,,,,,,,,,,,Less than half,Some,Half,More than half,None,Most,All,Few,Many,0.103806264,0.279700091,1,0,0,QQQ4,,,,,,,,English,2020-07-02_10h59.28.780,Experiment_English,3.2.4,Win32,60,,,1,0,340,295,1,339,ratio43_8_14_11.png,,,,,,,,,,,,
,,,,,,,,,,,,Most,Less than half,All,None,Few,Half,More than half,Some,Many,-0.516724319,0.279700091,1,0,0,QQQ7,,,,,,,,English,2020-07-02_10h59.28.780,Experiment_English,3.2.4,Win32,60,,,1,0,340,209,1,339,ratio31_9_12_6.png,0.326412961,-0.398500674,1,0,0,continue_button_pause,1,0,1,0,1,0
,,,,,,,,,,,,,,,,,,,,,,,,,,,,,,,,,,English,2020-07-02_10h59.28.780,Experiment_English,3.2.4,Win32,60,,,1,0,340,209,1,339,ratio31_9_12_6.png,,,,,,,,,,,,
,,,,,,,,,,,,Many,All,Half,Less than half,Most,Some,More than half,Few,None,0.439446413,0.29700113,1,0,0,QQQ1,,,,,,,,English,2020-07-02_10h59.28.780,Experiment_English,3.2.4,Win32,60,,,1,0,340,214,1,339,ratio31_12_16_5.png,,,,,,,,,,,,
,,,,,,,,,,,,All,Half,Most,Many,None,Few,More than half,Less than half,Some,-0.016147603,0.023644738,1,0,0,QQQ5,,,,,,,,English,2020-07-02_10h59.28.780,Experiment_English,3.2.4,Win32,60,,,1,0,340,70,1,339,ratio0Y_0_12_5.png,,,,,,,,,,,,
,,,,,,,,,,,,Less than half,More than half,Most,Many,Half,Some,All,Few,None,0.546712852,-0.384659843,1,0,0,QQQ3,,,,,,,,English,2020-07-02_10h59.28.780,Experiment_English,3.2.4,Win32,60,,,1,0,340,261,1,339,ratio41_4_5_3.png,,,,,,,,,,,,
,,,,,,,,,,,,All,Some,Most,Many,Half,Few,None,Less than half,More than half,-0.470588216,0.235870776,1,0,0,QQQ7,,,,,,,,English,2020-07-02_10h59.28.780,Experiment_English,3.2.4,Win32,60,,,1,0,340,61,1,339,ratio0Y_0_4_7.png,,,,,,,,,,,,
,,,,,,,,,,,,More than half,Less than half,All,Few,None,Half,Most,Many,Some,-0.536332163,-0.230103828,1,0,0,QQQ9,,,,,,,,English,2020-07-02_10h59.28.780,Experiment_English,3.2.4,Win32,60,,,1,0,340,10,1,339,ratio12_4_12_4.png,,,,,,,,,,,,
,,,,,,,,,,,,All,More than half,Half,Some,Less than half,None,Few,Many,Most,-0.465974606,-0.006343764,1,0,0,QQQ8,,,,,,,,English,2020-07-02_10h59.28.780,Experiment_English,3.2.4,Win32,60,,,1,0,340,317,1,339,ratio51_15_18_13.png,,,,,,,,,,,,
,,,,,,,,,,,,Most,Less than half,All,Few,Some,More than half,Half,Many,None,-0.465974606,-0.006343764,1,0,0,QQQ8,,,,,,,,English,2020-07-02_10h59.28.780,Experiment_English,3.2.4,Win32,60,,,1,0,340,207,1,339,ratio31_6_8_9.png,,,,,,,,,,,,
,,,,,,,,,,,,All,Few,Most,Half,None,More than half,Some,Many,Less than half,-0.465974606,-0.006343764,1,0,0,QQQ8,,,,,,,,English,2020-07-02_10h59.28.780,Experiment_English,3.2.4,Win32,60,,,1,0,340,277,1,339,ratio41_16_20_8.png,,,,,,,,,,,,
,,,,,,,,,,,,Less than half,Few,Many,Some,None,Most,Half,All,More than half,0.614763604,-0.066320663,1,0,0,QQQ2,,,,,,,,English,2020-07-02_10h59.28.780,Experiment_English,3.2.4,Win32,60,,,1,0,340,124,1,339,ratio15_1_6_16.png,,,,,,,,,,,,
,,,,,,,,,,,,Some,Half,Less than half,Most,Few,More than half,None,All,Many,0.040369193,-0.014417547,1,0,0,QQQ5,,,,,,,,English,2020-07-02_10h59.28.780,Experiment_English,3.2.4,Win32,60,,,1,0,340,101,1,339,ratio14_1_5_7.png,,,,,,,,,,,,
,,,,,,,,,,,,Half,Less than half,All,None,Most,More than half,Many,Some,Few,0.040369193,-0.014417547,1,0,0,QQQ5,,,,,,,,English,2020-07-02_10h59.28.780,Experiment_English,3.2.4,Win32,60,,,1,0,340,278,1,339,ratio41_16_20_9.png,,,,,,,,,,,,
,,,,,,,,,,,,All,More than half,Few,Many,Most,Some,Less than half,None,Half,-0.079584744,-0.322376104,1,0,0,QQQ6,,,,,,,,English,2020-07-02_10h59.28.780,Experiment_English,3.2.4,Win32,60,,,1,0,340,98,1,339,ratio13_5_20_3.png,,,,,,,,,,,,
,,,,,,,,,,,,Most,Many,Half,Few,None,All,Some,More than half,Less than half,0.497116541,0.058246815,1,0,0,QQQ2,,,,,,,,English,2020-07-02_10h59.28.780,Experiment_English,3.2.4,Win32,60,,,1,0,340,32,1,339,ratio11_7_14_5.png,,,,,,,,,,,,
,,,,,,,,,,,,Most,None,Many,Few,Half,More than half,All,Less than half,Some,-0.051903083,0.373125699,1,0,0,QQQ4,,,,,,,,English,2020-07-02_10h59.28.780,Experiment_English,3.2.4,Win32,60,,,1,0,340,132,1,339,ratio15_2_12_16.png,,,,,,,,,,,,
,,,,,,,,,,,,Less than half,Some,All,More than half,Many,Few,Half,Most,None,0.364475246,0.356978072,1,0,0,QQQ1,,,,,,,,English,2020-07-02_10h59.28.780,Experiment_English,3.2.4,Win32,60,,,1,0,340,9,1,339,ratio12_3_9_5.png,,,,,,,,,,,,
,,,,,,,,,,,,Half,Most,Few,Many,More than half,All,Some,Less than half,None,-0.058823498,-0.255478685,1,0,0,QQQ6,,,,,,,,English,2020-07-02_10h59.28.780,Experiment_English,3.2.4,Win32,60,,,1,0,340,54,1,339,ratioX0_15_15_5.png,,,,,,,,,,,,
,,,,,,,,,,,,Some,Few,Less than half,Most,Half,All,More than half,None,Many,0.467128075,-0.275086528,1,0,0,QQQ3,,,,,,,,English,2020-07-02_10h59.28.780,Experiment_English,3.2.4,Win32,60,,,1,0,340,241,1,339,ratio34_3_7_5.png,,,,,,,,,,,,
,,,,,,,,,,,,None,Half,All,Some,Less than half,Few,More than half,Most,Many,0.461361062,-0.046712819,1,0,0,QQQ2,,,,,,,,English,2020-07-02_10h59.28.780,Experiment_English,3.2.4,Win32,60,,,1,0,340,23,1,339,ratio11_3_6_9.png,,,,,,,,,,,,
,,,,,,,,,,,,Some,Half,None,More than half,Most,All,Few,Many,Less than half,0.050749817,-0.004036924,1,0,0,QQQ5,,,,,,,,English,2020-07-02_10h59.28.780,Experiment_English,3.2.4,Win32,60,,,1,0,340,313,1,339,ratio51_15_18_2.png,,,,,,,,,,,,
,,,,,,,,,,,,Most,More than half,None,Few,Many,All,Half,Some,Less than half,0.050749817,-0.004036924,1,0,0,QQQ5,,,,,,,,English,2020-07-02_10h59.28.780,Experiment_English,3.2.4,Win32,60,,,1,0,340,34,1,339,ratio11_8_16_8.png,,,,,,,,,,,,
,,,,,,,,,,,,Less than half,All,Many,Half,Some,More than half,Most,Few,None,0.377162674,-0.265859308,1,0,0,QQQ3,,,,,,,,English,2020-07-02_10h59.28.780,Experiment_English,3.2.4,Win32,60,,,1,0,340,276,1,339,ratio41_16_20_4.png,,,,,,,,,,,,
,,,,,,,,,,,,Few,Half,All,More than half,Most,Some,Many,None,Less than half,0.575547916,-0.270472988,1,0,0,QQQ3,,,,,,,,English,2020-07-02_10h59.28.780,Experiment_English,3.2.4,Win32,60,,,1,0,340,52,1,339,ratioX0_13_13_10.png,,,,,,,,,,,,
,,,,,,,,,,,,All,Some,More than half,Few,Most,Less than half,Many,None,Half,0.118800498,-0.05594004,1,0,0,QQQ5,,,,,,,,English,2020-07-02_10h59.28.780,Experiment_English,3.2.4,Win32,60,,,1,0,340,310,1,339,ratio51_10_12_12.png,,,,,,,,,,,,
,,,,,,,,,,,,All,More than half,Few,Most,Less than half,Many,Some,Half,None,-0.45444058,0.254325252,1,0,0,QQQ7,,,,,,,,English,2020-07-02_10h59.28.780,Experiment_English,3.2.4,Win32,60,,,1,0,340,283,1,339,ratio43_4_7_8.png,,,,,,,,,,,,
,,,,,,,,,,,,Some,All,Most,None,Few,Many,More than half,Less than half,Half,0.427912387,-0.239331119,1,0,0,QQQ3,,,,,,,,English,2020-07-02_10h59.28.780,Experiment_English,3.2.4,Win32,60,,,1,0,340,145,1,339,ratio19_1_10_15.png,,,,,,,,,,,,
,,,,,,,,,,,,All,More than half,Some,Few,Half,Many,None,Less than half,Most,0.018454474,0.318915796,1,0,0,QQQ4,,,,,,,,English,2020-07-02_10h59.28.780,Experiment_English,3.2.4,Win32,60,,,1,0,340,118,1,339,ratio14_4_20_8.png,,,,,,,,,,,,
,,,,,,,,,,,,Some,Half,More than half,Most,Less than half,None,Few,Many,All,-0.435986139,0.22087656,1,0,0,QQQ7,,,,,,,,English,2020-07-02_10h59.28.780,Experiment_English,3.2.4,Win32,60,,,1,0,340,120,1,339,ratio15_1_6_1.png,,,,,,,,,,,,
,,,,,,,,,,,,Most,Many,More than half,Some,Few,Less than half,Half,None,All,0.480968905,0.268166083,1,0,0,QQQ1,,,,,,,,English,2020-07-02_10h59.28.780,Experiment_English,3.2.4,Win32,60,,,1,0,340,304,1,339,ratio51_5_6_13.png,,,,,,,,,,,,
,,,,,,,,,,,,More than half,None,All,Half,Few,Less than half,Many,Some,Most,0.472895087,-0.242791327,1,0,0,QQQ3,,,,,,,,English,2020-07-02_10h59.28.780,Experiment_English,3.2.4,Win32,60,,,1,0,340,55,1,339,ratioX0_16_16_3.png,,,,,,,,,,,,
,,,,,,,,,,,,More than half,Few,Less than half,Most,None,All,Many,Half,Some,-0.432525931,-0.030565218,1,0,0,QQQ8,,,,,,,,English,2020-07-02_10h59.28.780,Experiment_English,3.2.4,Win32,60,,,1,0,340,36,1,339,ratio11_9_18_1.png,,,,,,,,,,,,
,,,,,,,,,,,,None,Some,Half,Many,Few,All,More than half,Most,Less than half,-0.461360996,-0.311995481,1,0,0,QQQ9,,,,,,,,English,2020-07-02_10h59.28.780,Experiment_English,3.2.4,Win32,60,,,1,0,340,184,1,339,ratio23_2_5_10.png,,,,,,,,,,,,
,,,,,,,,,,,,Some,Few,More than half,Most,Many,Half,None,Less than half,All,-0.450980373,-0.333910059,1,0,0,QQQ9,,,,,,,,English,2020-07-02_10h59.28.780,Experiment_English,3.2.4,Win32,60,,,1,0,340,49,1,339,ratioX0_11_11_2.png,,,,,,,,,,,,
,,,,,,,,,,,,More than half,Half,Many,Few,Some,Less than half,None,Most,All,0.032295305,0.01787769,1,0,0,QQQ5,,,,,,,,English,2020-07-02_10h59.28.780,Experiment_English,3.2.4,Win32,60,,,1,0,340,192,1,339,ratio23_6_15_8.png,,,,,,,,,,,,
,,,,,,,,,,,,All,None,Many,Most,Few,Some,Less than half,More than half,Half,0.032295305,0.01787769,1,0,0,QQQ5,,,,,,,,English,2020-07-02_10h59.28.780,Experiment_English,3.2.4,Win32,60,,,1,0,340,100,1,339,ratio14_1_5_3.png,0.292964286,-0.393886993,1,0,0,continue_button_pause,1,0,1,0,1,0
,,,,,,,,,,,,,,,,,,,,,,,,,,,,,,,,,,English,2020-07-02_10h59.28.780,Experiment_English,3.2.4,Win32,60,,,1,0,340,100,1,339,ratio14_1_5_3.png,,,,,,,,,,,,
,,,,,,,,,,,,Few,Most,More than half,Some,Many,All,Less than half,Half,None,-0.087658492,0.286620507,1,0,0,QQQ4,,,,,,,,English,2020-07-02_10h59.28.780,Experiment_English,3.2.4,Win32,60,,,1,0,340,115,1,339,ratio14_4_20_1.png,,,,,,,,,,,,
,,,,,,,,,,,,None,Some,Less than half,Half,More than half,Most,Few,All,Many,-0.474048424,0.241637806,1,0,0,QQQ7,,,,,,,,English,2020-07-02_10h59.28.780,Experiment_English,3.2.4,Win32,60,,,1,0,340,147,1,339,ratio19_1_10_18.png,,,,,,,,,,,,
,,,,,,,,,,,,All,Many,Most,Few,More than half,Less than half,None,Half,Some,-0.464821203,-0.231257231,1,0,0,QQQ9,,,,,,,,English,2020-07-02_10h59.28.780,Experiment_English,3.2.4,Win32,60,,,1,0,340,258,1,339,ratio34_6_14_14.png,,,,,,,,,,,,
,,,,,,,,,,,,Some,More than half,None,Less than half,Most,Half,Many,All,Few,0.378316077,-0.05824688,1,0,0,QQQ2,,,,,,,,English,2020-07-02_10h59.28.780,Experiment_English,3.2.4,Win32,60,,,1,0,340,205,1,339,ratio31_6_8_2.png,,,,,,,,,,,,
,,,,,,,,,,,,None,Many,More than half,All,Most,Some,Half,Less than half,Few,-0.462514398,-0.2623991,1,0,0,QQQ9,,,,,,,,English,2020-07-02_10h59.28.780,Experiment_English,3.2.4,Win32,60,,,1,0,340,127,1,339,ratio15_2_12_2.png,,,,,,,,,,,,
,,,,,,,,,,,,All,Half,More than half,Some,None,Less than half,Many,Most,Few,-0.462514398,-0.2623991,1,0,0,QQQ9,,,,,,,,English,2020-07-02_10h59.28.780,Experiment_English,3.2.4,Win32,60,,,1,0,340,140,1,339,ratio19_1_10_1.png,,,,,,,,,,,,
,,,,,,,,,,,,More than half,Half,Most,Many,Some,None,All,Few,Less than half,-0.477508632,0.277393304,1,0,0,QQQ7,,,,,,,,English,2020-07-02_10h59.28.780,Experiment_English,3.2.4,Win32,60,,,1,0,340,41,1,339,ratioX0_4_4_9.png,,,,,,,,,,,,
,,,,,,,,,,,,Some,None,Most,More than half,Half,Few,All,Many,Less than half,0.535178826,-0.235870911,1,0,0,QQQ3,,,,,,,,English,2020-07-02_10h59.28.780,Experiment_English,3.2.4,Win32,60,,,1,0,340,263,1,339,ratio41_4_5_5.png,,,,,,,,,,,,
,,,,,,,,,,,,None,All,Most,Less than half,Half,Some,Few,Many,More than half,0.475201893,-0.339677143,1,0,0,QQQ3,,,,,,,,English,2020-07-02_10h59.28.780,Experiment_English,3.2.4,Win32,60,,,1,0,340,332,1,339,ratio91_18_20_4.png,,,,,,,,,,,,
,,,,,,,,,,,,Most,Less than half,More than half,None,Half,Many,Some,All,Few,0.486735918,-0.326989644,1,0,0,QQQ3,,,,,,,,English,2020-07-02_10h59.28.780,Experiment_English,3.2.4,Win32,60,,,1,0,340,223,1,339,ratio32_3_5_5.png,,,,,,,,,,,,
,,,,,,,,,,,,Less than half,Most,None,All,More than half,Many,Few,Half,Some,0.008073851,-0.02941178,1,0,0,QQQ5,,,,,,,,English,2020-07-02_10h59.28.780,Experiment_English,3.2.4,Win32,60,,,1,0,340,222,1,339,ratio32_3_5_4.png,,,,,,,,,,,,
,,,,,,,,,,,,Some,Most,None,Less than half,Half,More than half,All,Many,Few,0.040369193,-0.267012781,1,0,0,QQQ6,,,,,,,,English,2020-07-02_10h59.28.780,Experiment_English,3.2.4,Win32,60,,,1,0,340,252,1,339,ratio34_6_14_3.png,,,,,,,,,,,,
,,,,,,,,,,,,Some,Few,Half,Many,None,Most,Less than half,More than half,All,0.091118836,-0.371972344,1,0,0,QQQ6,,,,,,,,English,2020-07-02_10h59.28.780,Experiment_English,3.2.4,Win32,60,,,1,0,340,302,1,339,ratio51_5_6_5.png,,,,,,,,,,,,
,,,,,,,,,,,,More than half,None,Less than half,Many,Most,Half,Some,All,Few,0.044982733,0.245098014,1,0,0,QQQ4,,,,,,,,English,2020-07-02_10h59.28.780,Experiment_English,3.2.4,Win32,60,,,1,0,340,178,1,339,ratio21_12_18_2.png,,,,,,,,,,,,
,,,,,,,,,,,,All,More than half,Many,Half,None,Most,Some,Few,Less than half,0.447520231,-0.028258378,1,0,0,QQQ2,,,,,,,,English,2020-07-02_10h59.28.780,Experiment_English,3.2.4,Win32,60,,,1,0,340,161,1,339,ratio21_2_3_8.png,,,,,,,,,,,,
,,,,,,,,,,,,Many,None,Most,All,Less than half,Some,Half,More than half,Few,0.084198421,0.001730089,1,0,0,QQQ5,,,,,,,,English,2020-07-02_10h59.28.780,Experiment_English,3.2.4,Win32,60,,,1,0,340,183,1,339,ratio23_2_5_9.png,,,,,,,,,,,,
,,,,,,,,,,,,Few,Half,Less than half,All,More than half,Most,Some,None,Many,-0.461360996,0.223183383,1,0,0,QQQ7,,,,,,,,English,2020-07-02_10h59.28.780,Experiment_English,3.2.4,Win32,60,,,1,0,340,93,1,339,ratio13_4_16_7.png,,,,,,,,,,,,
,,,,,,,,,,,,All,Some,Less than half,Half,More than half,Few,None,Many,Most,-0.381776218,0.025951543,1,0,0,QQQ8,,,,,,,,English,2020-07-02_10h59.28.780,Experiment_English,3.2.4,Win32,60,,,1,0,340,227,1,339,ratio32_6_10_6.png,,,,,,,,,,,,
,,,,,,,,,,,,Less than half,More than half,Some,Half,None,Many,All,Few,Most,0.489042723,0.044405984,1,0,0,QQQ2,,,,,,,,English,2020-07-02_10h59.28.780,Experiment_English,3.2.4,Win32,60,,,1,0,340,286,1,339,ratio43_4_7_15.png,,,,,,,,,,,,
,,,,,,,,,,,,More than half,Few,Many,All,Most,Some,Less than half,Half,None,0.019607947,0.01557092,1,0,0,QQQ5,,,,,,,,English,2020-07-02_10h59.28.780,Experiment_English,3.2.4,Win32,60,,,1,0,340,323,1,339,ratio91_9_10_5.png,,,,,,,,,,,,
,,,,,,,,,,,,Few,More than half,Most,All,Half,Some,None,Many,Less than half,-0.422145308,0.01787769,1,0,0,QQQ8,,,,,,,,English,2020-07-02_10h59.28.780,Experiment_English,3.2.4,Win32,60,,,1,0,340,177,1,339,ratio21_12_18_1.png,,,,,,,,,,,,
,,,,,,,,,,,,Most,Half,Less than half,More than half,All,Many,Some,None,Few,0.449827036,-0.309688605,1,0,0,QQQ3,,,,,,,,English,2020-07-02_10h59.28.780,Experiment_English,3.2.4,Win32,60,,,1,0,340,6,1,339,ratio12_3_9_1.png,,,,,,,,,,,,
,,,,,,,,,,,,Less than half,All,Half,More than half,Most,Some,None,Few,Many,0.049596344,-0.316609021,1,0,0,QQQ6,,,,,,,,English,2020-07-02_10h59.28.780,Experiment_English,3.2.4,Win32,60,,,1,0,340,198,1,339,ratio23_8_20_7.png,,,,,,,,,,,,
,,,,,,,,,,,,None,Many,More than half,Half,Some,Few,Less than half,All,Most,-0.408304477,-0.300461385,1,0,0,QQQ9,,,,,,,,English,2020-07-02_10h59.28.780,Experiment_English,3.2.4,Win32,60,,,1,0,340,311,1,339,ratio51_10_12_14.png,,,,,,,,,,,,
,,,,,,,,,,,,Half,More than half,Many,All,Some,Most,Few,None,Less than half,0.080738213,0.013264115,1,0,0,QQQ5,,,,,,,,English,2020-07-02_10h59.28.780,Experiment_English,3.2.4,Win32,60,,,1,0,340,269,1,339,ratio41_8_10_6.png,,,,,,,,,,,,
,,,,,,,,,,,,Few,Half,Some,More than half,Many,Less than half,None,All,Most,0.040369193,0.209342552,1,0,0,QQQ4,,,,,,,,English,2020-07-02_10h59.28.780,Experiment_English,3.2.4,Win32,60,,,1,0,340,164,1,339,ratio21_4_6_6.png,,,,,,,,,,,,
,,,,,,,,,,,,None,More than half,All,Less than half,Half,Many,Most,Few,Some,-0.01038059,0.252018429,1,0,0,QQQ4,,,,,,,,English,2020-07-02_10h59.28.780,Experiment_English,3.2.4,Win32,60,,,1,0,340,19,1,339,ratio12_6_18_9.png,,,,,,,,,,,,
,,,,,,,,,,,,Most,Less than half,More than half,Some,None,Few,Many,Half,All,-0.021914545,-0.225490288,1,0,0,QQQ6,,,,,,,,English,2020-07-02_10h59.28.780,Experiment_English,3.2.4,Win32,60,,,1,0,340,148,1,339,ratio19_1_10_19.png,,,,,,,,,,,,
,,,,,,,,,,,,Less than half,None,Some,Half,Few,Many,More than half,All,Most,0.003460241,-0.276239931,1,0,0,QQQ6,,,,,,,,English,2020-07-02_10h59.28.780,Experiment_English,3.2.4,Win32,60,,,1,0,340,275,1,339,ratio41_16_20_2.png,,,,,,,,,,,,
,,,,,,,,,,,,More than half,Half,Few,Many,Some,Less than half,None,All,Most,0.504036957,0.311995381,1,0,0,QQQ1,,,,,,,,English,2020-07-02_10h59.28.780,Experiment_English,3.2.4,Win32,60,,,1,0,340,170,1,339,ratio21_6_9_8.png,,,,,,,,,,,,
,,,,,,,,,,,,More than half,Most,None,Few,Some,All,Many,Less than half,Half,0.504036957,0.311995381,1,0,0,QQQ1,,,,,,,,English,2020-07-02_10h59.28.780,Experiment_English,3.2.4,Win32,60,,,1,0,340,165,1,339,ratio21_4_6_10.png,,,,,,,,,,,,
,,,,,,,,,,,,Some,Few,Most,Half,None,More than half,Less than half,All,Many,-0.003460175,-0.284313819,1,0,0,QQQ6,,,,,,,,English,2020-07-02_10h59.28.780,Experiment_English,3.2.4,Win32,60,,,1,0,340,163,1,339,ratio21_4_6_1.png,,,,,,,,,,,,
,,,,,,,,,,,,None,Some,More than half,Most,Many,Few,Half,All,Less than half,-0.003460175,-0.064013858,1,0,0,QQQ5,,,,,,,,English,2020-07-02_10h59.28.780,Experiment_English,3.2.4,Win32,60,,,1,0,340,268,1,339,ratio41_8_10_5.png,,,,,,,,,,,,
,,,,,,,,,,,,Some,Most,More than half,None,Less than half,Few,Many,All,Half,-0.439446347,-0.019031157,1,0,0,QQQ8,,,,,,,,English,2020-07-02_10h59.28.780,Experiment_English,3.2.4,Win32,60,,,1,0,340,50,1,339,ratioX0_12_12_3.png,0.309111922,-0.370819012,1,0,0,continue_button_pause,1,0,1,0,1,0
,,,,,,,,,,,,,,,,,,,,,,,,,,,,,,,,,,English,2020-07-02_10h59.28.780,Experiment_English,3.2.4,Win32,60,,,1,0,340,50,1,339,ratioX0_12_12_3.png,,,,,,,,,,,,
,,,,,,,,,,,,All,Many,More than half,Most,None,Half,Some,Few,Less than half,-0.068050719,-0.290080762,1,0,0,QQQ6,,,,,,,,English,2020-07-02_10h59.28.780,Experiment_English,3.2.4,Win32,60,,,1,0,340,287,1,339,ratio43_4_7_17.png,,,,,,,,,,,,
,,,,,,,,,,,,Less than half,All,Few,Some,More than half,Half,Many,Most,None,-0.068050719,-0.290080762,1,0,0,QQQ6,,,,,,,,English,2020-07-02_10h59.28.780,Experiment_English,3.2.4,Win32,60,,,1,0,340,237,1,339,ratio32_12_20_5.png,,,,,,,,,,,,
,,,,,,,,,,,,Half,Less than half,More than half,All,Some,Most,None,Few,Many,-0.394463647,-0.035178793,1,0,0,QQQ8,,,,,,,,English,2020-07-02_10h59.28.780,Experiment_English,3.2.4,Win32,60,,,1,0,340,80,1,339,ratio13_1_4_3.png,,,,,,,,,,,,
,,,,,,,,,,,,Some,More than half,Many,Few,Less than half,Half,All,Most,None,-0.020761213,0.264705875,1,0,0,QQQ4,,,,,,,,English,2020-07-02_10h59.28.780,Experiment_English,3.2.4,Win32,60,,,1,0,340,1,1,339,ratio12_1_3_7.png,,,,,,,,,,,,
,,,,,,,,,,,,Most,Half,All,Few,Less than half,None,More than half,Some,Many,-0.020761213,0.264705875,1,0,0,QQQ4,,,,,,,,English,2020-07-02_10h59.28.780,Experiment_English,3.2.4,Win32,60,,,1,0,340,195,1,339,ratio23_8_20_1.png,,,,,,,,,,,,
,,,,,,,,,,,,Most,Half,More than half,None,Less than half,Many,All,Few,Some,-0.48558245,0.0513264,1,0,0,QQQ8,,,,,,,,English,2020-07-02_10h59.28.780,Experiment_English,3.2.4,Win32,60,,,1,0,340,2,1,339,ratio12_1_3_10.png,,,,,,,,,,,,
,,,,,,,,,,,,All,Less than half,Most,More than half,Some,None,Many,Few,Half,-0.510957306,-0.042099209,1,0,0,QQQ8,,,,,,,,English,2020-07-02_10h59.28.780,Experiment_English,3.2.4,Win32,60,,,1,0,340,144,1,339,ratio19_1_10_11.png,,,,,,,,,,,,
,,,,,,,,,,,,More than half,Few,Some,All,Most,Half,Many,None,Less than half,0.439446413,-0.252018477,1,0,0,QQQ3,,,,,,,,English,2020-07-02_10h59.28.780,Experiment_English,3.2.4,Win32,60,,,1,0,340,257,1,339,ratio34_6_14_12.png,,,,,,,,,,,,
,,,,,,,,,,,,Half,More than half,Many,Most,None,All,Some,Few,Less than half,0.629757837,-0.030565218,1,0,0,QQQ2,,,,,,,,English,2020-07-02_10h59.28.780,Experiment_English,3.2.4,Win32,60,,,1,0,340,212,1,339,ratio31_12_16_1.png,,,,,,,,,,,,
,,,,,,,,,,,,More than half,Some,Many,Less than half,Most,None,All,Half,Few,-0.376009205,0.028258313,1,0,0,QQQ8,,,,,,,,English,2020-07-02_10h59.28.780,Experiment_English,3.2.4,Win32,60,,,1,0,340,196,1,339,ratio23_8_20_5.png,,,,,,,,,,,,
,,,,,,,,,,,,Some,Less than half,All,Many,Half,None,Few,More than half,Most,0.042675928,0.232410568,1,0,0,QQQ4,,,,,,,,English,2020-07-02_10h59.28.780,Experiment_English,3.2.4,Win32,60,,,1,0,340,218,1,339,ratio31_15_20_7.png,,,,,,,,,,,,
,,,,,,,,,,,,Many,More than half,Some,Few,Most,Half,Less than half,All,None,0.46943488,0.351211068,1,0,0,QQQ1,,,,,,,,English,2020-07-02_10h59.28.780,Experiment_English,3.2.4,Win32,60,,,1,0,340,208,1,339,ratio31_9_12_3.png,,,,,,,,,,,,
,,,,,,,,,,,,Half,All,Many,More than half,Some,Less than half,Most,None,Few,0.091118836,0.055939975,1,0,0,QQQ5,,,,,,,,English,2020-07-02_10h59.28.780,Experiment_English,3.2.4,Win32,60,,,1,0,340,289,1,339,ratio43_4_7_20.png,,,,,,,,,,,,
,,,,,,,,,,,,Half,More than half,All,None,Less than half,Many,Some,Few,Most,0.382929687,0.025951543,1,0,0,QQQ2,,,,,,,,English,2020-07-02_10h59.28.780,Experiment_English,3.2.4,Win32,60,,,1,0,340,282,1,339,ratio43_4_7_7.png,,,,,,,,,,,,
,,,,,,,,,,,,None,Few,Many,Half,More than half,Some,All,Most,Less than half,0.494809736,0.010957274,1,0,0,QQQ2,,,,,,,,English,2020-07-02_10h59.28.780,Experiment_English,3.2.4,Win32,60,,,1,0,340,141,1,339,ratio19_1_10_2.png,,,,,,,,,,,,
,,,,,,,,,,,,None,Most,More than half,Less than half,Half,Few,Some,Many,All,-0.039215584,0.227796975,1,0,0,QQQ4,,,,,,,,English,2020-07-02_10h59.28.780,Experiment_English,3.2.4,Win32,60,,,1,0,340,188,1,339,ratio23_4_10_6.png,,,,,,,,,,,,
,,,,,,,,,,,,None,Most,Half,More than half,Less than half,Many,All,Some,Few,0.484429113,-0.02479817,1,0,0,QQQ2,,,,,,,,English,2020-07-02_10h59.28.780,Experiment_English,3.2.4,Win32,60,,,1,0,340,335,1,339,ratio91_18_20_11.png,,,,,,,,,,,,
,,,,,,,,,,,,Half,More than half,None,Most,Less than half,Few,Some,Many,All,-0.434832737,0.287773927,1,0,0,QQQ7,,,,,,,,English,2020-07-02_10h59.28.780,Experiment_English,3.2.4,Win32,60,,,1,0,340,14,1,339,ratio12_5_15_4.png,,,,,,,,,,,,
,,,,,,,,,,,,Many,Most,Less than half,Half,None,All,More than half,Few,Some,-0.515570917,-0.34775089,1,0,0,QQQ9,,,,,,,,English,2020-07-02_10h59.28.780,Experiment_English,3.2.4,Win32,60,,,1,0,340,231,1,339,ratio32_9_15_2.png,,,,,,,,,,,,
,,,,,,,,,,,,Some,All,More than half,Few,Less than half,None,Half,Most,Many,-0.085351757,-0.328143047,1,0,0,QQQ6,,,,,,,,English,2020-07-02_10h59.28.780,Experiment_English,3.2.4,Win32,60,,,1,0,340,65,1,339,ratio0Y_0_8_4.png,,,,,,,,,,,,
,,,,,,,,,,,,Less than half,More than half,Most,Some,None,Few,Many,Half,All,0.032295305,-0.285467151,1,0,0,QQQ6,,,,,,,,English,2020-07-02_10h59.28.780,Experiment_English,3.2.4,Win32,60,,,1,0,340,157,1,339,ratio19_2_20_16.png,,,,,,,,,,,,
,,,,,,,,,,,,Most,More than half,All,Half,Few,None,Less than half,Some,Many,0.032295305,-0.285467151,1,0,0,QQQ6,,,,,,,,English,2020-07-02_10h59.28.780,Experiment_English,3.2.4,Win32,60,,,1,0,340,66,1,339,ratio0Y_0_9_8.png,,,,,,,,,,,,
,,,,,,,,,,,,Half,All,None,Less than half,Most,Some,Many,More than half,Few,-0.489042657,-0.365051929,1,0,0,QQQ9,,,,,,,,English,2020-07-02_10h59.28.780,Experiment_English,3.2.4,Win32,60,,,1,0,340,130,1,339,ratio15_2_12_12.png,,,,,,,,,,,,
,,,,,,,,,,,,None,All,Few,Some,Many,More than half,Most,Half,Less than half,0.396770518,-0.005190326,1,0,0,QQQ2,,,,,,,,English,2020-07-02_10h59.28.780,Experiment_English,3.2.4,Win32,60,,,1,0,340,46,1,339,ratioX0_9_9_3.png,,,,,,,,,,,,
,,,,,,,,,,,,Many,More than half,Half,None,Some,Most,All,Few,Less than half,-0.003460175,-0.016724387,1,0,0,QQQ5,,,,,,,,English,2020-07-02_10h59.28.780,Experiment_English,3.2.4,Win32,60,,,1,0,340,25,1,339,ratio11_4_8_10.png,,,,,,,,,,,,
,,,,,,,,,,,,More than half,Some,Half,Few,All,Many,Most,None,Less than half,-0.416378295,-0.238177646,1,0,0,QQQ9,,,,,,,,English,2020-07-02_10h59.28.780,Experiment_English,3.2.4,Win32,60,,,1,0,340,3,1,339,ratio12_2_6_3.png,,,,,,,,,,,,
,,,,,,,,,,,,Less than half,Most,Few,Some,All,Many,More than half,Half,None,-0.418685101,0.321222584,1,0,0,QQQ7,,,,,,,,English,2020-07-02_10h59.28.780,Experiment_English,3.2.4,Win32,60,,,1,0,340,288,1,339,ratio43_4_7_18.png,,,,,,,,,,,,
,,,,,,,,,,,,Some,All,Less than half,Most,More than half,None,Few,Half,Many,0.066897382,0.275086498,1,0,0,QQQ4,,,,,,,,English,2020-07-02_10h59.28.780,Experiment_English,3.2.4,Win32,60,,,1,0,340,305,1,339,ratio51_5_6_14.png,,,,,,,,,,,,
,,,,,,,,,,,,Few,Half,Some,Many,All,Most,Less than half,None,More than half,-0.402537465,0.235870776,1,0,0,QQQ7,,,,,,,,English,2020-07-02_10h59.28.780,Experiment_English,3.2.4,Win32,60,,,1,0,340,243,1,339,ratio34_3_7_8.png,,,,,,,,,,,,
,,,,,,,,,,,,None,Many,Some,Less than half,Half,More than half,Few,Most,All,0.617070409,0.254325252,1,0,0,QQQ1,,,,,,,,English,2020-07-02_10h59.28.780,Experiment_English,3.2.4,Win32,60,,,1,0,340,73,1,339,ratio0Y_0_14_7.png,,,,,,,,,,,,
,,,,,,,,,,,,Many,Less than half,None,Few,More than half,Some,Half,Most,All,0.423298777,-0.285467151,1,0,0,QQQ3,,,,,,,,English,2020-07-02_10h59.28.780,Experiment_English,3.2.4,Win32,60,,,1,0,340,72,1,339,ratio0Y_0_13_4.png,,,,,,,,,,,,
,,,,,,,,,,,,More than half,Half,Few,Many,All,Some,Less than half,Most,None,-0.52595154,-0.067474065,1,0,0,QQQ8,,,,,,,,English,2020-07-02_10h59.28.780,Experiment_English,3.2.4,Win32,60,,,1,0,340,329,1,339,ratio91_9_10_20.png,,,,,,,,,,,,
,,,,,,,,,,,,More than half,Less than half,Most,All,None,Few,Some,Half,Many,-0.462514398,-0.279700139,1,0,0,QQQ9,,,,,,,,English,2020-07-02_10h59.28.780,Experiment_English,3.2.4,Win32,60,,,1,0,340,206,1,339,ratio31_6_8_6.png,,,,,,,,,,,,
,,,,,,,,,,,,Few,All,Many,Most,None,Some,Less than half,More than half,Half,0.010380656,0.25778546,1,0,0,QQQ4,,,,,,,,English,2020-07-02_10h59.28.780,Experiment_English,3.2.4,Win32,60,,,1,0,340,338,1,339,ratio91_18_20_18.png,,,,,,,,,,,,
