continue_mouse.x,continue_mouse.y,continue_mouse.leftButton,continue_mouse.midButton,continue_mouse.rightButton,continue_mouse.clicked_name,continue_mouse_2.x,continue_mouse_2.y,continue_mouse_2.leftButton,continue_mouse_2.midButton,continue_mouse_2.rightButton,continue_mouse_2.clicked_name,Q1,Q2,Q3,Q4,Q5,Q6,Q7,Q8,Q9,select_answer.x,select_answer.y,select_answer.leftButton,select_answer.midButton,select_answer.rightButton,select_answer.clicked_name,trial.thisRepN,trial.thisTrialN,trial.thisN,trial.thisIndex,trial.ran,trial.order,trials,Native tongue*,date,expName,psychopyVersion,OS,frameRate,key_resp.keys,key_resp.rt,Actual_Experiment.thisRepN,Actual_Experiment.thisTrialN,Actual_Experiment.thisN,Actual_Experiment.thisIndex,Actual_Experiment.ran,Actual_Experiment.order,Pic,mouse_pause.x,mouse_pause.y,mouse_pause.leftButton,mouse_pause.midButton,mouse_pause.rightButton,mouse_pause.clicked_name,pause.thisRepN,pause.thisTrialN,pause.thisN,pause.thisIndex,pause.ran,pause.order
0.376851852,-0.413888889,1,0,0,continue_button,0.287037037,-0.425925926,1,0,0,continue_button_2,Few,All,Some,More than half,Most,Less than half,Half,None,Many,0.04537037,0.017592593,1,0,0,QQQ5,1,0,16,2,1,15,ratio43_8_14_19.png,English,2020-07-02_10h59.39.677,Experiment_English,3.2.4,Win32,60,,,,,,,,,,,,,,,,,,,,,
,,,,,,,,,,,,Few,More than half,Half,Most,Some,Less than half,None,All,Many,-0.02962963,0.00462963,1,0,0,QQQ5,1,0,16,15,1,15,ratio0Y_0_14_10.png,English,2020-07-02_10h59.39.677,Experiment_English,3.2.4,Win32,60,,,,,,,,,,,,,,,,,,,,,
,,,,,,,,,,,,Half,None,Most,Less than half,Many,Some,Few,More than half,All,-0.409259259,0.286111111,1,0,0,QQQ7,1,0,16,10,1,15,ratio15_2_12_4.png,English,2020-07-02_10h59.39.677,Experiment_English,3.2.4,Win32,60,,,,,,,,,,,,,,,,,,,,,
,,,,,,,,,,,,Most,None,Few,Less than half,Half,All,Some,Many,More than half,0.444444444,-0.27037037,1,0,0,QQQ3,1,0,16,4,1,15,ratio34_3_7_3.png,English,2020-07-02_10h59.39.677,Experiment_English,3.2.4,Win32,60,,,,,,,,,,,,,,,,,,,,,
,,,,,,,,,,,,Some,More than half,Half,Many,None,Less than half,All,Most,Few,-0.455555556,-0.075925926,1,0,0,QQQ8,1,0,16,14,1,15,ratio11_5_10_6.png,English,2020-07-02_10h59.39.677,Experiment_English,3.2.4,Win32,60,,,,,,,,,,,,,,,,,,,,,
,,,,,,,,,,,,Most,Many,All,Less than half,None,Some,More than half,Half,Few,-0.406481481,-0.255555556,1,0,0,QQQ9,,,,,,,,English,2020-07-02_10h59.39.677,Experiment_English,3.2.4,Win32,60,b,7.776000023,1,0,340,191,1,339,ratio23_6_15_7.png,,,,,,,,,,,,
,,,,,,,,,,,,Less than half,Many,None,Few,All,Most,Half,More than half,Some,0.044444444,-0.251851852,1,0,0,QQQ6,,,,,,,,English,2020-07-02_10h59.39.677,Experiment_English,3.2.4,Win32,60,,,1,0,340,333,1,339,ratio91_18_20_6.png,,,,,,,,,,,,
,,,,,,,,,,,,Most,None,Less than half,Half,Few,Some,Many,All,More than half,0.046296296,-0.044444444,1,0,0,QQQ5,,,,,,,,English,2020-07-02_10h59.39.677,Experiment_English,3.2.4,Win32,60,,,1,0,340,112,1,339,ratio14_3_15_4.png,,,,,,,,,,,,
,,,,,,,,,,,,Less than half,Many,Some,All,Most,None,More than half,Half,Few,-0.42037037,0.048148148,1,0,0,QQQ8,,,,,,,,English,2020-07-02_10h59.39.677,Experiment_English,3.2.4,Win32,60,,,1,0,340,246,1,339,ratio34_3_7_11.png,,,,,,,,,,,,
,,,,,,,,,,,,Few,Many,All,Some,Less than half,None,Half,Most,More than half,-0.428703704,-0.219444444,1,0,0,QQQ9,,,,,,,,English,2020-07-02_10h59.39.677,Experiment_English,3.2.4,Win32,60,,,1,0,340,288,1,339,ratio43_4_7_18.png,,,,,,,,,,,,
,,,,,,,,,,,,None,Many,More than half,All,Half,Few,Most,Less than half,Some,0.024074074,-0.249074074,1,0,0,QQQ6,,,,,,,,English,2020-07-02_10h59.39.677,Experiment_English,3.2.4,Win32,60,,,1,0,340,85,1,339,ratio13_2_8_5.png,,,,,,,,,,,,
,,,,,,,,,,,,Less than half,None,All,Half,Few,Most,Some,More than half,Many,-0.448148148,-0.025925926,1,0,0,QQQ8,,,,,,,,English,2020-07-02_10h59.39.677,Experiment_English,3.2.4,Win32,60,,,1,0,340,179,1,339,ratio21_12_18_8.png,,,,,,,,,,,,
,,,,,,,,,,,,None,Some,Half,Few,Most,More than half,All,Many,Less than half,-0.412962963,-0.257407407,1,0,0,QQQ9,,,,,,,,English,2020-07-02_10h59.39.677,Experiment_English,3.2.4,Win32,60,,,1,0,340,196,1,339,ratio23_8_20_5.png,,,,,,,,,,,,
,,,,,,,,,,,,Half,Many,Less than half,More than half,Some,Few,None,Most,All,0.484259259,0.263888889,1,0,0,QQQ1,,,,,,,,English,2020-07-02_10h59.39.677,Experiment_English,3.2.4,Win32,60,,,1,0,340,33,1,339,ratio11_7_14_8.png,,,,,,,,,,,,
,,,,,,,,,,,,Half,More than half,None,Less than half,Some,All,Most,Few,Many,0.112962963,-0.312962963,1,0,0,QQQ6,,,,,,,,English,2020-07-02_10h59.39.677,Experiment_English,3.2.4,Win32,60,,,1,0,340,58,1,339,ratioX0_19_19_4.png,,,,,,,,,,,,
,,,,,,,,,,,,Many,Few,All,More than half,None,Half,Most,Less than half,Some,-0.452777778,0.021296296,1,0,0,QQQ8,,,,,,,,English,2020-07-02_10h59.39.677,Experiment_English,3.2.4,Win32,60,,,1,0,340,240,1,339,ratio34_3_7_4.png,,,,,,,,,,,,
,,,,,,,,,,,,All,Some,Less than half,None,Few,Many,More than half,Half,Most,-0.419444444,0.25462963,1,0,0,QQQ7,,,,,,,,English,2020-07-02_10h59.39.677,Experiment_English,3.2.4,Win32,60,,,1,0,340,221,1,339,ratio32_3_5_3.png,,,,,,,,,,,,
,,,,,,,,,,,,Half,Many,Most,Less than half,All,More than half,Few,None,Some,-0.363888889,-0.05462963,1,0,0,QQQ8,,,,,,,,English,2020-07-02_10h59.39.677,Experiment_English,3.2.4,Win32,60,,,1,0,340,79,1,339,ratio0Y_0_20_4.png,,,,,,,,,,,,
,,,,,,,,,,,,More than half,Some,Many,All,Most,Few,None,Half,Less than half,-0.015740741,-0.330555556,1,0,0,QQQ6,,,,,,,,English,2020-07-02_10h59.39.677,Experiment_English,3.2.4,Win32,60,,,1,0,340,245,1,339,ratio34_3_7_10.png,,,,,,,,,,,,
,,,,,,,,,,,,Half,Many,Few,Some,Less than half,Most,None,All,More than half,0.098148148,-0.27037037,1,0,0,QQQ6,,,,,,,,English,2020-07-02_10h59.39.677,Experiment_English,3.2.4,Win32,60,,,1,0,340,207,1,339,ratio31_6_8_9.png,,,,,,,,,,,,
,,,,,,,,,,,,Half,Many,Less than half,Some,None,More than half,Few,All,Most,0.032407407,-0.287962963,1,0,0,QQQ6,,,,,,,,English,2020-07-02_10h59.39.677,Experiment_English,3.2.4,Win32,60,,,1,0,340,206,1,339,ratio31_6_8_6.png,,,,,,,,,,,,
,,,,,,,,,,,,All,Some,None,Many,Few,Half,More than half,Most,Less than half,0.133333333,-0.031481481,1,0,0,QQQ5,,,,,,,,English,2020-07-02_10h59.39.677,Experiment_English,3.2.4,Win32,60,,,1,0,340,102,1,339,ratio14_1_5_8.png,,,,,,,,,,,,
,,,,,,,,,,,,Less than half,All,More than half,Few,Some,Half,Many,Most,None,0.45462963,0.231481481,1,0,0,QQQ1,,,,,,,,English,2020-07-02_10h59.39.677,Experiment_English,3.2.4,Win32,60,,,1,0,340,190,1,339,ratio23_6_15_3.png,,,,,,,,,,,,
,,,,,,,,,,,,Half,More than half,Many,Most,All,Few,Some,Less than half,None,0.375925926,-0.031481481,1,0,0,QQQ2,,,,,,,,English,2020-07-02_10h59.39.677,Experiment_English,3.2.4,Win32,60,,,1,0,340,287,1,339,ratio43_4_7_17.png,,,,,,,,,,,,
,,,,,,,,,,,,Some,None,More than half,Half,Most,Few,Many,All,Less than half,-0.017592593,0.022222222,1,0,0,QQQ5,,,,,,,,English,2020-07-02_10h59.39.677,Experiment_English,3.2.4,Win32,60,,,1,0,340,314,1,339,ratio51_15_18_4.png,,,,,,,,,,,,
,,,,,,,,,,,,Some,More than half,Many,All,Few,Most,Half,None,Less than half,-0.008333333,-0.272222222,1,0,0,QQQ6,,,,,,,,English,2020-07-02_10h59.39.677,Experiment_English,3.2.4,Win32,60,,,1,0,340,209,1,339,ratio31_9_12_6.png,,,,,,,,,,,,
,,,,,,,,,,,,Some,More than half,Less than half,Half,None,Few,All,Most,Many,0.52037037,-0.389814815,1,0,0,QQQ3,,,,,,,,English,2020-07-02_10h59.39.677,Experiment_English,3.2.4,Win32,60,,,1,0,340,4,1,339,ratio12_2_6_5.png,,,,,,,,,,,,
,,,,,,,,,,,,Few,Many,Most,Half,Less than half,Some,More than half,All,None,0.009259259,0.294444444,1,0,0,QQQ4,,,,,,,,English,2020-07-02_10h59.39.677,Experiment_English,3.2.4,Win32,60,,,1,0,340,28,1,339,ratio11_5_10_9.png,,,,,,,,,,,,
,,,,,,,,,,,,More than half,Few,Some,Half,Most,Many,Less than half,None,All,-0.433333333,0.30462963,1,0,0,QQQ7,,,,,,,,English,2020-07-02_10h59.39.677,Experiment_English,3.2.4,Win32,60,,,1,0,340,19,1,339,ratio12_6_18_9.png,,,,,,,,,,,,
,,,,,,,,,,,,None,Most,Half,All,Less than half,More than half,Few,Some,Many,0.451851852,-0.339814815,1,0,0,QQQ3,,,,,,,,English,2020-07-02_10h59.39.677,Experiment_English,3.2.4,Win32,60,,,1,0,340,145,1,339,ratio19_1_10_15.png,,,,,,,,,,,,
,,,,,,,,,,,,More than half,Few,Some,Many,None,Half,Less than half,All,Most,-0.483333333,-0.275,1,0,0,QQQ9,,,,,,,,English,2020-07-02_10h59.39.677,Experiment_English,3.2.4,Win32,60,,,1,0,340,215,1,339,ratio31_12_16_8.png,,,,,,,,,,,,
,,,,,,,,,,,,Many,Few,Some,More than half,All,None,Less than half,Half,Most,-0.450925926,-0.242592593,1,0,0,QQQ9,,,,,,,,English,2020-07-02_10h59.39.677,Experiment_English,3.2.4,Win32,60,,,1,0,340,205,1,339,ratio31_6_8_2.png,,,,,,,,,,,,
,,,,,,,,,,,,Few,Half,Most,All,Some,None,More than half,Many,Less than half,0.085185185,-0.246296296,1,0,0,QQQ6,,,,,,,,English,2020-07-02_10h59.39.677,Experiment_English,3.2.4,Win32,60,,,1,0,340,71,1,339,ratio0Y_0_12_10.png,,,,,,,,,,,,
,,,,,,,,,,,,More than half,Half,Few,Many,Some,None,All,Most,Less than half,-0.621296296,-0.090740741,1,0,0,QQQ8,,,,,,,,English,2020-07-02_10h59.39.677,Experiment_English,3.2.4,Win32,60,,,1,0,340,27,1,339,ratio11_5_10_7.png,,,,,,,,,,,,
,,,,,,,,,,,,Half,None,Many,Most,All,Some,Few,More than half,Less than half,-0.422222222,-0.074074074,1,0,0,QQQ8,,,,,,,,English,2020-07-02_10h59.39.677,Experiment_English,3.2.4,Win32,60,,,1,0,340,265,1,339,ratio41_8_10_1.png,,,,,,,,,,,,
,,,,,,,,,,,,Less than half,Few,Most,Some,All,More than half,None,Many,Half,0.481481481,0.285185185,1,0,0,QQQ1,,,,,,,,English,2020-07-02_10h59.39.677,Experiment_English,3.2.4,Win32,60,,,1,0,340,18,1,339,ratio12_6_18_7.png,,,,,,,,,,,,
,,,,,,,,,,,,None,Some,More than half,Many,Few,Less than half,All,Half,Most,-0.373148148,0.035185185,1,0,0,QQQ8,,,,,,,,English,2020-07-02_10h59.39.677,Experiment_English,3.2.4,Win32,60,,,1,0,340,192,1,339,ratio23_6_15_8.png,,,,,,,,,,,,
,,,,,,,,,,,,Less than half,Some,Many,Half,More than half,None,Few,Most,All,-0.447222222,-0.044444444,1,0,0,QQQ8,,,,,,,,English,2020-07-02_10h59.39.677,Experiment_English,3.2.4,Win32,60,,,1,0,340,214,1,339,ratio31_12_16_5.png,,,,,,,,,,,,
,,,,,,,,,,,,Some,All,None,Less than half,More than half,Many,Most,Few,Half,-0.412962963,0.318518519,1,0,0,QQQ7,,,,,,,,English,2020-07-02_10h59.39.677,Experiment_English,3.2.4,Win32,60,,,1,0,340,17,1,339,ratio12_6_18_5.png,0.291666667,-0.369444444,1,0,0,continue_button_pause,1,0,1,0,1,0
,,,,,,,,,,,,,,,,,,,,,,,,,,,,,,,,,,English,2020-07-02_10h59.39.677,Experiment_English,3.2.4,Win32,60,,,1,0,340,17,1,339,ratio12_6_18_5.png,,,,,,,,,,,,
,,,,,,,,,,,,Many,All,Few,Most,More than half,Some,None,Less than half,Half,0.099074074,0.278703704,1,0,0,QQQ4,,,,,,,,English,2020-07-02_10h59.39.677,Experiment_English,3.2.4,Win32,60,,,1,0,340,38,1,339,ratio11_10_20_5.png,,,,,,,,,,,,
,,,,,,,,,,,,Less than half,None,Half,All,Some,More than half,Many,Few,Most,-0.552777778,0.046296296,1,0,0,QQQ8,,,,,,,,English,2020-07-02_10h59.39.677,Experiment_English,3.2.4,Win32,60,,,1,0,340,135,1,339,ratio15_3_18_7.png,,,,,,,,,,,,
,,,,,,,,,,,,Some,Most,Many,Half,None,More than half,Less than half,All,Few,0.476851852,0.044444444,1,0,0,QQQ2,,,,,,,,English,2020-07-02_10h59.39.677,Experiment_English,3.2.4,Win32,60,,,1,0,340,323,1,339,ratio91_9_10_5.png,,,,,,,,,,,,
,,,,,,,,,,,,Most,Half,More than half,Less than half,None,Few,Some,Many,All,-0.434259259,-0.257407407,1,0,0,QQQ9,,,,,,,,English,2020-07-02_10h59.39.677,Experiment_English,3.2.4,Win32,60,,,1,0,340,54,1,339,ratioX0_15_15_5.png,,,,,,,,,,,,
,,,,,,,,,,,,Less than half,Some,Many,All,Few,More than half,Half,None,Most,0.435185185,0.091666667,1,0,0,QQQ2,,,,,,,,English,2020-07-02_10h59.39.677,Experiment_English,3.2.4,Win32,60,,,1,0,340,194,1,339,ratio23_6_15_10.png,,,,,,,,,,,,
,,,,,,,,,,,,Some,Many,Half,Less than half,Few,None,Most,All,More than half,-0.105555556,0.05462963,1,0,0,QQQ5,,,,,,,,English,2020-07-02_10h59.39.677,Experiment_English,3.2.4,Win32,60,,,1,0,340,95,1,339,ratio13_4_16_10.png,,,,,,,,,,,,
,,,,,,,,,,,,Some,Many,Less than half,Few,All,Most,More than half,Half,None,0.059259259,-0.243518519,1,0,0,QQQ6,,,,,,,,English,2020-07-02_10h59.39.677,Experiment_English,3.2.4,Win32,60,,,1,0,340,216,1,339,ratio31_15_20_3.png,,,,,,,,,,,,
,,,,,,,,,,,,Many,Half,Less than half,Most,Few,All,None,Some,More than half,0.039814815,-0.27962963,1,0,0,QQQ6,,,,,,,,English,2020-07-02_10h59.39.677,Experiment_English,3.2.4,Win32,60,,,1,0,340,293,1,339,ratio43_8_14_7.png,,,,,,,,,,,,
,,,,,,,,,,,,Many,Few,All,Some,More than half,Most,Less than half,None,Half,0.025,-0.309259259,1,0,0,QQQ6,,,,,,,,English,2020-07-02_10h59.39.677,Experiment_English,3.2.4,Win32,60,,,1,0,340,201,1,339,ratio31_3_4_7.png,,,,,,,,,,,,
,,,,,,,,,,,,All,Some,More than half,Most,Few,Half,Less than half,Many,None,-0.477777778,-0.016666667,1,0,0,QQQ8,,,,,,,,English,2020-07-02_10h59.39.677,Experiment_English,3.2.4,Win32,60,,,1,0,340,286,1,339,ratio43_4_7_15.png,,,,,,,,,,,,
,,,,,,,,,,,,All,More than half,Half,Few,Many,Less than half,None,Some,Most,0.475925926,-0.305555556,1,0,0,QQQ3,,,,,,,,English,2020-07-02_10h59.39.677,Experiment_English,3.2.4,Win32,60,,,1,0,340,255,1,339,ratio34_6_14_10.png,,,,,,,,,,,,
,,,,,,,,,,,,Some,All,None,Half,Most,Few,Many,Less than half,More than half,-0.573148148,-0.264814815,1,0,0,QQQ9,,,,,,,,English,2020-07-02_10h59.39.677,Experiment_English,3.2.4,Win32,60,,,1,0,340,290,1,339,ratio43_8_14_3.png,,,,,,,,,,,,
,,,,,,,,,,,,Less than half,Some,Most,Few,Half,All,Many,None,More than half,0.516666667,0.275,1,0,0,QQQ1,,,,,,,,English,2020-07-02_10h59.39.677,Experiment_English,3.2.4,Win32,60,,,1,0,340,281,1,339,ratio43_4_7_4.png,,,,,,,,,,,,
,,,,,,,,,,,,Half,None,Many,Less than half,More than half,Most,Some,Few,All,-0.485185185,0.000925926,1,0,0,QQQ8,,,,,,,,English,2020-07-02_10h59.39.677,Experiment_English,3.2.4,Win32,60,,,1,0,340,118,1,339,ratio14_4_20_8.png,,,,,,,,,,,,
,,,,,,,,,,,,Few,Less than half,Many,Half,Some,More than half,None,Most,All,0.408333333,-0.324074074,1,0,0,QQQ3,,,,,,,,English,2020-07-02_10h59.39.677,Experiment_English,3.2.4,Win32,60,,,1,0,340,39,1,339,ratio11_10_20_6.png,,,,,,,,,,,,
,,,,,,,,,,,,Many,Most,Half,Some,More than half,All,Few,Less than half,None,-0.461111111,0.303703704,1,0,0,QQQ7,,,,,,,,English,2020-07-02_10h59.39.677,Experiment_English,3.2.4,Win32,60,,,1,0,340,124,1,339,ratio15_1_6_16.png,,,,,,,,,,,,
,,,,,,,,,,,,Half,Few,Less than half,Many,All,None,More than half,Some,Most,0.558333333,-0.34537037,1,0,0,QQQ3,,,,,,,,English,2020-07-02_10h59.39.677,Experiment_English,3.2.4,Win32,60,,,1,0,340,189,1,339,ratio23_4_10_8.png,,,,,,,,,,,,
,,,,,,,,,,,,Many,Half,Some,More than half,Less than half,Few,All,None,Most,0.574074074,0.04537037,1,0,0,QQQ2,,,,,,,,English,2020-07-02_10h59.39.677,Experiment_English,3.2.4,Win32,60,,,1,0,340,292,1,339,ratio43_8_14_6.png,,,,,,,,,,,,
,,,,,,,,,,,,Some,Less than half,Few,All,Many,Most,None,Half,More than half,0.615740741,-0.096296296,1,0,0,QQQ2,,,,,,,,English,2020-07-02_10h59.39.677,Experiment_English,3.2.4,Win32,60,,,1,0,340,171,1,339,ratio21_8_12_4.png,,,,,,,,,,,,
,,,,,,,,,,,,Less than half,Many,Few,None,Some,Most,All,Half,More than half,-0.038888889,-0.266666667,1,0,0,QQQ6,,,,,,,,English,2020-07-02_10h59.39.677,Experiment_English,3.2.4,Win32,60,,,1,0,340,276,1,339,ratio41_16_20_4.png,,,,,,,,,,,,
,,,,,,,,,,,,Some,Few,All,Most,None,Less than half,Half,Many,More than half,-0.452777778,-0.07962963,1,0,0,QQQ8,,,,,,,,English,2020-07-02_10h59.39.677,Experiment_English,3.2.4,Win32,60,,,1,0,340,299,1,339,ratio43_8_14_17.png,,,,,,,,,,,,
,,,,,,,,,,,,Half,Many,Most,Few,All,Some,More than half,None,Less than half,0.041666667,-0.073148148,1,0,0,QQQ5,,,,,,,,English,2020-07-02_10h59.39.677,Experiment_English,3.2.4,Win32,60,,,1,0,340,45,1,339,ratioX0_8_8_3.png,,,,,,,,,,,,
,,,,,,,,,,,,More than half,All,Some,Less than half,Few,Half,None,Most,Many,0.100925926,0.310185185,1,0,0,QQQ4,,,,,,,,English,2020-07-02_10h59.39.677,Experiment_English,3.2.4,Win32,60,,,1,0,340,259,1,339,ratio34_6_14_19.png,,,,,,,,,,,,
,,,,,,,,,,,,Less than half,Some,Most,None,Many,More than half,Half,All,Few,0.551851852,0.309259259,1,0,0,QQQ1,,,,,,,,English,2020-07-02_10h59.39.677,Experiment_English,3.2.4,Win32,60,,,1,0,340,188,1,339,ratio23_4_10_6.png,,,,,,,,,,,,
,,,,,,,,,,,,Less than half,Some,Many,Most,None,Half,More than half,Few,All,-0.475925926,0.015740741,1,0,0,QQQ8,,,,,,,,English,2020-07-02_10h59.39.677,Experiment_English,3.2.4,Win32,60,,,1,0,340,115,1,339,ratio14_4_20_1.png,,,,,,,,,,,,
,,,,,,,,,,,,Few,Most,None,Some,Half,More than half,Many,Less than half,All,0.441666667,-0.218518519,1,0,0,QQQ3,,,,,,,,English,2020-07-02_10h59.39.677,Experiment_English,3.2.4,Win32,60,,,1,0,340,62,1,339,ratio0Y_0_5_4.png,,,,,,,,,,,,
,,,,,,,,,,,,None,Less than half,Some,Half,Many,All,More than half,Most,Few,-0.426851852,0.02037037,1,0,0,QQQ8,,,,,,,,English,2020-07-02_10h59.39.677,Experiment_English,3.2.4,Win32,60,,,1,0,340,229,1,339,ratio32_6_10_9.png,,,,,,,,,,,,
,,,,,,,,,,,,All,Less than half,Many,Few,Some,Half,More than half,None,Most,-0.444444444,-0.265740741,1,0,0,QQQ9,,,,,,,,English,2020-07-02_10h59.39.677,Experiment_English,3.2.4,Win32,60,,,1,0,340,270,1,339,ratio41_12_15_3.png,,,,,,,,,,,,
,,,,,,,,,,,,Less than half,Many,Some,Half,Most,More than half,None,Few,All,-0.034259259,0.061111111,1,0,0,QQQ5,,,,,,,,English,2020-07-02_10h59.39.677,Experiment_English,3.2.4,Win32,60,,,1,0,340,160,1,339,ratio21_2_3_2.png,,,,,,,,,,,,
,,,,,,,,,,,,Half,Less than half,More than half,Many,Most,Some,None,All,Few,-0.036111111,0.058333333,1,0,0,QQQ5,,,,,,,,English,2020-07-02_10h59.39.677,Experiment_English,3.2.4,Win32,60,,,1,0,340,218,1,339,ratio31_15_20_7.png,,,,,,,,,,,,
,,,,,,,,,,,,Most,Few,All,Half,None,More than half,Some,Many,Less than half,0.500925926,0.32962963,1,0,0,QQQ1,,,,,,,,English,2020-07-02_10h59.39.677,Experiment_English,3.2.4,Win32,60,,,1,0,340,334,1,339,ratio91_18_20_9.png,,,,,,,,,,,,
,,,,,,,,,,,,Many,Half,Less than half,None,More than half,All,Few,Some,Most,-0.099074074,-0.007407407,1,0,0,QQQ5,,,,,,,,English,2020-07-02_10h59.39.677,Experiment_English,3.2.4,Win32,60,,,1,0,340,291,1,339,ratio43_8_14_5.png,,,,,,,,,,,,
,,,,,,,,,,,,More than half,Less than half,All,None,Few,Some,Half,Most,Many,-0.094444444,0.000925926,1,0,0,QQQ5,,,,,,,,English,2020-07-02_10h59.39.677,Experiment_English,3.2.4,Win32,60,,,1,0,340,142,1,339,ratio19_1_10_6.png,,,,,,,,,,,,
,,,,,,,,,,,,Some,All,Few,Half,None,Most,Many,More than half,Less than half,-0.041666667,-0.377777778,1,0,0,QQQ6,,,,,,,,English,2020-07-02_10h59.39.677,Experiment_English,3.2.4,Win32,60,,,1,0,340,278,1,339,ratio41_16_20_9.png,0.372222222,-0.385185185,1,0,0,continue_button_pause,1,0,1,0,1,0
,,,,,,,,,,,,,,,,,,,,,,,,,,,,,,,,,,English,2020-07-02_10h59.39.677,Experiment_English,3.2.4,Win32,60,,,1,0,340,278,1,339,ratio41_16_20_9.png,,,,,,,,,,,,
,,,,,,,,,,,,Many,None,Some,Half,All,Less than half,Few,Most,More than half,-0.45462963,0.233333333,1,0,0,QQQ7,,,,,,,,English,2020-07-02_10h59.39.677,Experiment_English,3.2.4,Win32,60,,,1,0,340,11,1,339,ratio12_4_12_7.png,,,,,,,,,,,,
,,,,,,,,,,,,Few,None,More than half,Half,All,Most,Less than half,Some,Many,-0.510185185,-0.050925926,1,0,0,QQQ8,,,,,,,,English,2020-07-02_10h59.39.677,Experiment_English,3.2.4,Win32,60,,,1,0,340,172,1,339,ratio21_8_12_6.png,,,,,,,,,,,,
,,,,,,,,,,,,None,Some,Less than half,Few,Half,Many,More than half,All,Most,-0.001851852,0.225,1,0,0,QQQ4,,,,,,,,English,2020-07-02_10h59.39.677,Experiment_English,3.2.4,Win32,60,,,1,0,340,249,1,339,ratio34_3_7_20.png,,,,,,,,,,,,
,,,,,,,,,,,,None,Half,More than half,Less than half,Some,All,Few,Most,Many,-0.391666667,0.278703704,1,0,0,QQQ7,,,,,,,,English,2020-07-02_10h59.39.677,Experiment_English,3.2.4,Win32,60,,,1,0,340,222,1,339,ratio32_3_5_4.png,,,,,,,,,,,,
,,,,,,,,,,,,Few,None,Less than half,Many,Most,Some,Half,More than half,All,0.064814815,-0.064814815,1,0,0,QQQ5,,,,,,,,English,2020-07-02_10h59.39.677,Experiment_English,3.2.4,Win32,60,,,1,0,340,91,1,339,ratio13_3_12_10.png,,,,,,,,,,,,
,,,,,,,,,,,,All,Less than half,Few,None,More than half,Half,Some,Many,Most,-0.469444444,-0.267592593,1,0,0,QQQ9,,,,,,,,English,2020-07-02_10h59.39.677,Experiment_English,3.2.4,Win32,60,,,1,0,340,285,1,339,ratio43_4_7_14.png,,,,,,,,,,,,
,,,,,,,,,,,,Most,Few,Less than half,More than half,Some,Half,None,Many,All,-0.462962963,-0.015740741,1,0,0,QQQ8,,,,,,,,English,2020-07-02_10h59.39.677,Experiment_English,3.2.4,Win32,60,,,1,0,340,203,1,339,ratio31_3_4_9.png,,,,,,,,,,,,
,,,,,,,,,,,,Many,None,Less than half,All,Most,Half,Few,Some,More than half,-0.361111111,0.269444444,1,0,0,QQQ7,,,,,,,,English,2020-07-02_10h59.39.677,Experiment_English,3.2.4,Win32,60,,,1,0,340,0,1,339,ratio12_1_3_3.png,,,,,,,,,,,,
,,,,,,,,,,,,Most,Many,None,All,Some,Few,More than half,Less than half,Half,-0.037037037,-0.319444444,1,0,0,QQQ6,,,,,,,,English,2020-07-02_10h59.39.677,Experiment_English,3.2.4,Win32,60,,,1,0,340,158,1,339,ratio19_2_20_17.png,,,,,,,,,,,,
,,,,,,,,,,,,Half,More than half,Many,None,All,Some,Less than half,Few,Most,-0.533333333,0.335185185,1,0,0,QQQ7,,,,,,,,English,2020-07-02_10h59.39.677,Experiment_English,3.2.4,Win32,60,,,1,0,340,16,1,339,ratio12_5_15_6.png,,,,,,,,,,,,
,,,,,,,,,,,,More than half,Many,Few,None,All,Half,Some,Less than half,Most,0.482407407,0.244444444,1,0,0,QQQ1,,,,,,,,English,2020-07-02_10h59.39.677,Experiment_English,3.2.4,Win32,60,,,1,0,340,36,1,339,ratio11_9_18_1.png,,,,,,,,,,,,
,,,,,,,,,,,,Some,Less than half,Most,Half,Many,All,None,Few,More than half,0.453703704,-0.003703704,1,0,0,QQQ2,,,,,,,,English,2020-07-02_10h59.39.677,Experiment_English,3.2.4,Win32,60,,,1,0,340,193,1,339,ratio23_6_15_9.png,,,,,,,,,,,,
,,,,,,,,,,,,More than half,Many,Few,Some,None,Half,Less than half,All,Most,-0.453703704,-0.313888889,1,0,0,QQQ9,,,,,,,,English,2020-07-02_10h59.39.677,Experiment_English,3.2.4,Win32,60,,,1,0,340,318,1,339,ratio51_15_18_18.png,,,,,,,,,,,,
,,,,,,,,,,,,None,All,Half,Most,Some,Few,Many,Less than half,More than half,0.473148148,-0.017592593,1,0,0,QQQ2,,,,,,,,English,2020-07-02_10h59.39.677,Experiment_English,3.2.4,Win32,60,,,1,0,340,46,1,339,ratioX0_9_9_3.png,,,,,,,,,,,,
,,,,,,,,,,,,Less than half,Few,None,Many,Half,More than half,Most,All,Some,-0.537037037,0.234259259,1,0,0,QQQ7,,,,,,,,English,2020-07-02_10h59.39.677,Experiment_English,3.2.4,Win32,60,,,1,0,340,177,1,339,ratio21_12_18_1.png,,,,,,,,,,,,
,,,,,,,,,,,,Some,Most,More than half,Many,Few,All,Half,None,Less than half,0.548148148,-0.005555556,1,0,0,QQQ2,,,,,,,,English,2020-07-02_10h59.39.677,Experiment_English,3.2.4,Win32,60,,,1,0,340,262,1,339,ratio41_4_5_4.png,,,,,,,,,,,,
,,,,,,,,,,,,Half,Many,Most,All,More than half,Some,Less than half,Few,None,-0.447222222,-0.024074074,1,0,0,QQQ8,,,,,,,,English,2020-07-02_10h59.39.677,Experiment_English,3.2.4,Win32,60,,,1,0,340,84,1,339,ratio13_2_8_1.png,,,,,,,,,,,,
,,,,,,,,,,,,Many,None,Some,Most,Half,More than half,All,Less than half,Few,0.459259259,0.321296296,1,0,0,QQQ1,,,,,,,,English,2020-07-02_10h59.39.677,Experiment_English,3.2.4,Win32,60,,,1,0,340,332,1,339,ratio91_18_20_4.png,,,,,,,,,,,,
,,,,,,,,,,,,All,Less than half,More than half,None,Half,Most,Many,Some,Few,-0.486111111,0.283333333,1,0,0,QQQ7,,,,,,,,English,2020-07-02_10h59.39.677,Experiment_English,3.2.4,Win32,60,,,1,0,340,211,1,339,ratio31_9_12_10.png,,,,,,,,,,,,
,,,,,,,,,,,,Many,All,Few,None,Less than half,Most,Some,Half,More than half,0.532407407,0.300925926,1,0,0,QQQ1,,,,,,,,English,2020-07-02_10h59.39.677,Experiment_English,3.2.4,Win32,60,,,1,0,340,170,1,339,ratio21_6_9_8.png,,,,,,,,,,,,
,,,,,,,,,,,,Some,Less than half,More than half,Half,Most,Many,All,Few,None,-0.007407407,0.027777778,1,0,0,QQQ5,,,,,,,,English,2020-07-02_10h59.39.677,Experiment_English,3.2.4,Win32,60,,,1,0,340,96,1,339,ratio13_5_20_1.png,,,,,,,,,,,,
,,,,,,,,,,,,Most,Half,Few,More than half,Many,None,Some,All,Less than half,0.047222222,-0.042592593,1,0,0,QQQ5,,,,,,,,English,2020-07-02_10h59.39.677,Experiment_English,3.2.4,Win32,60,,,1,0,340,167,1,339,ratio21_6_9_2.png,,,,,,,,,,,,
,,,,,,,,,,,,Some,Few,Most,Half,Many,None,More than half,All,Less than half,0.483333333,-0.39537037,1,0,0,QQQ3,,,,,,,,English,2020-07-02_10h59.39.677,Experiment_English,3.2.4,Win32,60,,,1,0,340,326,1,339,ratio91_9_10_10.png,,,,,,,,,,,,
,,,,,,,,,,,,Less than half,More than half,None,Most,All,Half,Some,Many,Few,-0.477777778,0.07037037,1,0,0,QQQ8,,,,,,,,English,2020-07-02_10h59.39.677,Experiment_English,3.2.4,Win32,60,,,1,0,340,178,1,339,ratio21_12_18_2.png,,,,,,,,,,,,
,,,,,,,,,,,,Many,More than half,Less than half,Some,Few,Half,Most,All,None,0.438888889,0.296296296,1,0,0,QQQ1,,,,,,,,English,2020-07-02_10h59.39.677,Experiment_English,3.2.4,Win32,60,,,1,0,340,34,1,339,ratio11_8_16_8.png,,,,,,,,,,,,
,,,,,,,,,,,,Some,Many,More than half,Most,Less than half,Few,Half,None,All,-0.123148148,0.274074074,1,0,0,QQQ4,,,,,,,,English,2020-07-02_10h59.39.677,Experiment_English,3.2.4,Win32,60,,,1,0,340,26,1,339,ratio11_5_10_4.png,,,,,,,,,,,,
,,,,,,,,,,,,More than half,None,Less than half,Half,Few,Some,Many,All,Most,0.612037037,0.323148148,1,0,0,QQQ1,,,,,,,,English,2020-07-02_10h59.39.677,Experiment_English,3.2.4,Win32,60,,,1,0,340,236,1,339,ratio32_12_20_2.png,,,,,,,,,,,,
,,,,,,,,,,,,Many,More than half,None,Some,Half,All,Less than half,Few,Most,0.367592593,-0.326851852,1,0,0,QQQ3,,,,,,,,English,2020-07-02_10h59.39.677,Experiment_English,3.2.4,Win32,60,,,1,0,340,68,1,339,ratio0Y_0_11_3.png,,,,,,,,,,,,
,,,,,,,,,,,,Half,All,Some,Most,Less than half,Few,More than half,None,Many,0.118518519,-0.315740741,1,0,0,QQQ6,,,,,,,,English,2020-07-02_10h59.39.677,Experiment_English,3.2.4,Win32,60,,,1,0,340,3,1,339,ratio12_2_6_3.png,,,,,,,,,,,,
,,,,,,,,,,,,Few,Most,Less than half,All,More than half,Some,Many,None,Half,0.625,-0.391666667,1,0,0,QQQ3,,,,,,,,English,2020-07-02_10h59.39.677,Experiment_English,3.2.4,Win32,60,,,1,0,340,199,1,339,ratio23_8_20_8.png,,,,,,,,,,,,
,,,,,,,,,,,,All,More than half,Half,Few,None,Most,Many,Less than half,Some,0.397222222,0.314814815,1,0,0,QQQ1,,,,,,,,English,2020-07-02_10h59.39.677,Experiment_English,3.2.4,Win32,60,,,1,0,340,42,1,339,ratioX0_5_5_5.png,,,,,,,,,,,,
,,,,,,,,,,,,All,Most,Few,Less than half,Some,Many,More than half,Half,None,-0.460185185,0.327777778,1,0,0,QQQ7,,,,,,,,English,2020-07-02_10h59.39.677,Experiment_English,3.2.4,Win32,60,,,1,0,340,166,1,339,ratio21_6_9_1.png,,,,,,,,,,,,
,,,,,,,,,,,,Some,More than half,Most,Half,All,Few,Less than half,Many,None,0.599074074,-0.267592593,1,0,0,QQQ3,,,,,,,,English,2020-07-02_10h59.39.677,Experiment_English,3.2.4,Win32,60,,,1,0,340,271,1,339,ratio41_12_15_6.png,,,,,,,,,,,,
,,,,,,,,,,,,Many,Some,None,Less than half,Half,All,More than half,Few,Most,0.547222222,-0.294444444,1,0,0,QQQ3,,,,,,,,English,2020-07-02_10h59.39.677,Experiment_English,3.2.4,Win32,60,,,1,0,340,64,1,339,ratio0Y_0_7_1.png,0.293518519,-0.423148148,1,0,0,continue_button_pause,1,0,1,0,1,0
,,,,,,,,,,,,,,,,,,,,,,,,,,,,,,,,,,English,2020-07-02_10h59.39.677,Experiment_English,3.2.4,Win32,60,,,1,0,340,64,1,339,ratio0Y_0_7_1.png,,,,,,,,,,,,
,,,,,,,,,,,,Some,Most,More than half,None,Less than half,Half,Many,All,Few,-0.405555556,0.257407407,1,0,0,QQQ7,,,,,,,,English,2020-07-02_10h59.39.677,Experiment_English,3.2.4,Win32,60,,,1,0,340,316,1,339,ratio51_15_18_11.png,,,,,,,,,,,,
,,,,,,,,,,,,Most,All,Less than half,None,More than half,Some,Few,Many,Half,0.513888889,0.209259259,1,0,0,QQQ1,,,,,,,,English,2020-07-02_10h59.39.677,Experiment_English,3.2.4,Win32,60,,,1,0,340,128,1,339,ratio15_2_12_8.png,,,,,,,,,,,,
,,,,,,,,,,,,Most,Half,Less than half,Few,Many,All,Some,None,More than half,0.506481481,0.249074074,1,0,0,QQQ1,,,,,,,,English,2020-07-02_10h59.39.677,Experiment_English,3.2.4,Win32,60,,,1,0,340,204,1,339,ratio31_6_8_1.png,,,,,,,,,,,,
,,,,,,,,,,,,None,Half,Many,Some,All,Most,Few,More than half,Less than half,-0.392592593,-0.263888889,1,0,0,QQQ9,,,,,,,,English,2020-07-02_10h59.39.677,Experiment_English,3.2.4,Win32,60,,,1,0,340,31,1,339,ratio11_6_12_9.png,,,,,,,,,,,,
,,,,,,,,,,,,Many,Some,Half,More than half,Most,All,Less than half,None,Few,-0.376851852,0.275925926,1,0,0,QQQ7,,,,,,,,English,2020-07-02_10h59.39.677,Experiment_English,3.2.4,Win32,60,,,1,0,340,92,1,339,ratio13_4_16_3.png,,,,,,,,,,,,
,,,,,,,,,,,,None,Few,Many,Less than half,Some,Most,Half,More than half,All,-0.043518519,-0.018518519,1,0,0,QQQ5,,,,,,,,English,2020-07-02_10h59.39.677,Experiment_English,3.2.4,Win32,60,,,1,0,340,258,1,339,ratio34_6_14_14.png,,,,,,,,,,,,
,,,,,,,,,,,,More than half,Many,Some,None,Few,All,Half,Most,Less than half,0.012962963,-0.282407407,1,0,0,QQQ6,,,,,,,,English,2020-07-02_10h59.39.677,Experiment_English,3.2.4,Win32,60,,,1,0,340,43,1,339,ratioX0_6_6_9.png,,,,,,,,,,,,
,,,,,,,,,,,,All,Less than half,Many,Most,None,Half,Few,Some,More than half,-0.000925926,0.275,1,0,0,QQQ4,,,,,,,,English,2020-07-02_10h59.39.677,Experiment_English,3.2.4,Win32,60,,,1,0,340,263,1,339,ratio41_4_5_5.png,,,,,,,,,,,,
,,,,,,,,,,,,All,Few,Half,Less than half,None,Most,Many,Some,More than half,0.038888889,-0.274074074,1,0,0,QQQ6,,,,,,,,English,2020-07-02_10h59.39.677,Experiment_English,3.2.4,Win32,60,,,1,0,340,331,1,339,ratio91_18_20_3.png,,,,,,,,,,,,
,,,,,,,,,,,,Half,More than half,Many,Most,None,Some,Few,All,Less than half,-0.451851852,0.358333333,1,0,0,QQQ7,,,,,,,,English,2020-07-02_10h59.39.677,Experiment_English,3.2.4,Win32,60,,,1,0,340,81,1,339,ratio13_1_4_5.png,,,,,,,,,,,,
,,,,,,,,,,,,More than half,Most,All,Few,None,Some,Many,Less than half,Half,0.485185185,0.273148148,1,0,0,QQQ1,,,,,,,,English,2020-07-02_10h59.39.677,Experiment_English,3.2.4,Win32,60,,,1,0,340,30,1,339,ratio11_6_12_6.png,,,,,,,,,,,,
,,,,,,,,,,,,Less than half,Most,Half,More than half,All,Some,None,Few,Many,0.55462963,0.27037037,1,0,0,QQQ1,,,,,,,,English,2020-07-02_10h59.39.677,Experiment_English,3.2.4,Win32,60,,,1,0,340,136,1,339,ratio15_3_18_8.png,,,,,,,,,,,,
,,,,,,,,,,,,Most,None,Few,All,Many,Half,Some,More than half,Less than half,0.092592593,-0.324074074,1,0,0,QQQ6,,,,,,,,English,2020-07-02_10h59.39.677,Experiment_English,3.2.4,Win32,60,,,1,0,340,225,1,339,ratio32_6_10_4.png,,,,,,,,,,,,
,,,,,,,,,,,,Many,None,Most,Some,Few,More than half,Less than half,Half,All,0.073148148,-0.047222222,1,0,0,QQQ5,,,,,,,,English,2020-07-02_10h59.39.677,Experiment_English,3.2.4,Win32,60,,,1,0,340,87,1,339,ratio13_2_8_8.png,,,,,,,,,,,,
,,,,,,,,,,,,Some,More than half,None,Half,Few,Many,Most,All,Less than half,-0.399074074,-0.22962963,1,0,0,QQQ9,,,,,,,,English,2020-07-02_10h59.39.677,Experiment_English,3.2.4,Win32,60,,,1,0,340,187,1,339,ratio23_4_10_5.png,,,,,,,,,,,,
,,,,,,,,,,,,None,Most,Less than half,More than half,All,Half,Few,Some,Many,0.44537037,-0.022222222,1,0,0,QQQ2,,,,,,,,English,2020-07-02_10h59.39.677,Experiment_English,3.2.4,Win32,60,,,1,0,340,261,1,339,ratio41_4_5_3.png,,,,,,,,,,,,
,,,,,,,,,,,,Less than half,Most,None,Some,Many,Few,More than half,All,Half,-0.071296296,-0.241666667,1,0,0,QQQ6,,,,,,,,English,2020-07-02_10h59.39.677,Experiment_English,3.2.4,Win32,60,,,1,0,340,94,1,339,ratio13_4_16_8.png,,,,,,,,,,,,
,,,,,,,,,,,,None,Half,Most,Many,All,Few,Less than half,More than half,Some,0.54537037,-0.315740741,1,0,0,QQQ3,,,,,,,,English,2020-07-02_10h59.39.677,Experiment_English,3.2.4,Win32,60,,,1,0,340,162,1,339,ratio21_2_3_9.png,,,,,,,,,,,,
,,,,,,,,,,,,All,Less than half,Some,None,Few,Most,More than half,Many,Half,-0.437962963,-0.233333333,1,0,0,QQQ9,,,,,,,,English,2020-07-02_10h59.39.677,Experiment_English,3.2.4,Win32,60,,,1,0,340,22,1,339,ratio11_3_6_6.png,,,,,,,,,,,,
,,,,,,,,,,,,Half,Most,Many,More than half,Less than half,Some,All,None,Few,0.099074074,-0.033333333,1,0,0,QQQ5,,,,,,,,English,2020-07-02_10h59.39.677,Experiment_English,3.2.4,Win32,60,,,1,0,340,117,1,339,ratio14_4_20_6.png,,,,,,,,,,,,
,,,,,,,,,,,,Most,All,Few,Less than half,Some,More than half,Half,Many,None,0.437037037,-0.283333333,1,0,0,QQQ3,,,,,,,,English,2020-07-02_10h59.39.677,Experiment_English,3.2.4,Win32,60,,,1,0,340,248,1,339,ratio34_3_7_19.png,,,,,,,,,,,,
,,,,,,,,,,,,Half,All,Many,Most,More than half,None,Few,Some,Less than half,0.011111111,0.277777778,1,0,0,QQQ4,,,,,,,,English,2020-07-02_10h59.39.677,Experiment_English,3.2.4,Win32,60,,,1,0,340,321,1,339,ratio91_9_10_2.png,,,,,,,,,,,,
,,,,,,,,,,,,None,Few,All,Some,Less than half,Half,More than half,Most,Many,0.041666667,-0.024074074,1,0,0,QQQ5,,,,,,,,English,2020-07-02_10h59.39.677,Experiment_English,3.2.4,Win32,60,,,1,0,340,242,1,339,ratio34_3_7_6.png,,,,,,,,,,,,
,,,,,,,,,,,,None,Many,All,Some,More than half,Few,Half,Less than half,Most,0.483333333,-0.064814815,1,0,0,QQQ2,,,,,,,,English,2020-07-02_10h59.39.677,Experiment_English,3.2.4,Win32,60,,,1,0,340,298,1,339,ratio43_8_14_14.png,,,,,,,,,,,,
,,,,,,,,,,,,Few,Most,More than half,Less than half,Some,Half,All,None,Many,0.510185185,0.234259259,1,0,0,QQQ1,,,,,,,,English,2020-07-02_10h59.39.677,Experiment_English,3.2.4,Win32,60,,,1,0,340,103,1,339,ratio14_1_5_9.png,,,,,,,,,,,,
,,,,,,,,,,,,Less than half,None,More than half,Few,Half,Many,Some,All,Most,-0.374074074,-0.29537037,1,0,0,QQQ9,,,,,,,,English,2020-07-02_10h59.39.677,Experiment_English,3.2.4,Win32,60,,,1,0,340,302,1,339,ratio51_5_6_5.png,,,,,,,,,,,,
,,,,,,,,,,,,Many,Some,None,Less than half,Few,More than half,All,Most,Half,-0.386111111,-0.025,1,0,0,QQQ8,,,,,,,,English,2020-07-02_10h59.39.677,Experiment_English,3.2.4,Win32,60,,,1,0,340,294,1,339,ratio43_8_14_9.png,,,,,,,,,,,,
,,,,,,,,,,,,Few,Some,Half,More than half,Many,All,None,Less than half,Most,-0.441666667,-0.272222222,1,0,0,QQQ9,,,,,,,,English,2020-07-02_10h59.39.677,Experiment_English,3.2.4,Win32,60,,,1,0,340,231,1,339,ratio32_9_15_2.png,,,,,,,,,,,,
,,,,,,,,,,,,All,Half,Few,Some,Most,Many,More than half,Less than half,None,-0.02037037,-0.012962963,1,0,0,QQQ5,,,,,,,,English,2020-07-02_10h59.39.677,Experiment_English,3.2.4,Win32,60,,,1,0,340,311,1,339,ratio51_10_12_14.png,,,,,,,,,,,,
,,,,,,,,,,,,More than half,Most,Half,Some,None,Few,Many,Less than half,All,0.62962963,-0.056481481,1,0,0,QQQ2,,,,,,,,English,2020-07-02_10h59.39.677,Experiment_English,3.2.4,Win32,60,,,1,0,340,272,1,339,ratio41_12_15_7.png,,,,,,,,,,,,
,,,,,,,,,,,,Few,Many,Half,Most,Less than half,All,Some,None,More than half,0.426851852,-0.258333333,1,0,0,QQQ3,,,,,,,,English,2020-07-02_10h59.39.677,Experiment_English,3.2.4,Win32,60,,,1,0,340,149,1,339,ratio19_1_10_20.png,,,,,,,,,,,,
,,,,,,,,,,,,None,Some,All,Many,Most,More than half,Less than half,Half,Few,-0.417592593,0.000925926,1,0,0,QQQ8,,,,,,,,English,2020-07-02_10h59.39.677,Experiment_English,3.2.4,Win32,60,,,1,0,340,253,1,339,ratio34_6_14_5.png,,,,,,,,,,,,
,,,,,,,,,,,,Few,Many,More than half,None,Most,Some,Less than half,Half,All,0.497222222,0.246296296,1,0,0,QQQ1,,,,,,,,English,2020-07-02_10h59.39.677,Experiment_English,3.2.4,Win32,60,,,1,0,340,90,1,339,ratio13_3_12_7.png,,,,,,,,,,,,
,,,,,,,,,,,,None,Many,Most,Few,Half,Less than half,Some,More than half,All,0.587037037,-0.324074074,1,0,0,QQQ3,,,,,,,,English,2020-07-02_10h59.39.677,Experiment_English,3.2.4,Win32,60,,,1,0,340,296,1,339,ratio43_8_14_12.png,0.42037037,-0.382407407,1,0,0,continue_button_pause,1,0,1,0,1,0
,,,,,,,,,,,,,,,,,,,,,,,,,,,,,,,,,,English,2020-07-02_10h59.39.677,Experiment_English,3.2.4,Win32,60,,,1,0,340,296,1,339,ratio43_8_14_12.png,,,,,,,,,,,,
,,,,,,,,,,,,None,Many,Few,More than half,Less than half,Half,All,Some,Most,0.453703704,-0.24537037,1,0,0,QQQ3,,,,,,,,English,2020-07-02_10h59.39.677,Experiment_English,3.2.4,Win32,60,,,1,0,340,123,1,339,ratio15_1_6_12.png,,,,,,,,,,,,
,,,,,,,,,,,,More than half,None,Most,Many,Some,All,Half,Few,Less than half,0.041666667,0.212962963,1,0,0,QQQ4,,,,,,,,English,2020-07-02_10h59.39.677,Experiment_English,3.2.4,Win32,60,,,1,0,340,32,1,339,ratio11_7_14_5.png,,,,,,,,,,,,
,,,,,,,,,,,,Many,Some,Most,More than half,Less than half,Few,Half,None,All,0.021296296,-0.312962963,1,0,0,QQQ6,,,,,,,,English,2020-07-02_10h59.39.677,Experiment_English,3.2.4,Win32,60,,,1,0,340,132,1,339,ratio15_2_12_16.png,,,,,,,,,,,,
,,,,,,,,,,,,Some,More than half,Most,Many,All,None,Half,Few,Less than half,-0.425925926,0.007407407,1,0,0,QQQ8,,,,,,,,English,2020-07-02_10h59.39.677,Experiment_English,3.2.4,Win32,60,,,1,0,340,310,1,339,ratio51_10_12_12.png,,,,,,,,,,,,
,,,,,,,,,,,,Most,Few,Some,More than half,Many,Half,All,None,Less than half,0.505555556,0.251851852,1,0,0,QQQ1,,,,,,,,English,2020-07-02_10h59.39.677,Experiment_English,3.2.4,Win32,60,,,1,0,340,165,1,339,ratio21_4_6_10.png,,,,,,,,,,,,
,,,,,,,,,,,,None,Many,Some,Most,More than half,Less than half,Few,Half,All,0.449074074,0.262962963,1,0,0,QQQ1,,,,,,,,English,2020-07-02_10h59.39.677,Experiment_English,3.2.4,Win32,60,,,1,0,340,269,1,339,ratio41_8_10_6.png,,,,,,,,,,,,
,,,,,,,,,,,,All,Half,More than half,Most,Some,Few,Less than half,Many,None,0.544444444,0.006481481,1,0,0,QQQ2,,,,,,,,English,2020-07-02_10h59.39.677,Experiment_English,3.2.4,Win32,60,,,1,0,340,282,1,339,ratio43_4_7_7.png,,,,,,,,,,,,
,,,,,,,,,,,,More than half,Half,Most,Many,Some,Few,None,All,Less than half,0.548148148,-0.316666667,1,0,0,QQQ3,,,,,,,,English,2020-07-02_10h59.39.677,Experiment_English,3.2.4,Win32,60,,,1,0,340,300,1,339,ratio51_5_6_1.png,,,,,,,,,,,,
,,,,,,,,,,,,Most,All,Few,Half,None,Less than half,Many,More than half,Some,0.09537037,-0.237037037,1,0,0,QQQ6,,,,,,,,English,2020-07-02_10h59.39.677,Experiment_English,3.2.4,Win32,60,,,1,0,340,99,1,339,ratio13_5_20_4.png,,,,,,,,,,,,
,,,,,,,,,,,,Less than half,Half,None,Few,Some,More than half,Most,All,Many,0.490740741,-0.266666667,1,0,0,QQQ3,,,,,,,,English,2020-07-02_10h59.39.677,Experiment_English,3.2.4,Win32,60,,,1,0,340,67,1,339,ratio0Y_0_10_10.png,,,,,,,,,,,,
,,,,,,,,,,,,None,More than half,Half,All,Most,Few,Some,Many,Less than half,0.087037037,-0.014814815,1,0,0,QQQ5,,,,,,,,English,2020-07-02_10h59.39.677,Experiment_English,3.2.4,Win32,60,,,1,0,340,50,1,339,ratioX0_12_12_3.png,,,,,,,,,,,,
,,,,,,,,,,,,Most,More than half,Few,Half,Less than half,All,Some,Many,None,-0.42037037,-0.248148148,1,0,0,QQQ9,,,,,,,,English,2020-07-02_10h59.39.677,Experiment_English,3.2.4,Win32,60,,,1,0,340,78,1,339,ratio0Y_0_19_1.png,,,,,,,,,,,,
,,,,,,,,,,,,Less than half,Many,All,More than half,None,Few,Most,Some,Half,-0.446296296,0.214814815,1,0,0,QQQ7,,,,,,,,English,2020-07-02_10h59.39.677,Experiment_English,3.2.4,Win32,60,,,1,0,340,306,1,339,ratio51_5_6_18.png,,,,,,,,,,,,
,,,,,,,,,,,,Half,All,More than half,Many,Most,Some,Less than half,None,Few,-0.389814815,0.228703704,1,0,0,QQQ7,,,,,,,,English,2020-07-02_10h59.39.677,Experiment_English,3.2.4,Win32,60,,,1,0,340,184,1,339,ratio23_2_5_10.png,,,,,,,,,,,,
,,,,,,,,,,,,Many,Some,More than half,Few,All,Less than half,Most,None,Half,0.540740741,-0.35,1,0,0,QQQ3,,,,,,,,English,2020-07-02_10h59.39.677,Experiment_English,3.2.4,Win32,60,,,1,0,340,224,1,339,ratio32_3_5_10.png,,,,,,,,,,,,
,,,,,,,,,,,,Less than half,None,More than half,All,Many,Few,Half,Some,Most,0.499074074,-0.263888889,1,0,0,QQQ3,,,,,,,,English,2020-07-02_10h59.39.677,Experiment_English,3.2.4,Win32,60,,,1,0,340,163,1,339,ratio21_4_6_1.png,,,,,,,,,,,,
,,,,,,,,,,,,Some,Less than half,More than half,Many,None,Few,All,Most,Half,0.099074074,-0.012037037,1,0,0,QQQ5,,,,,,,,English,2020-07-02_10h59.39.677,Experiment_English,3.2.4,Win32,60,,,1,0,340,48,1,339,ratioX0_10_10_1.png,,,,,,,,,,,,
,,,,,,,,,,,,All,Less than half,Some,None,Many,More than half,Most,Few,Half,-0.534259259,0.259259259,1,0,0,QQQ7,,,,,,,,English,2020-07-02_10h59.39.677,Experiment_English,3.2.4,Win32,60,,,1,0,340,164,1,339,ratio21_4_6_6.png,,,,,,,,,,,,
,,,,,,,,,,,,None,Most,Many,Some,Less than half,All,Few,More than half,Half,0.016666667,-0.003703704,1,0,0,QQQ5,,,,,,,,English,2020-07-02_10h59.39.677,Experiment_English,3.2.4,Win32,60,,,1,0,340,180,1,339,ratio23_2_5_4.png,,,,,,,,,,,,
,,,,,,,,,,,,Most,Many,Some,Few,All,Less than half,Half,None,More than half,0.016666667,0.259259259,1,0,0,QQQ4,,,,,,,,English,2020-07-02_10h59.39.677,Experiment_English,3.2.4,Win32,60,,,1,0,340,80,1,339,ratio13_1_4_3.png,,,,,,,,,,,,
,,,,,,,,,,,,Half,Less than half,Many,Most,None,More than half,Some,Few,All,-0.503703704,0.024074074,1,0,0,QQQ8,,,,,,,,English,2020-07-02_10h59.39.677,Experiment_English,3.2.4,Win32,60,,,1,0,340,7,1,339,ratio12_3_9_2.png,,,,,,,,,,,,
,,,,,,,,,,,,Few,Some,Many,Less than half,Half,Most,More than half,None,All,0.028703704,-0.039814815,1,0,0,QQQ5,,,,,,,,English,2020-07-02_10h59.39.677,Experiment_English,3.2.4,Win32,60,,,1,0,340,129,1,339,ratio15_2_12_9.png,,,,,,,,,,,,
,,,,,,,,,,,,Most,Many,Some,All,Half,Less than half,More than half,None,Few,0.013888889,-0.335185185,1,0,0,QQQ6,,,,,,,,English,2020-07-02_10h59.39.677,Experiment_English,3.2.4,Win32,60,,,1,0,340,1,1,339,ratio12_1_3_7.png,,,,,,,,,,,,
,,,,,,,,,,,,Few,None,Many,Most,More than half,Half,Some,Less than half,All,0.40462963,0.218518519,1,0,0,QQQ1,,,,,,,,English,2020-07-02_10h59.39.677,Experiment_English,3.2.4,Win32,60,,,1,0,340,148,1,339,ratio19_1_10_19.png,,,,,,,,,,,,
,,,,,,,,,,,,More than half,Few,Less than half,Many,None,All,Most,Some,Half,0.066666667,0.022222222,1,0,0,QQQ5,,,,,,,,English,2020-07-02_10h59.39.677,Experiment_English,3.2.4,Win32,60,,,1,0,340,73,1,339,ratio0Y_0_14_7.png,,,,,,,,,,,,
,,,,,,,,,,,,None,Many,Most,Some,Less than half,More than half,All,Few,Half,-0.037037037,-0.037037037,1,0,0,QQQ5,,,,,,,,English,2020-07-02_10h59.39.677,Experiment_English,3.2.4,Win32,60,,,1,0,340,127,1,339,ratio15_2_12_2.png,,,,,,,,,,,,
,,,,,,,,,,,,Many,None,Few,Some,Half,Less than half,Most,More than half,All,0.494444444,0.284259259,1,0,0,QQQ1,,,,,,,,English,2020-07-02_10h59.39.677,Experiment_English,3.2.4,Win32,60,,,1,0,340,260,1,339,ratio41_4_5_2.png,,,,,,,,,,,,
,,,,,,,,,,,,Some,Few,Many,None,All,More than half,Less than half,Most,Half,-0.412962963,0.27962963,1,0,0,QQQ7,,,,,,,,English,2020-07-02_10h59.39.677,Experiment_English,3.2.4,Win32,60,,,1,0,340,109,1,339,ratio14_2_10_9.png,,,,,,,,,,,,
,,,,,,,,,,,,Few,Many,None,Less than half,All,Most,Half,Some,More than half,0.590740741,0.00462963,1,0,0,QQQ2,,,,,,,,English,2020-07-02_10h59.39.677,Experiment_English,3.2.4,Win32,60,,,1,0,340,227,1,339,ratio32_6_10_6.png,,,,,,,,,,,,
,,,,,,,,,,,,Many,Few,Some,More than half,Half,Most,All,Less than half,None,0.510185185,0.217592593,1,0,0,QQQ1,,,,,,,,English,2020-07-02_10h59.39.677,Experiment_English,3.2.4,Win32,60,,,1,0,340,210,1,339,ratio31_9_12_9.png,,,,,,,,,,,,
,,,,,,,,,,,,Half,Many,Few,None,More than half,All,Less than half,Most,Some,-0.360185185,0.222222222,1,0,0,QQQ7,,,,,,,,English,2020-07-02_10h59.39.677,Experiment_English,3.2.4,Win32,60,,,1,0,340,183,1,339,ratio23_2_5_9.png,,,,,,,,,,,,
,,,,,,,,,,,,Half,None,Few,Most,All,More than half,Less than half,Some,Many,0.448148148,-0.264814815,1,0,0,QQQ3,,,,,,,,English,2020-07-02_10h59.39.677,Experiment_English,3.2.4,Win32,60,,,1,0,340,101,1,339,ratio14_1_5_7.png,,,,,,,,,,,,
,,,,,,,,,,,,Many,Half,More than half,Less than half,None,Some,Most,Few,All,0.475925926,0.247222222,1,0,0,QQQ1,,,,,,,,English,2020-07-02_10h59.39.677,Experiment_English,3.2.4,Win32,60,,,1,0,340,213,1,339,ratio31_12_16_2.png,,,,,,,,,,,,
,,,,,,,,,,,,None,Few,Half,All,Some,More than half,Less than half,Many,Most,-0.450925926,-0.012962963,1,0,0,QQQ8,,,,,,,,English,2020-07-02_10h59.39.677,Experiment_English,3.2.4,Win32,60,,,1,0,340,338,1,339,ratio91_18_20_18.png,0.340740741,-0.391666667,1,0,0,continue_button_pause,1,0,1,0,1,0
,,,,,,,,,,,,,,,,,,,,,,,,,,,,,,,,,,English,2020-07-02_10h59.39.677,Experiment_English,3.2.4,Win32,60,,,1,0,340,338,1,339,ratio91_18_20_18.png,,,,,,,,,,,,
,,,,,,,,,,,,Some,Half,None,Most,More than half,Few,All,Many,Less than half,-0.376851852,-0.246296296,1,0,0,QQQ9,,,,,,,,English,2020-07-02_10h59.39.677,Experiment_English,3.2.4,Win32,60,,,1,0,340,105,1,339,ratio14_2_10_1.png,,,,,,,,,,,,
,,,,,,,,,,,,All,None,More than half,Most,Few,Half,Less than half,Some,Many,-0.001851852,-0.032407407,1,0,0,QQQ5,,,,,,,,English,2020-07-02_10h59.39.677,Experiment_English,3.2.4,Win32,60,,,1,0,340,274,1,339,ratio41_12_15_9.png,,,,,,,,,,,,
,,,,,,,,,,,,All,Most,Half,Some,Few,Less than half,None,More than half,Many,-0.000925926,-0.028703704,1,0,0,QQQ5,,,,,,,,English,2020-07-02_10h59.39.677,Experiment_English,3.2.4,Win32,60,,,1,0,340,98,1,339,ratio13_5_20_3.png,,,,,,,,,,,,
,,,,,,,,,,,,None,Some,Less than half,More than half,Few,Most,Many,Half,All,-0.000925926,-0.028703704,1,0,0,QQQ5,,,,,,,,English,2020-07-02_10h59.39.677,Experiment_English,3.2.4,Win32,60,,,1,0,340,131,1,339,ratio15_2_12_14.png,,,,,,,,,,,,
,,,,,,,,,,,,Many,All,Less than half,Few,Most,More than half,None,Some,Half,0.473148148,-0.057407407,1,0,0,QQQ2,,,,,,,,English,2020-07-02_10h59.39.677,Experiment_English,3.2.4,Win32,60,,,1,0,340,55,1,339,ratioX0_16_16_3.png,,,,,,,,,,,,
,,,,,,,,,,,,Some,Many,Half,More than half,None,Few,Less than half,All,Most,-0.449074074,-0.048148148,1,0,0,QQQ8,,,,,,,,English,2020-07-02_10h59.39.677,Experiment_English,3.2.4,Win32,60,,,1,0,340,47,1,339,ratioX0_9_9_4.png,,,,,,,,,,,,
,,,,,,,,,,,,Most,Few,More than half,None,Some,Many,All,Half,Less than half,0.021296296,-0.068518519,1,0,0,QQQ5,,,,,,,,English,2020-07-02_10h59.39.677,Experiment_English,3.2.4,Win32,60,,,1,0,340,197,1,339,ratio23_8_20_6.png,,,,,,,,,,,,
,,,,,,,,,,,,All,Most,Few,Some,Many,More than half,Half,Less than half,None,0.418518519,-0.005555556,1,0,0,QQQ2,,,,,,,,English,2020-07-02_10h59.39.677,Experiment_English,3.2.4,Win32,60,,,1,0,340,279,1,339,ratio41_16_20_10.png,,,,,,,,,,,,
,,,,,,,,,,,,All,Some,Most,Less than half,Half,More than half,Few,Many,None,-0.053703704,0.306481481,1,0,0,QQQ4,,,,,,,,English,2020-07-02_10h59.39.677,Experiment_English,3.2.4,Win32,60,,,1,0,340,147,1,339,ratio19_1_10_18.png,,,,,,,,,,,,
,,,,,,,,,,,,None,Many,Few,Most,Less than half,Some,Half,More than half,All,0.040740741,-0.085185185,1,0,0,QQQ5,,,,,,,,English,2020-07-02_10h59.39.677,Experiment_English,3.2.4,Win32,60,,,1,0,340,9,1,339,ratio12_3_9_5.png,,,,,,,,,,,,
,,,,,,,,,,,,Less than half,Most,None,All,Few,Half,Many,More than half,Some,-0.483333333,-0.041666667,1,0,0,QQQ8,,,,,,,,English,2020-07-02_10h59.39.677,Experiment_English,3.2.4,Win32,60,,,1,0,340,238,1,339,ratio32_12_20_9.png,,,,,,,,,,,,
,,,,,,,,,,,,Many,Most,None,All,Less than half,Some,More than half,Half,Few,0.086111111,-0.30462963,1,0,0,QQQ6,,,,,,,,English,2020-07-02_10h59.39.677,Experiment_English,3.2.4,Win32,60,,,1,0,340,23,1,339,ratio11_3_6_9.png,,,,,,,,,,,,
,,,,,,,,,,,,None,Less than half,Most,Half,Many,More than half,Some,Few,All,0.07037037,-0.025,1,0,0,QQQ5,,,,,,,,English,2020-07-02_10h59.39.677,Experiment_English,3.2.4,Win32,60,,,1,0,340,266,1,339,ratio41_8_10_2.png,,,,,,,,,,,,
,,,,,,,,,,,,Some,None,All,More than half,Half,Most,Few,Many,Less than half,0.02962963,-0.288888889,1,0,0,QQQ6,,,,,,,,English,2020-07-02_10h59.39.677,Experiment_English,3.2.4,Win32,60,,,1,0,340,230,1,339,ratio32_9_15_1.png,,,,,,,,,,,,
,,,,,,,,,,,,Half,Some,Few,None,Most,More than half,All,Many,Less than half,0.530555556,-0.082407407,1,0,0,QQQ2,,,,,,,,English,2020-07-02_10h59.39.677,Experiment_English,3.2.4,Win32,60,,,1,0,340,86,1,339,ratio13_2_8_6.png,,,,,,,,,,,,
,,,,,,,,,,,,Half,Most,Less than half,More than half,Many,Some,None,All,Few,0.038888889,-0.1,1,0,0,QQQ5,,,,,,,,English,2020-07-02_10h59.39.677,Experiment_English,3.2.4,Win32,60,,,1,0,340,336,1,339,ratio91_18_20_12.png,,,,,,,,,,,,
,,,,,,,,,,,,All,Many,Few,Most,Some,Half,None,Less than half,More than half,0.492592593,-0.002777778,1,0,0,QQQ2,,,,,,,,English,2020-07-02_10h59.39.677,Experiment_English,3.2.4,Win32,60,,,1,0,340,339,1,339,ratio91_18_20_19.png,,,,,,,,,,,,
,,,,,,,,,,,,Most,Less than half,Some,More than half,Few,Many,None,Half,All,-0.056481481,-0.040740741,1,0,0,QQQ5,,,,,,,,English,2020-07-02_10h59.39.677,Experiment_English,3.2.4,Win32,60,,,1,0,340,100,1,339,ratio14_1_5_3.png,,,,,,,,,,,,
,,,,,,,,,,,,More than half,Most,All,Some,Half,Less than half,None,Many,Few,-0.384259259,-0.061111111,1,0,0,QQQ8,,,,,,,,English,2020-07-02_10h59.39.677,Experiment_English,3.2.4,Win32,60,,,1,0,340,108,1,339,ratio14_2_10_6.png,,,,,,,,,,,,
,,,,,,,,,,,,Some,All,Few,None,Less than half,More than half,Most,Half,Many,-0.477777778,-0.042592593,1,0,0,QQQ8,,,,,,,,English,2020-07-02_10h59.39.677,Experiment_English,3.2.4,Win32,60,,,1,0,340,20,1,339,ratio11_2_4_3.png,,,,,,,,,,,,
,,,,,,,,,,,,More than half,None,Many,Few,Half,Less than half,Most,All,Some,-0.049074074,0.236111111,1,0,0,QQQ4,,,,,,,,English,2020-07-02_10h59.39.677,Experiment_English,3.2.4,Win32,60,,,1,0,340,159,1,339,ratio19_2_20_20.png,,,,,,,,,,,,
,,,,,,,,,,,,More than half,Few,None,Half,Many,Less than half,All,Most,Some,0.397222222,0.000925926,1,0,0,QQQ2,,,,,,,,English,2020-07-02_10h59.39.677,Experiment_English,3.2.4,Win32,60,,,1,0,340,243,1,339,ratio34_3_7_8.png,,,,,,,,,,,,
,,,,,,,,,,,,Most,None,Less than half,All,Few,Some,Many,Half,More than half,-0.013888889,-0.371296296,1,0,0,QQQ6,,,,,,,,English,2020-07-02_10h59.39.677,Experiment_English,3.2.4,Win32,60,,,1,0,340,256,1,339,ratio34_6_14_11.png,,,,,,,,,,,,
,,,,,,,,,,,,Less than half,Many,Few,None,Some,Half,Most,All,More than half,-0.053703704,0.289814815,1,0,0,QQQ4,,,,,,,,English,2020-07-02_10h59.39.677,Experiment_English,3.2.4,Win32,60,,,1,0,340,173,1,339,ratio21_8_12_9.png,,,,,,,,,,,,
,,,,,,,,,,,,Most,Half,More than half,Few,None,Many,Some,Less than half,All,0.462962963,0.238888889,1,0,0,QQQ1,,,,,,,,English,2020-07-02_10h59.39.677,Experiment_English,3.2.4,Win32,60,,,1,0,340,313,1,339,ratio51_15_18_2.png,,,,,,,,,,,,
,,,,,,,,,,,,Many,Some,Half,Less than half,Few,All,More than half,None,Most,-0.482407407,-0.039814815,1,0,0,QQQ8,,,,,,,,English,2020-07-02_10h59.39.677,Experiment_English,3.2.4,Win32,60,,,1,0,340,69,1,339,ratio0Y_0_11_6.png,,,,,,,,,,,,
,,,,,,,,,,,,None,More than half,Some,Less than half,Most,All,Half,Many,Few,-0.343518519,-0.282407407,1,0,0,QQQ9,,,,,,,,English,2020-07-02_10h59.39.677,Experiment_English,3.2.4,Win32,60,,,1,0,340,247,1,339,ratio34_3_7_12.png,,,,,,,,,,,,
,,,,,,,,,,,,Most,Less than half,Half,More than half,All,None,Some,Few,Many,-0.502777778,-0.313888889,1,0,0,QQQ9,,,,,,,,English,2020-07-02_10h59.39.677,Experiment_English,3.2.4,Win32,60,,,1,0,340,319,1,339,ratio51_15_18_20.png,,,,,,,,,,,,
,,,,,,,,,,,,More than half,Few,Less than half,Many,None,Some,Most,Half,All,0.488888889,-0.07962963,1,0,0,QQQ2,,,,,,,,English,2020-07-02_10h59.39.677,Experiment_English,3.2.4,Win32,60,,,1,0,340,137,1,339,ratio15_3_18_16.png,,,,,,,,,,,,
,,,,,,,,,,,,Less than half,Some,Half,Most,None,Many,Few,More than half,All,0.071296296,0.083333333,1,0,0,QQQ5,,,,,,,,English,2020-07-02_10h59.39.677,Experiment_English,3.2.4,Win32,60,,,1,0,340,74,1,339,ratio0Y_0_15_10.png,,,,,,,,,,,,
,,,,,,,,,,,,Some,Less than half,Many,More than half,Most,None,All,Half,Few,0.460185185,0.247222222,1,0,0,QQQ1,,,,,,,,English,2020-07-02_10h59.39.677,Experiment_English,3.2.4,Win32,60,,,1,0,340,97,1,339,ratio13_5_20_2.png,,,,,,,,,,,,
,,,,,,,,,,,,Many,Few,Some,More than half,Most,Half,All,None,Less than half,0.397222222,0.019444444,1,0,0,QQQ2,,,,,,,,English,2020-07-02_10h59.39.677,Experiment_English,3.2.4,Win32,60,,,1,0,340,134,1,339,ratio15_3_18_5.png,,,,,,,,,,,,
,,,,,,,,,,,,More than half,All,None,Many,Some,Half,Less than half,Most,Few,-0.428703704,-0.038888889,1,0,0,QQQ8,,,,,,,,English,2020-07-02_10h59.39.677,Experiment_English,3.2.4,Win32,60,,,1,0,340,301,1,339,ratio51_5_6_4.png,,,,,,,,,,,,
,,,,,,,,,,,,Less than half,Most,All,Half,Many,Few,More than half,Some,None,0.600925926,-0.044444444,1,0,0,QQQ2,,,,,,,,English,2020-07-02_10h59.39.677,Experiment_English,3.2.4,Win32,60,,,1,0,340,305,1,339,ratio51_5_6_14.png,0.435185185,-0.386111111,1,0,0,continue_button_pause,1,0,1,0,1,0
,,,,,,,,,,,,,,,,,,,,,,,,,,,,,,,,,,English,2020-07-02_10h59.39.677,Experiment_English,3.2.4,Win32,60,,,1,0,340,305,1,339,ratio51_5_6_14.png,,,,,,,,,,,,
,,,,,,,,,,,,None,Most,All,Few,More than half,Some,Many,Less than half,Half,-0.018518519,0.261111111,1,0,0,QQQ4,,,,,,,,English,2020-07-02_10h59.39.677,Experiment_English,3.2.4,Win32,60,,,1,0,340,114,1,339,ratio14_3_15_10.png,,,,,,,,,,,,
,,,,,,,,,,,,Less than half,Half,Few,Most,All,Many,More than half,None,Some,-0.383333333,0.238888889,1,0,0,QQQ7,,,,,,,,English,2020-07-02_10h59.39.677,Experiment_English,3.2.4,Win32,60,,,1,0,340,273,1,339,ratio41_12_15_8.png,,,,,,,,,,,,
,,,,,,,,,,,,Most,Half,Few,More than half,Some,Many,All,None,Less than half,0.536111111,0.262037037,1,0,0,QQQ1,,,,,,,,English,2020-07-02_10h59.39.677,Experiment_English,3.2.4,Win32,60,,,1,0,340,161,1,339,ratio21_2_3_8.png,,,,,,,,,,,,
,,,,,,,,,,,,None,Half,Few,Most,Many,Less than half,More than half,Some,All,0.449074074,-0.223148148,1,0,0,QQQ3,,,,,,,,English,2020-07-02_10h59.39.677,Experiment_English,3.2.4,Win32,60,,,1,0,340,139,1,339,ratio15_3_18_20.png,,,,,,,,,,,,
,,,,,,,,,,,,Some,Most,None,Few,All,Less than half,Half,Many,More than half,0.542592593,-0.214814815,1,0,0,QQQ3,,,,,,,,English,2020-07-02_10h59.39.677,Experiment_English,3.2.4,Win32,60,,,1,0,340,72,1,339,ratio0Y_0_13_4.png,,,,,,,,,,,,
,,,,,,,,,,,,Few,All,Less than half,Many,None,Half,Some,More than half,Most,-0.392592593,-0.257407407,1,0,0,QQQ9,,,,,,,,English,2020-07-02_10h59.39.677,Experiment_English,3.2.4,Win32,60,,,1,0,340,284,1,339,ratio43_4_7_11.png,,,,,,,,,,,,
,,,,,,,,,,,,All,Most,Many,Less than half,Some,More than half,Half,None,Few,-0.510185185,-0.308333333,1,0,0,QQQ9,,,,,,,,English,2020-07-02_10h59.39.677,Experiment_English,3.2.4,Win32,60,,,1,0,340,155,1,339,ratio19_2_20_13.png,,,,,,,,,,,,
,,,,,,,,,,,,More than half,Few,Many,Less than half,All,Most,None,Half,Some,0.042592593,-0.263888889,1,0,0,QQQ6,,,,,,,,English,2020-07-02_10h59.39.677,Experiment_English,3.2.4,Win32,60,,,1,0,340,308,1,339,ratio51_10_12_9.png,,,,,,,,,,,,
,,,,,,,,,,,,Half,Less than half,All,None,Few,Some,Most,More than half,Many,-0.643518519,0.317592593,1,0,0,QQQ7,,,,,,,,English,2020-07-02_10h59.39.677,Experiment_English,3.2.4,Win32,60,,,1,0,340,228,1,339,ratio32_6_10_7.png,,,,,,,,,,,,
,,,,,,,,,,,,None,More than half,Most,Few,All,Many,Half,Some,Less than half,-0.455555556,0.317592593,1,0,0,QQQ7,,,,,,,,English,2020-07-02_10h59.39.677,Experiment_English,3.2.4,Win32,60,,,1,0,340,25,1,339,ratio11_4_8_10.png,,,,,,,,,,,,
,,,,,,,,,,,,Less than half,More than half,Half,All,Most,Few,None,Some,Many,0.123148148,-0.239814815,1,0,0,QQQ6,,,,,,,,English,2020-07-02_10h59.39.677,Experiment_English,3.2.4,Win32,60,,,1,0,340,130,1,339,ratio15_2_12_12.png,,,,,,,,,,,,
,,,,,,,,,,,,None,Less than half,Most,More than half,Some,Many,All,Half,Few,0.539814815,-0.313888889,1,0,0,QQQ3,,,,,,,,English,2020-07-02_10h59.39.677,Experiment_English,3.2.4,Win32,60,,,1,0,340,176,1,339,ratio21_10_15_3.png,,,,,,,,,,,,
,,,,,,,,,,,,Many,Less than half,Most,Few,Half,All,More than half,None,Some,-0.483333333,0.022222222,1,0,0,QQQ8,,,,,,,,English,2020-07-02_10h59.39.677,Experiment_English,3.2.4,Win32,60,,,1,0,340,65,1,339,ratio0Y_0_8_4.png,,,,,,,,,,,,
,,,,,,,,,,,,Less than half,Few,None,All,Some,More than half,Many,Half,Most,0.493518519,-0.050925926,1,0,0,QQQ2,,,,,,,,English,2020-07-02_10h59.39.677,Experiment_English,3.2.4,Win32,60,,,1,0,340,5,1,339,ratio12_2_6_9.png,,,,,,,,,,,,
,,,,,,,,,,,,Few,Half,None,Many,Some,Most,More than half,All,Less than half,0.475925926,0.278703704,1,0,0,QQQ1,,,,,,,,English,2020-07-02_10h59.39.677,Experiment_English,3.2.4,Win32,60,,,1,0,340,154,1,339,ratio19_2_20_11.png,,,,,,,,,,,,
,,,,,,,,,,,,Most,Many,Few,Some,More than half,Half,Less than half,All,None,0.657407407,0.25462963,1,0,0,QQQ1,,,,,,,,English,2020-07-02_10h59.39.677,Experiment_English,3.2.4,Win32,60,,,1,0,340,328,1,339,ratio91_9_10_15.png,,,,,,,,,,,,
,,,,,,,,,,,,Many,More than half,All,Half,Less than half,Few,None,Some,Most,-0.394444444,-0.22037037,1,0,0,QQQ9,,,,,,,,English,2020-07-02_10h59.39.677,Experiment_English,3.2.4,Win32,60,,,1,0,340,335,1,339,ratio91_18_20_11.png,,,,,,,,,,,,
,,,,,,,,,,,,Half,Few,Most,Less than half,Many,More than half,All,None,Some,0.491666667,0.018518519,1,0,0,QQQ2,,,,,,,,English,2020-07-02_10h59.39.677,Experiment_English,3.2.4,Win32,60,,,1,0,340,141,1,339,ratio19_1_10_2.png,,,,,,,,,,,,
,,,,,,,,,,,,Many,Less than half,Some,Half,None,All,Few,More than half,Most,-0.416666667,-0.285185185,1,0,0,QQQ9,,,,,,,,English,2020-07-02_10h59.39.677,Experiment_English,3.2.4,Win32,60,,,1,0,340,29,1,339,ratio11_6_12_1.png,,,,,,,,,,,,
,,,,,,,,,,,,All,More than half,None,Few,Some,Half,Less than half,Most,Many,0.390740741,0.277777778,1,0,0,QQQ1,,,,,,,,English,2020-07-02_10h59.39.677,Experiment_English,3.2.4,Win32,60,,,1,0,340,44,1,339,ratioX0_7_7_5.png,,,,,,,,,,,,
,,,,,,,,,,,,Many,All,Most,Some,Half,More than half,Less than half,None,Few,-0.39537037,-0.246296296,1,0,0,QQQ9,,,,,,,,English,2020-07-02_10h59.39.677,Experiment_English,3.2.4,Win32,60,,,1,0,340,89,1,339,ratio13_3_12_6.png,,,,,,,,,,,,
,,,,,,,,,,,,More than half,Some,Most,Many,Less than half,Few,None,Half,All,-0.142592593,-0.32037037,1,0,0,QQQ6,,,,,,,,English,2020-07-02_10h59.39.677,Experiment_English,3.2.4,Win32,60,,,1,0,340,182,1,339,ratio23_2_5_7.png,,,,,,,,,,,,
,,,,,,,,,,,,Less than half,None,Few,More than half,Many,Half,Most,Some,All,0.452777778,-0.273148148,1,0,0,QQQ3,,,,,,,,English,2020-07-02_10h59.39.677,Experiment_English,3.2.4,Win32,60,,,1,0,340,144,1,339,ratio19_1_10_11.png,,,,,,,,,,,,
,,,,,,,,,,,,Less than half,All,None,More than half,Many,Few,Half,Most,Some,-0.450925926,-0.065740741,1,0,0,QQQ8,,,,,,,,English,2020-07-02_10h59.39.677,Experiment_English,3.2.4,Win32,60,,,1,0,340,324,1,339,ratio91_9_10_7.png,,,,,,,,,,,,
,,,,,,,,,,,,Less than half,Few,All,Some,More than half,Most,Many,None,Half,0.460185185,-0.040740741,1,0,0,QQQ2,,,,,,,,English,2020-07-02_10h59.39.677,Experiment_English,3.2.4,Win32,60,,,1,0,340,88,1,339,ratio13_3_12_5.png,,,,,,,,,,,,
,,,,,,,,,,,,Less than half,More than half,Few,Many,Half,All,Most,None,Some,0.039814815,-0.050925926,1,0,0,QQQ5,,,,,,,,English,2020-07-02_10h59.39.677,Experiment_English,3.2.4,Win32,60,,,1,0,340,239,1,339,ratio32_12_20_10.png,,,,,,,,,,,,
,,,,,,,,,,,,More than half,Many,Half,All,Less than half,None,Some,Few,Most,-0.490740741,-0.235185185,1,0,0,QQQ9,,,,,,,,English,2020-07-02_10h59.39.677,Experiment_English,3.2.4,Win32,60,,,1,0,340,175,1,339,ratio21_10_15_2.png,,,,,,,,,,,,
,,,,,,,,,,,,Most,Few,More than half,Less than half,Half,None,All,Many,Some,0.54537037,0.258333333,1,0,0,QQQ1,,,,,,,,English,2020-07-02_10h59.39.677,Experiment_English,3.2.4,Win32,60,,,1,0,340,169,1,339,ratio21_6_9_7.png,,,,,,,,,,,,
,,,,,,,,,,,,Some,Half,Few,None,All,Most,Many,More than half,Less than half,0.500925926,-0.24537037,1,0,0,QQQ3,,,,,,,,English,2020-07-02_10h59.39.677,Experiment_English,3.2.4,Win32,60,,,1,0,340,93,1,339,ratio13_4_16_7.png,,,,,,,,,,,,
,,,,,,,,,,,,Most,All,None,More than half,Less than half,Some,Few,Many,Half,-0.486111111,-0.248148148,1,0,0,QQQ9,,,,,,,,English,2020-07-02_10h59.39.677,Experiment_English,3.2.4,Win32,60,,,1,0,340,297,1,339,ratio43_8_14_13.png,,,,,,,,,,,,
,,,,,,,,,,,,More than half,All,None,Many,Less than half,Few,Most,Half,Some,0.491666667,0.025,1,0,0,QQQ2,,,,,,,,English,2020-07-02_10h59.39.677,Experiment_English,3.2.4,Win32,60,,,1,0,340,53,1,339,ratioX0_14_14_8.png,,,,,,,,,,,,
,,,,,,,,,,,,Some,More than half,Most,Half,Few,None,All,Many,Less than half,-0.349074074,-0.035185185,1,0,0,QQQ8,,,,,,,,English,2020-07-02_10h59.39.677,Experiment_English,3.2.4,Win32,60,,,1,0,340,212,1,339,ratio31_12_16_1.png,,,,,,,,,,,,
,,,,,,,,,,,,Few,All,Some,Less than half,Most,None,Many,More than half,Half,0.384259259,-0.05,1,0,0,QQQ2,,,,,,,,English,2020-07-02_10h59.39.677,Experiment_English,3.2.4,Win32,60,,,1,0,340,57,1,339,ratioX0_18_18_1.png,,,,,,,,,,,,
,,,,,,,,,,,,Few,Many,None,More than half,Some,Half,Less than half,Most,All,0.469444444,0.266666667,1,0,0,QQQ1,,,,,,,,English,2020-07-02_10h59.39.677,Experiment_English,3.2.4,Win32,60,,,1,0,340,116,1,339,ratio14_4_20_3.png,0.462037037,-0.407407407,1,0,0,continue_button_pause,1,0,1,0,1,0
,,,,,,,,,,,,,,,,,,,,,,,,,,,,,,,,,,English,2020-07-02_10h59.39.677,Experiment_English,3.2.4,Win32,60,,,1,0,340,116,1,339,ratio14_4_20_3.png,,,,,,,,,,,,
,,,,,,,,,,,,All,Less than half,Few,Some,Half,Many,More than half,None,Most,0.583333333,-0.30462963,1,0,0,QQQ3,,,,,,,,English,2020-07-02_10h59.39.677,Experiment_English,3.2.4,Win32,60,,,1,0,340,122,1,339,ratio15_1_6_7.png,,,,,,,,,,,,
,,,,,,,,,,,,More than half,Few,Half,Many,Most,Less than half,None,Some,All,-0.455555556,0.318518519,1,0,0,QQQ7,,,,,,,,English,2020-07-02_10h59.39.677,Experiment_English,3.2.4,Win32,60,,,1,0,340,76,1,339,ratio0Y_0_17_10.png,,,,,,,,,,,,
,,,,,,,,,,,,More than half,Most,None,Some,Few,Less than half,Half,Many,All,0.00462963,-0.261111111,1,0,0,QQQ6,,,,,,,,English,2020-07-02_10h59.39.677,Experiment_English,3.2.4,Win32,60,,,1,0,340,181,1,339,ratio23_2_5_6.png,,,,,,,,,,,,
,,,,,,,,,,,,Most,Many,Some,Few,None,Half,All,Less than half,More than half,-0.494444444,-0.251851852,1,0,0,QQQ9,,,,,,,,English,2020-07-02_10h59.39.677,Experiment_English,3.2.4,Win32,60,,,1,0,340,220,1,339,ratio32_3_5_1.png,,,,,,,,,,,,
,,,,,,,,,,,,Few,Less than half,Many,More than half,All,None,Half,Most,Some,0.490740741,0.375,1,0,0,QQQ1,,,,,,,,English,2020-07-02_10h59.39.677,Experiment_English,3.2.4,Win32,60,,,1,0,340,106,1,339,ratio14_2_10_2.png,,,,,,,,,,,,
,,,,,,,,,,,,All,More than half,Most,Less than half,Half,None,Few,Some,Many,-0.448148148,0.225,1,0,0,QQQ7,,,,,,,,English,2020-07-02_10h59.39.677,Experiment_English,3.2.4,Win32,60,,,1,0,340,121,1,339,ratio15_1_6_4.png,,,,,,,,,,,,
,,,,,,,,,,,,Some,Less than half,Half,Most,None,Few,More than half,Many,All,-0.444444444,-0.021296296,1,0,0,QQQ8,,,,,,,,English,2020-07-02_10h59.39.677,Experiment_English,3.2.4,Win32,60,,,1,0,340,304,1,339,ratio51_5_6_13.png,,,,,,,,,,,,
,,,,,,,,,,,,All,Most,Few,More than half,None,Half,Some,Many,Less than half,-0.407407407,-0.017592593,1,0,0,QQQ8,,,,,,,,English,2020-07-02_10h59.39.677,Experiment_English,3.2.4,Win32,60,,,1,0,340,289,1,339,ratio43_4_7_20.png,,,,,,,,,,,,
,,,,,,,,,,,,Many,More than half,Some,Less than half,None,Few,Most,All,Half,-0.02037037,0.30462963,1,0,0,QQQ4,,,,,,,,English,2020-07-02_10h59.39.677,Experiment_English,3.2.4,Win32,60,,,1,0,340,244,1,339,ratio34_3_7_9.png,,,,,,,,,,,,
,,,,,,,,,,,,Few,Some,Less than half,More than half,All,Half,None,Most,Many,0.009259259,-0.312037037,1,0,0,QQQ6,,,,,,,,English,2020-07-02_10h59.39.677,Experiment_English,3.2.4,Win32,60,,,1,0,340,21,1,339,ratio11_2_4_10.png,,,,,,,,,,,,
,,,,,,,,,,,,Less than half,None,Few,Most,Half,Some,More than half,All,Many,0.382407407,0.219444444,1,0,0,QQQ1,,,,,,,,English,2020-07-02_10h59.39.677,Experiment_English,3.2.4,Win32,60,,,1,0,340,113,1,339,ratio14_3_15_8.png,,,,,,,,,,,,
,,,,,,,,,,,,More than half,Some,Many,Half,Few,Less than half,None,Most,All,0.497222222,-0.219444444,1,0,0,QQQ3,,,,,,,,English,2020-07-02_10h59.39.677,Experiment_English,3.2.4,Win32,60,,,1,0,340,267,1,339,ratio41_8_10_4.png,,,,,,,,,,,,
,,,,,,,,,,,,Most,Many,Some,More than half,Few,All,None,Half,Less than half,-0.049074074,-0.075925926,1,0,0,QQQ5,,,,,,,,English,2020-07-02_10h59.39.677,Experiment_English,3.2.4,Win32,60,,,1,0,340,125,1,339,ratio15_1_6_19.png,,,,,,,,,,,,
,,,,,,,,,,,,Less than half,Half,Few,Some,None,More than half,Most,Many,All,-0.049074074,-0.075925926,1,0,0,QQQ5,,,,,,,,English,2020-07-02_10h59.39.677,Experiment_English,3.2.4,Win32,60,,,1,0,340,77,1,339,ratio0Y_0_18_3.png,,,,,,,,,,,,
,,,,,,,,,,,,Few,More than half,Some,Many,Less than half,Most,None,Half,All,0.526851852,0.252777778,1,0,0,QQQ1,,,,,,,,English,2020-07-02_10h59.39.677,Experiment_English,3.2.4,Win32,60,,,1,0,340,104,1,339,ratio14_1_5_10.png,,,,,,,,,,,,
,,,,,,,,,,,,Many,None,All,Some,More than half,Most,Few,Half,Less than half,-0.372222222,0.272222222,1,0,0,QQQ7,,,,,,,,English,2020-07-02_10h59.39.677,Experiment_English,3.2.4,Win32,60,,,1,0,340,150,1,339,ratio19_2_20_1.png,,,,,,,,,,,,
,,,,,,,,,,,,Most,Half,More than half,Some,All,Many,Less than half,Few,None,0.433333333,0.225,1,0,0,QQQ1,,,,,,,,English,2020-07-02_10h59.39.677,Experiment_English,3.2.4,Win32,60,,,1,0,340,252,1,339,ratio34_6_14_3.png,,,,,,,,,,,,
,,,,,,,,,,,,Less than half,Half,More than half,Some,All,Many,None,Most,Few,-0.410185185,-0.221296296,1,0,0,QQQ9,,,,,,,,English,2020-07-02_10h59.39.677,Experiment_English,3.2.4,Win32,60,,,1,0,340,14,1,339,ratio12_5_15_4.png,,,,,,,,,,,,
,,,,,,,,,,,,More than half,Some,Less than half,None,Few,All,Many,Half,Most,-0.537037037,-0.077777778,1,0,0,QQQ8,,,,,,,,English,2020-07-02_10h59.39.677,Experiment_English,3.2.4,Win32,60,,,1,0,340,195,1,339,ratio23_8_20_1.png,,,,,,,,,,,,
,,,,,,,,,,,,Many,None,Few,Less than half,Half,More than half,Some,Most,All,0.474074074,-0.259259259,1,0,0,QQQ3,,,,,,,,English,2020-07-02_10h59.39.677,Experiment_English,3.2.4,Win32,60,,,1,0,340,110,1,339,ratio14_3_15_2.png,,,,,,,,,,,,
,,,,,,,,,,,,Some,All,Less than half,Half,Few,Most,Many,More than half,None,-0.461111111,0.253703704,1,0,0,QQQ7,,,,,,,,English,2020-07-02_10h59.39.677,Experiment_English,3.2.4,Win32,60,,,1,0,340,277,1,339,ratio41_16_20_8.png,,,,,,,,,,,,
,,,,,,,,,,,,Less than half,More than half,Some,Half,Many,Most,None,Few,All,-0.121296296,0.008333333,1,0,0,QQQ5,,,,,,,,English,2020-07-02_10h59.39.677,Experiment_English,3.2.4,Win32,60,,,1,0,340,280,1,339,ratio43_4_7_2.png,,,,,,,,,,,,
,,,,,,,,,,,,Few,More than half,All,Less than half,Many,Most,Some,None,Half,0.442592593,0.232407407,1,0,0,QQQ1,,,,,,,,English,2020-07-02_10h59.39.677,Experiment_English,3.2.4,Win32,60,,,1,0,340,107,1,339,ratio14_2_10_5.png,,,,,,,,,,,,
,,,,,,,,,,,,Half,Less than half,Some,Most,None,Many,Few,More than half,All,0.053703704,0.250925926,1,0,0,QQQ4,,,,,,,,English,2020-07-02_10h59.39.677,Experiment_English,3.2.4,Win32,60,,,1,0,340,174,1,339,ratio21_10_15_1.png,,,,,,,,,,,,
,,,,,,,,,,,,Some,None,Few,Less than half,All,Most,Many,More than half,Half,-0.440740741,0.017592593,1,0,0,QQQ8,,,,,,,,English,2020-07-02_10h59.39.677,Experiment_English,3.2.4,Win32,60,,,1,0,340,223,1,339,ratio32_3_5_5.png,,,,,,,,,,,,
,,,,,,,,,,,,Few,Most,Less than half,None,Some,More than half,All,Half,Many,-0.412962963,0.025925926,1,0,0,QQQ8,,,,,,,,English,2020-07-02_10h59.39.677,Experiment_English,3.2.4,Win32,60,,,1,0,340,254,1,339,ratio34_6_14_9.png,,,,,,,,,,,,
,,,,,,,,,,,,Many,Some,Most,More than half,Less than half,Few,All,None,Half,-0.463888889,0.307407407,1,0,0,QQQ7,,,,,,,,English,2020-07-02_10h59.39.677,Experiment_English,3.2.4,Win32,60,,,1,0,340,51,1,339,ratioX0_12_12_9.png,,,,,,,,,,,,
,,,,,,,,,,,,Half,None,Few,Less than half,Some,Most,Many,All,More than half,-0.055555556,-0.258333333,1,0,0,QQQ6,,,,,,,,English,2020-07-02_10h59.39.677,Experiment_English,3.2.4,Win32,60,,,1,0,340,315,1,339,ratio51_15_18_10.png,,,,,,,,,,,,
,,,,,,,,,,,,All,Few,Some,None,Half,More than half,Less than half,Most,Many,0.464814815,-0.022222222,1,0,0,QQQ2,,,,,,,,English,2020-07-02_10h59.39.677,Experiment_English,3.2.4,Win32,60,,,1,0,340,133,1,339,ratio15_3_18_3.png,,,,,,,,,,,,
,,,,,,,,,,,,Few,More than half,Some,Most,Half,Many,Less than half,All,None,0.008333333,0.242592593,1,0,0,QQQ4,,,,,,,,English,2020-07-02_10h59.39.677,Experiment_English,3.2.4,Win32,60,,,1,0,340,329,1,339,ratio91_9_10_20.png,,,,,,,,,,,,
,,,,,,,,,,,,More than half,Few,Less than half,Half,All,None,Most,Some,Many,0.487037037,0.05,1,0,0,QQQ2,,,,,,,,English,2020-07-02_10h59.39.677,Experiment_English,3.2.4,Win32,60,,,1,0,340,143,1,339,ratio19_1_10_9.png,,,,,,,,,,,,
,,,,,,,,,,,,None,Less than half,More than half,All,Half,Many,Some,Most,Few,0.446296296,0.010185185,1,0,0,QQQ2,,,,,,,,English,2020-07-02_10h59.39.677,Experiment_English,3.2.4,Win32,60,,,1,0,340,15,1,339,ratio12_5_15_5.png,,,,,,,,,,,,
,,,,,,,,,,,,None,Less than half,Many,More than half,Few,Most,Half,All,Some,0.361111111,-0.255555556,1,0,0,QQQ3,,,,,,,,English,2020-07-02_10h59.39.677,Experiment_English,3.2.4,Win32,60,,,1,0,340,37,1,339,ratio11_9_18_8.png,,,,,,,,,,,,
,,,,,,,,,,,,More than half,Most,Some,Few,Many,Half,None,All,Less than half,0.142592593,-0.038888889,1,0,0,QQQ5,,,,,,,,English,2020-07-02_10h59.39.677,Experiment_English,3.2.4,Win32,60,,,1,0,340,312,1,339,ratio51_10_12_16.png,0.325925926,-0.389814815,1,0,0,continue_button_pause,1,0,1,0,1,0
,,,,,,,,,,,,,,,,,,,,,,,,,,,,,,,,,,English,2020-07-02_10h59.39.677,Experiment_English,3.2.4,Win32,60,,,1,0,340,312,1,339,ratio51_10_12_16.png,,,,,,,,,,,,
,,,,,,,,,,,,Half,Many,Most,All,Some,Less than half,More than half,Few,None,-0.511111111,0.093518519,1,0,0,QQQ8,,,,,,,,English,2020-07-02_10h59.39.677,Experiment_English,3.2.4,Win32,60,,,1,0,340,6,1,339,ratio12_3_9_1.png,,,,,,,,,,,,
,,,,,,,,,,,,Few,All,Most,Some,Many,Less than half,None,Half,More than half,-0.075,-0.048148148,1,0,0,QQQ5,,,,,,,,English,2020-07-02_10h59.39.677,Experiment_English,3.2.4,Win32,60,,,1,0,340,237,1,339,ratio32_12_20_5.png,,,,,,,,,,,,
,,,,,,,,,,,,Many,Half,Most,Less than half,None,All,More than half,Few,Some,-0.426851852,0.012962963,1,0,0,QQQ8,,,,,,,,English,2020-07-02_10h59.39.677,Experiment_English,3.2.4,Win32,60,,,1,0,340,119,1,339,ratio14_4_20_10.png,,,,,,,,,,,,
,,,,,,,,,,,,Some,Few,More than half,Many,Half,None,All,Less than half,Most,-0.40462963,-0.237037037,1,0,0,QQQ9,,,,,,,,English,2020-07-02_10h59.39.677,Experiment_English,3.2.4,Win32,60,,,1,0,340,295,1,339,ratio43_8_14_11.png,,,,,,,,,,,,
,,,,,,,,,,,,All,Less than half,More than half,Many,None,Most,Some,Few,Half,-0.099074074,-0.298148148,1,0,0,QQQ6,,,,,,,,English,2020-07-02_10h59.39.677,Experiment_English,3.2.4,Win32,60,,,1,0,340,320,1,339,ratio91_9_10_1.png,,,,,,,,,,,,
,,,,,,,,,,,,Half,Most,Less than half,Few,Some,Many,None,More than half,All,-0.473148148,0.218518519,1,0,0,QQQ7,,,,,,,,English,2020-07-02_10h59.39.677,Experiment_English,3.2.4,Win32,60,,,1,0,340,60,1,339,ratio0Y_0_3_5.png,,,,,,,,,,,,
,,,,,,,,,,,,Many,Most,All,Few,Half,Some,Less than half,None,More than half,0.355555556,0.052777778,1,0,0,QQQ2,,,,,,,,English,2020-07-02_10h59.39.677,Experiment_English,3.2.4,Win32,60,,,1,0,340,322,1,339,ratio91_9_10_3.png,,,,,,,,,,,,
,,,,,,,,,,,,More than half,Half,None,Some,Most,Less than half,Many,Few,All,-0.439814815,-0.082407407,1,0,0,QQQ8,,,,,,,,English,2020-07-02_10h59.39.677,Experiment_English,3.2.4,Win32,60,,,1,0,340,146,1,339,ratio19_1_10_17.png,,,,,,,,,,,,
,,,,,,,,,,,,Most,Less than half,All,None,Many,Few,Some,Half,More than half,0.4,-0.063888889,1,0,0,QQQ2,,,,,,,,English,2020-07-02_10h59.39.677,Experiment_English,3.2.4,Win32,60,,,1,0,340,185,1,339,ratio23_4_10_1.png,,,,,,,,,,,,
,,,,,,,,,,,,More than half,All,None,Some,Many,Less than half,Few,Half,Most,0.39537037,0.233333333,1,0,0,QQQ1,,,,,,,,English,2020-07-02_10h59.39.677,Experiment_English,3.2.4,Win32,60,,,1,0,340,226,1,339,ratio32_6_10_5.png,,,,,,,,,,,,
,,,,,,,,,,,,Few,Most,All,Half,Less than half,Many,Some,More than half,None,0.524074074,0.022222222,1,0,0,QQQ2,,,,,,,,English,2020-07-02_10h59.39.677,Experiment_English,3.2.4,Win32,60,,,1,0,340,303,1,339,ratio51_5_6_6.png,,,,,,,,,,,,
,,,,,,,,,,,,Less than half,Half,Most,More than half,Some,Few,All,None,Many,0.386111111,-0.277777778,1,0,0,QQQ3,,,,,,,,English,2020-07-02_10h59.39.677,Experiment_English,3.2.4,Win32,60,,,1,0,340,120,1,339,ratio15_1_6_1.png,,,,,,,,,,,,
,,,,,,,,,,,,More than half,Many,None,Less than half,Half,Some,All,Few,Most,-0.449074074,-0.026851852,1,0,0,QQQ8,,,,,,,,English,2020-07-02_10h59.39.677,Experiment_English,3.2.4,Win32,60,,,1,0,340,111,1,339,ratio14_3_15_3.png,,,,,,,,,,,,
,,,,,,,,,,,,Many,All,Few,Most,None,Less than half,More than half,Half,Some,0.47037037,-0.269444444,1,0,0,QQQ3,,,,,,,,English,2020-07-02_10h59.39.677,Experiment_English,3.2.4,Win32,60,,,1,0,340,157,1,339,ratio19_2_20_16.png,,,,,,,,,,,,
,,,,,,,,,,,,Few,More than half,None,All,Many,Less than half,Most,Some,Half,0.513888889,0.215740741,1,0,0,QQQ1,,,,,,,,English,2020-07-02_10h59.39.677,Experiment_English,3.2.4,Win32,60,,,1,0,340,152,1,339,ratio19_2_20_6.png,,,,,,,,,,,,
,,,,,,,,,,,,More than half,None,Most,Less than half,Few,Some,Many,Half,All,-0.00462963,0.310185185,1,0,0,QQQ4,,,,,,,,English,2020-07-02_10h59.39.677,Experiment_English,3.2.4,Win32,60,,,1,0,340,12,1,339,ratio12_4_12_10.png,,,,,,,,,,,,
,,,,,,,,,,,,All,Few,None,Less than half,Some,Many,Half,Most,More than half,-0.443518519,0.236111111,1,0,0,QQQ7,,,,,,,,English,2020-07-02_10h59.39.677,Experiment_English,3.2.4,Win32,60,,,1,0,340,251,1,339,ratio34_6_14_2.png,,,,,,,,,,,,
,,,,,,,,,,,,Less than half,Few,More than half,Some,All,None,Half,Many,Most,0.416666667,-0.031481481,1,0,0,QQQ2,,,,,,,,English,2020-07-02_10h59.39.677,Experiment_English,3.2.4,Win32,60,,,1,0,340,2,1,339,ratio12_1_3_10.png,,,,,,,,,,,,
,,,,,,,,,,,,Most,Many,None,Some,Few,All,Half,More than half,Less than half,0.378703704,0.246296296,1,0,0,QQQ1,,,,,,,,English,2020-07-02_10h59.39.677,Experiment_English,3.2.4,Win32,60,,,1,0,340,202,1,339,ratio31_3_4_8.png,,,,,,,,,,,,
,,,,,,,,,,,,Half,Less than half,Some,Few,More than half,All,Most,None,Many,0.082407407,-0.366666667,1,0,0,QQQ6,,,,,,,,English,2020-07-02_10h59.39.677,Experiment_English,3.2.4,Win32,60,,,1,0,340,52,1,339,ratioX0_13_13_10.png,,,,,,,,,,,,
,,,,,,,,,,,,All,Some,Half,None,Most,Many,More than half,Few,Less than half,-0.369444444,-0.076851852,1,0,0,QQQ8,,,,,,,,English,2020-07-02_10h59.39.677,Experiment_English,3.2.4,Win32,60,,,1,0,340,140,1,339,ratio19_1_10_1.png,,,,,,,,,,,,
,,,,,,,,,,,,More than half,Some,None,Half,Less than half,Many,Few,Most,All,0.043518519,-0.256481481,1,0,0,QQQ6,,,,,,,,English,2020-07-02_10h59.39.677,Experiment_English,3.2.4,Win32,60,,,1,0,340,275,1,339,ratio41_16_20_2.png,,,,,,,,,,,,
,,,,,,,,,,,,Many,Most,None,All,Half,More than half,Some,Less than half,Few,-0.006481481,0.287962963,1,0,0,QQQ4,,,,,,,,English,2020-07-02_10h59.39.677,Experiment_English,3.2.4,Win32,60,,,1,0,340,49,1,339,ratioX0_11_11_2.png,,,,,,,,,,,,
,,,,,,,,,,,,All,Less than half,Most,None,Few,Many,Some,Half,More than half,0.035185185,-0.030555556,1,0,0,QQQ5,,,,,,,,English,2020-07-02_10h59.39.677,Experiment_English,3.2.4,Win32,60,,,1,0,340,10,1,339,ratio12_4_12_4.png,,,,,,,,,,,,
,,,,,,,,,,,,Less than half,Some,Most,Half,More than half,All,Many,None,Few,0.081481481,0.002777778,1,0,0,QQQ5,,,,,,,,English,2020-07-02_10h59.39.677,Experiment_English,3.2.4,Win32,60,,,1,0,340,234,1,339,ratio32_9_15_10.png,,,,,,,,,,,,
,,,,,,,,,,,,Most,Many,All,Few,Some,None,More than half,Half,Less than half,0.053703704,0.010185185,1,0,0,QQQ5,,,,,,,,English,2020-07-02_10h59.39.677,Experiment_English,3.2.4,Win32,60,,,1,0,340,268,1,339,ratio41_8_10_5.png,,,,,,,,,,,,
,,,,,,,,,,,,Most,Half,Few,Less than half,More than half,Some,All,None,Many,-0.087962963,-0.264814815,1,0,0,QQQ6,,,,,,,,English,2020-07-02_10h59.39.677,Experiment_English,3.2.4,Win32,60,,,1,0,340,35,1,339,ratio11_8_16_10.png,,,,,,,,,,,,
,,,,,,,,,,,,Half,Many,Some,Few,All,More than half,Less than half,None,Most,0.012962963,-0.051851852,1,0,0,QQQ5,,,,,,,,English,2020-07-02_10h59.39.677,Experiment_English,3.2.4,Win32,60,,,1,0,340,59,1,339,ratioX0_20_20_9.png,,,,,,,,,,,,
,,,,,,,,,,,,Less than half,Most,More than half,Many,Half,Some,All,Few,None,0.5,0.251851852,1,0,0,QQQ1,,,,,,,,English,2020-07-02_10h59.39.677,Experiment_English,3.2.4,Win32,60,,,1,0,340,8,1,339,ratio12_3_9_4.png,,,,,,,,,,,,
,,,,,,,,,,,,Few,Half,None,More than half,Less than half,All,Some,Many,Most,0.471296296,0.247222222,1,0,0,QQQ1,,,,,,,,English,2020-07-02_10h59.39.677,Experiment_English,3.2.4,Win32,60,,,1,0,340,151,1,339,ratio19_2_20_4.png,,,,,,,,,,,,
,,,,,,,,,,,,Most,More than half,All,Few,Some,Less than half,Many,None,Half,-0.493518519,-0.381481481,1,0,0,QQQ9,,,,,,,,English,2020-07-02_10h59.39.677,Experiment_English,3.2.4,Win32,60,,,1,0,340,24,1,339,ratio11_4_8_3.png,,,,,,,,,,,,
,,,,,,,,,,,,Some,Few,Less than half,Most,Half,All,Many,None,More than half,-0.384259259,0.325925926,1,0,0,QQQ7,,,,,,,,English,2020-07-02_10h59.39.677,Experiment_English,3.2.4,Win32,60,,,1,0,340,307,1,339,ratio51_10_12_1.png,,,,,,,,,,,,
,,,,,,,,,,,,All,More than half,Less than half,Many,Half,Few,None,Most,Some,0.064814815,-0.322222222,1,0,0,QQQ6,,,,,,,,English,2020-07-02_10h59.39.677,Experiment_English,3.2.4,Win32,60,,,1,0,340,138,1,339,ratio15_3_18_17.png,,,,,,,,,,,,
,,,,,,,,,,,,Half,All,Most,Less than half,Many,Few,Some,More than half,None,0.082407407,-0.007407407,1,0,0,QQQ5,,,,,,,,English,2020-07-02_10h59.39.677,Experiment_English,3.2.4,Win32,60,,,1,0,340,235,1,339,ratio32_12_20_1.png,0.233333333,-0.388888889,1,0,0,continue_button_pause,1,0,1,0,1,0
,,,,,,,,,,,,,,,,,,,,,,,,,,,,,,,,,,English,2020-07-02_10h59.39.677,Experiment_English,3.2.4,Win32,60,,,1,0,340,235,1,339,ratio32_12_20_1.png,,,,,,,,,,,,
,,,,,,,,,,,,More than half,Many,Some,None,Few,All,Half,Less than half,Most,0.54537037,-0.047222222,1,0,0,QQQ2,,,,,,,,English,2020-07-02_10h59.39.677,Experiment_English,3.2.4,Win32,60,,,1,0,340,208,1,339,ratio31_9_12_3.png,,,,,,,,,,,,
,,,,,,,,,,,,Most,Few,Less than half,Some,More than half,None,Many,Half,All,0.402777778,0.007407407,1,0,0,QQQ2,,,,,,,,English,2020-07-02_10h59.39.677,Experiment_English,3.2.4,Win32,60,,,1,0,340,153,1,339,ratio19_2_20_8.png,,,,,,,,,,,,
,,,,,,,,,,,,Less than half,Many,None,Few,More than half,Most,Some,All,Half,0.040740741,-0.215740741,1,0,0,QQQ6,,,,,,,,English,2020-07-02_10h59.39.677,Experiment_English,3.2.4,Win32,60,,,1,0,340,337,1,339,ratio91_18_20_16.png,,,,,,,,,,,,
,,,,,,,,,,,,Less than half,Few,Many,Half,Most,None,More than half,All,Some,0.009259259,0.282407407,1,0,0,QQQ4,,,,,,,,English,2020-07-02_10h59.39.677,Experiment_English,3.2.4,Win32,60,,,1,0,340,283,1,339,ratio43_4_7_8.png,,,,,,,,,,,,
,,,,,,,,,,,,Some,Many,Few,Half,Most,All,None,Less than half,More than half,0.025,0.012962963,1,0,0,QQQ5,,,,,,,,English,2020-07-02_10h59.39.677,Experiment_English,3.2.4,Win32,60,,,1,0,340,200,1,339,ratio31_3_4_4.png,,,,,,,,,,,,
,,,,,,,,,,,,None,Most,All,More than half,Many,Few,Some,Less than half,Half,0.576851852,-0.335185185,1,0,0,QQQ3,,,,,,,,English,2020-07-02_10h59.39.677,Experiment_English,3.2.4,Win32,60,,,1,0,340,40,1,339,ratioX0_3_3_5.png,,,,,,,,,,,,
,,,,,,,,,,,,Less than half,Most,Half,Some,Few,None,Many,More than half,All,-0.374074074,-0.235185185,1,0,0,QQQ9,,,,,,,,English,2020-07-02_10h59.39.677,Experiment_English,3.2.4,Win32,60,,,1,0,340,61,1,339,ratio0Y_0_4_7.png,,,,,,,,,,,,
,,,,,,,,,,,,Most,Few,Some,Half,Less than half,All,None,More than half,Many,0.531481481,-0.05,1,0,0,QQQ2,,,,,,,,English,2020-07-02_10h59.39.677,Experiment_English,3.2.4,Win32,60,,,1,0,340,126,1,339,ratio15_2_12_1.png,,,,,,,,,,,,
,,,,,,,,,,,,All,Many,Few,None,More than half,Half,Less than half,Most,Some,-0.389814815,-0.075,1,0,0,QQQ8,,,,,,,,English,2020-07-02_10h59.39.677,Experiment_English,3.2.4,Win32,60,,,1,0,340,330,1,339,ratio91_18_20_2.png,,,,,,,,,,,,
,,,,,,,,,,,,More than half,Few,Less than half,All,Most,Many,None,Some,Half,0.075,0.008333333,1,0,0,QQQ5,,,,,,,,English,2020-07-02_10h59.39.677,Experiment_English,3.2.4,Win32,60,,,1,0,340,309,1,339,ratio51_10_12_10.png,,,,,,,,,,,,
,,,,,,,,,,,,Half,All,Some,Less than half,Few,Many,None,More than half,Most,-0.436111111,-0.250925926,1,0,0,QQQ9,,,,,,,,English,2020-07-02_10h59.39.677,Experiment_English,3.2.4,Win32,60,,,1,0,340,325,1,339,ratio91_9_10_8.png,,,,,,,,,,,,
,,,,,,,,,,,,None,More than half,Most,Some,Few,Half,Many,All,Less than half,0.414814815,-0.216666667,1,0,0,QQQ3,,,,,,,,English,2020-07-02_10h59.39.677,Experiment_English,3.2.4,Win32,60,,,1,0,340,219,1,339,ratio31_15_20_10.png,,,,,,,,,,,,
,,,,,,,,,,,,Less than half,None,Most,All,More than half,Few,Many,Some,Half,0.387037037,-0.016666667,1,0,0,QQQ2,,,,,,,,English,2020-07-02_10h59.39.677,Experiment_English,3.2.4,Win32,60,,,1,0,340,75,1,339,ratio0Y_0_16_10.png,,,,,,,,,,,,
,,,,,,,,,,,,Half,Many,Most,All,None,Some,Less than half,More than half,Few,-0.084259259,0.300925926,1,0,0,QQQ4,,,,,,,,English,2020-07-02_10h59.39.677,Experiment_English,3.2.4,Win32,60,,,1,0,340,56,1,339,ratioX0_17_17_10.png,,,,,,,,,,,,
,,,,,,,,,,,,None,Most,All,Many,Half,Few,More than half,Some,Less than half,0.443518519,-0.087962963,1,0,0,QQQ2,,,,,,,,English,2020-07-02_10h59.39.677,Experiment_English,3.2.4,Win32,60,,,1,0,340,264,1,339,ratio41_4_5_6.png,,,,,,,,,,,,
,,,,,,,,,,,,Half,Less than half,Some,More than half,All,Most,None,Many,Few,0.414814815,0.251851852,1,0,0,QQQ1,,,,,,,,English,2020-07-02_10h59.39.677,Experiment_English,3.2.4,Win32,60,,,1,0,340,250,1,339,ratio34_6_14_1.png,,,,,,,,,,,,
,,,,,,,,,,,,None,All,Less than half,Some,Few,Many,Half,Most,More than half,0.376851852,0.259259259,1,0,0,QQQ1,,,,,,,,English,2020-07-02_10h59.39.677,Experiment_English,3.2.4,Win32,60,,,1,0,340,63,1,339,ratio0Y_0_6_8.png,,,,,,,,,,,,
,,,,,,,,,,,,Many,Most,Few,All,Some,Less than half,Half,More than half,None,0.07037037,-0.005555556,1,0,0,QQQ5,,,,,,,,English,2020-07-02_10h59.39.677,Experiment_English,3.2.4,Win32,60,,,1,0,340,13,1,339,ratio12_5_15_3.png,,,,,,,,,,,,
,,,,,,,,,,,,Half,More than half,Most,Some,None,All,Few,Less than half,Many,-0.398148148,-0.24537037,1,0,0,QQQ9,,,,,,,,English,2020-07-02_10h59.39.677,Experiment_English,3.2.4,Win32,60,,,1,0,340,198,1,339,ratio23_8_20_7.png,,,,,,,,,,,,
,,,,,,,,,,,,All,More than half,Some,Few,Many,None,Most,Half,Less than half,0.024074074,-0.07037037,1,0,0,QQQ5,,,,,,,,English,2020-07-02_10h59.39.677,Experiment_English,3.2.4,Win32,60,,,1,0,340,327,1,339,ratio91_9_10_11.png,,,,,,,,,,,,
,,,,,,,,,,,,More than half,Less than half,Many,Some,None,Few,Half,Most,All,0.401851852,0.211111111,1,0,0,QQQ1,,,,,,,,English,2020-07-02_10h59.39.677,Experiment_English,3.2.4,Win32,60,,,1,0,340,233,1,339,ratio32_9_15_9.png,,,,,,,,,,,,
,,,,,,,,,,,,More than half,None,All,Half,Many,Some,Less than half,Most,Few,-0.003703704,-0.024074074,1,0,0,QQQ5,,,,,,,,English,2020-07-02_10h59.39.677,Experiment_English,3.2.4,Win32,60,,,1,0,340,232,1,339,ratio32_9_15_8.png,,,,,,,,,,,,
,,,,,,,,,,,,Half,Many,Most,Some,More than half,Less than half,All,None,Few,0.444444444,-0.231481481,1,0,0,QQQ3,,,,,,,,English,2020-07-02_10h59.39.677,Experiment_English,3.2.4,Win32,60,,,1,0,340,317,1,339,ratio51_15_18_13.png,,,,,,,,,,,,
,,,,,,,,,,,,None,Half,More than half,Most,All,Few,Many,Less than half,Some,0.442592593,0.307407407,1,0,0,QQQ1,,,,,,,,English,2020-07-02_10h59.39.677,Experiment_English,3.2.4,Win32,60,,,1,0,340,66,1,339,ratio0Y_0_9_8.png,,,,,,,,,,,,
,,,,,,,,,,,,Less than half,Most,All,Many,Few,Half,None,More than half,Some,-0.000925926,-0.289814815,1,0,0,QQQ6,,,,,,,,English,2020-07-02_10h59.39.677,Experiment_English,3.2.4,Win32,60,,,1,0,340,186,1,339,ratio23_4_10_2.png,,,,,,,,,,,,
,,,,,,,,,,,,None,Half,Some,Few,Many,Most,Less than half,All,More than half,-0.468518519,0.232407407,1,0,0,QQQ7,,,,,,,,English,2020-07-02_10h59.39.677,Experiment_English,3.2.4,Win32,60,,,1,0,340,83,1,339,ratio13_1_4_10.png,,,,,,,,,,,,
,,,,,,,,,,,,More than half,All,Few,Many,Most,None,Less than half,Some,Half,0.124074074,-0.000925926,1,0,0,QQQ5,,,,,,,,English,2020-07-02_10h59.39.677,Experiment_English,3.2.4,Win32,60,,,1,0,340,168,1,339,ratio21_6_9_3.png,,,,,,,,,,,,
,,,,,,,,,,,,None,Few,Many,More than half,All,Most,Some,Less than half,Half,-0.537962963,-0.012962963,1,0,0,QQQ8,,,,,,,,English,2020-07-02_10h59.39.677,Experiment_English,3.2.4,Win32,60,,,1,0,340,241,1,339,ratio34_3_7_5.png,,,,,,,,,,,,
,,,,,,,,,,,,Less than half,Many,All,More than half,Half,Most,Some,Few,None,0.399074074,0.268518519,1,0,0,QQQ1,,,,,,,,English,2020-07-02_10h59.39.677,Experiment_English,3.2.4,Win32,60,,,1,0,340,257,1,339,ratio34_6_14_12.png,,,,,,,,,,,,
,,,,,,,,,,,,Most,More than half,All,Few,Many,Half,Less than half,None,Some,0.103703704,0.227777778,1,0,0,QQQ4,,,,,,,,English,2020-07-02_10h59.39.677,Experiment_English,3.2.4,Win32,60,,,1,0,340,82,1,339,ratio13_1_4_7.png,,,,,,,,,,,,
,,,,,,,,,,,,Few,Most,More than half,Many,Half,None,Less than half,Some,All,-0.459259259,-0.244444444,1,0,0,QQQ9,,,,,,,,English,2020-07-02_10h59.39.677,Experiment_English,3.2.4,Win32,60,,,1,0,340,41,1,339,ratioX0_4_4_9.png,,,,,,,,,,,,
,,,,,,,,,,,,Few,Some,More than half,Most,None,Less than half,Half,Many,All,0.349074074,0.206481481,1,0,0,QQQ1,,,,,,,,English,2020-07-02_10h59.39.677,Experiment_English,3.2.4,Win32,60,,,1,0,340,156,1,339,ratio19_2_20_14.png,,,,,,,,,,,,
,,,,,,,,,,,,More than half,All,None,Half,Less than half,Most,Many,Some,Few,-0.04537037,-0.222222222,1,0,0,QQQ6,,,,,,,,English,2020-07-02_10h59.39.677,Experiment_English,3.2.4,Win32,60,,,1,0,340,217,1,339,ratio31_15_20_5.png,,,,,,,,,,,,
,,,,,,,,,,,,All,Few,None,Many,More than half,Some,Half,Most,Less than half,0.462037037,-0.294444444,1,0,0,QQQ3,,,,,,,,English,2020-07-02_10h59.39.677,Experiment_English,3.2.4,Win32,60,,,1,0,340,70,1,339,ratio0Y_0_12_5.png,,,,,,,,,,,,
