continue_mouse.x,continue_mouse.y,continue_mouse.leftButton,continue_mouse.midButton,continue_mouse.rightButton,continue_mouse.clicked_name,continue_mouse_2.x,continue_mouse_2.y,continue_mouse_2.leftButton,continue_mouse_2.midButton,continue_mouse_2.rightButton,continue_mouse_2.clicked_name,Q1,Q2,Q3,Q4,Q5,Q6,Q7,Q8,Q9,select_answer.x,select_answer.y,select_answer.leftButton,select_answer.midButton,select_answer.rightButton,select_answer.clicked_name,trial.thisRepN,trial.thisTrialN,trial.thisN,trial.thisIndex,trial.ran,trial.order,trials,Native tongue*,date,expName,psychopyVersion,OS,frameRate,key_resp.keys,key_resp.rt,Actual_Experiment.thisRepN,Actual_Experiment.thisTrialN,Actual_Experiment.thisN,Actual_Experiment.thisIndex,Actual_Experiment.ran,Actual_Experiment.order,Pic,mouse_pause.x,mouse_pause.y,mouse_pause.leftButton,mouse_pause.midButton,mouse_pause.rightButton,mouse_pause.clicked_name,pause.thisRepN,pause.thisTrialN,pause.thisN,pause.thisIndex,pause.ran,pause.order
0.353703722,-0.392592606,1,0,0,continue_button,0.328703722,-0.425000014,1,0,0,continue_button_2,Some,Few,None,Less than half,Most,Half,More than half,Many,All,0.419444464,0.271296293,1,0,0,QQQ1,1,0,16,14,1,15,ratio11_5_10_6.png,English,2020-06-16_10h51.43.751,Experiment_English,3.2.4,Win32,60,,,,,,,,,,,,,,,,,,,,,
,,,,,,,,,,,,Some,Most,Many,Less than half,All,Few,Half,None,More than half,0.39074076,0.243518515,1,0,0,QQQ1,1,0,16,4,1,15,ratio34_3_7_3.png,English,2020-06-16_10h51.43.751,Experiment_English,3.2.4,Win32,60,,,,,,,,,,,,,,,,,,,,,
,,,,,,,,,,,,Few,All,More than half,None,Less than half,Some,Most,Many,Half,0.428703723,0.297222219,1,0,0,QQQ1,1,0,16,5,1,15,ratio32_6_10_2.png,English,2020-06-16_10h51.43.751,Experiment_English,3.2.4,Win32,60,,,,,,,,,,,,,,,,,,,,,
,,,,,,,,,,,,Most,Some,Many,More than half,Few,Less than half,All,Half,None,0.402777797,-0.343518531,1,0,0,QQQ3,1,0,16,6,1,15,ratio31_12_16_7.png,English,2020-06-16_10h51.43.751,Experiment_English,3.2.4,Win32,60,,,,,,,,,,,,,,,,,,,,,
,,,,,,,,,,,,Half,Most,Less than half,Some,None,All,More than half,Many,Few,-0.385185178,-0.218518529,1,0,0,QQQ9,1,0,16,9,1,15,ratio19_1_10_8.png,English,2020-06-16_10h51.43.751,Experiment_English,3.2.4,Win32,60,,,,,,,,,,,,,,,,,,,,,
,,,,,,,,,,,,Less than half,More than half,Some,All,None,Most,Few,Half,Many,0.438889022,0.018518511,1,0,0,QQQ2,,,,,,,,English,2020-06-16_10h51.43.751,Experiment_English,3.2.4,Win32,60,b,25.32800007,1,0,340,244,1,339,ratio34_3_7_9.png,,,,,,,,,,,,
,,,,,,,,,,,,Less than half,Most,None,All,Half,Many,Few,Some,More than half,-0.055555543,-0.33240742,1,0,0,QQQ6,,,,,,,,English,2020-06-16_10h51.43.751,Experiment_English,3.2.4,Win32,60,,,1,0,340,99,1,339,ratio13_5_20_4.png,,,,,,,,,,,,
,,,,,,,,,,,,Some,Half,Most,All,Few,None,Less than half,Many,More than half,-0.359259251,-0.2638889,1,0,0,QQQ9,,,,,,,,English,2020-06-16_10h51.43.751,Experiment_English,3.2.4,Win32,60,,,1,0,340,165,1,339,ratio21_4_6_10.png,,,,,,,,,,,,
,,,,,,,,,,,,Half,Some,Less than half,Most,Many,Few,More than half,All,None,0.350926057,0.026851817,1,0,0,QQQ2,,,,,,,,English,2020-06-16_10h51.43.751,Experiment_English,3.2.4,Win32,60,,,1,0,340,28,1,339,ratio11_5_10_9.png,,,,,,,,,,,,
,,,,,,,,,,,,All,Less than half,Half,Few,Many,Some,Most,More than half,None,-0.470370364,0.300925923,1,0,0,QQQ7,,,,,,,,English,2020-06-16_10h51.43.751,Experiment_English,3.2.4,Win32,60,,,1,0,340,39,1,339,ratio11_10_20_6.png,,,,,,,,,,,,
,,,,,,,,,,,,All,More than half,Half,Some,Most,None,Many,Few,Less than half,-0.397222215,-0.020370378,1,0,0,QQQ8,,,,,,,,English,2020-06-16_10h51.43.751,Experiment_English,3.2.4,Win32,60,,,1,0,340,98,1,339,ratio13_5_20_3.png,,,,,,,,,,,,
,,,,,,,,,,,,Many,Most,Less than half,Few,More than half,None,Half,Some,All,-0.402777771,-0.002777785,1,0,0,QQQ8,,,,,,,,English,2020-06-16_10h51.43.751,Experiment_English,3.2.4,Win32,60,,,1,0,340,280,1,339,ratio43_4_7_2.png,,,,,,,,,,,,
,,,,,,,,,,,,Some,All,Less than half,Many,Few,None,Half,More than half,Most,0.432407427,-0.012962971,1,0,0,QQQ2,,,,,,,,English,2020-06-16_10h51.43.751,Experiment_English,3.2.4,Win32,60,,,1,0,340,43,1,339,ratioX0_6_6_9.png,,,,,,,,,,,,
,,,,,,,,,,,,None,Less than half,Few,Half,More than half,Some,Most,All,Many,-0.403703696,0.29259259,1,0,0,QQQ7,,,,,,,,English,2020-06-16_10h51.43.751,Experiment_English,3.2.4,Win32,60,,,1,0,340,229,1,339,ratio32_6_10_9.png,,,,,,,,,,,,
,,,,,,,,,,,,Less than half,All,Half,None,Few,Many,More than half,Some,Most,-0.384259252,0.285185182,1,0,0,QQQ7,,,,,,,,English,2020-06-16_10h51.43.751,Experiment_English,3.2.4,Win32,60,,,1,0,340,260,1,339,ratio41_4_5_2.png,,,,,,,,,,,,
,,,,,,,,,,,,Most,More than half,Many,Less than half,None,Few,Some,All,Half,0.428703723,-0.284259327,1,0,0,QQQ3,,,,,,,,English,2020-06-16_10h51.43.751,Experiment_English,3.2.4,Win32,60,,,1,0,340,35,1,339,ratio11_8_16_10.png,,,,,,,,,,,,
,,,,,,,,,,,,All,Some,Less than half,None,Half,Many,Few,Most,More than half,0.437962983,0.28796296,1,0,0,QQQ1,,,,,,,,English,2020-06-16_10h51.43.751,Experiment_English,3.2.4,Win32,60,,,1,0,340,45,1,339,ratioX0_8_8_3.png,,,,,,,,,,,,
,,,,,,,,,,,,Few,Half,More than half,Many,Less than half,None,Some,All,Most,-0.555555551,-0.253703715,1,0,0,QQQ9,,,,,,,,English,2020-06-16_10h51.43.751,Experiment_English,3.2.4,Win32,60,,,1,0,340,169,1,339,ratio21_6_9_7.png,,,,,,,,,,,,
,,,,,,,,,,,,None,Many,Some,Half,More than half,Most,Few,Less than half,All,-0.00833332,-0.265740809,1,0,0,QQQ6,,,,,,,,English,2020-06-16_10h51.43.751,Experiment_English,3.2.4,Win32,60,,,1,0,340,176,1,339,ratio21_10_15_3.png,,,,,,,,,,,,
,,,,,,,,,,,,Some,None,Less than half,Few,More than half,Most,Many,All,Half,0.066666681,0.223148144,1,0,0,QQQ4,,,,,,,,English,2020-06-16_10h51.43.751,Experiment_English,3.2.4,Win32,60,,,1,0,340,157,1,339,ratio19_2_20_16.png,,,,,,,,,,,,
,,,,,,,,,,,,Less than half,Most,Many,More than half,Half,All,None,Few,Some,-0.368518511,-7.4558E-09,1,0,0,QQQ8,,,,,,,,English,2020-06-16_10h51.43.751,Experiment_English,3.2.4,Win32,60,,,1,0,340,105,1,339,ratio14_2_10_1.png,,,,,,,,,,,,
,,,,,,,,,,,,Many,Some,All,None,Half,Less than half,More than half,Few,Most,-0.357407399,-0.24259266,1,0,0,QQQ9,,,,,,,,English,2020-06-16_10h51.43.751,Experiment_English,3.2.4,Win32,60,,,1,0,340,307,1,339,ratio51_10_12_1.png,,,,,,,,,,,,
,,,,,,,,,,,,Most,More than half,Many,Half,Less than half,All,Few,Some,None,-0.365740733,0.294444441,1,0,0,QQQ7,,,,,,,,English,2020-06-16_10h51.43.751,Experiment_English,3.2.4,Win32,60,,,1,0,340,150,1,339,ratio19_2_20_1.png,,,,,,,,,,,,
,,,,,,,,,,,,All,Most,Few,More than half,Half,Many,Some,None,Less than half,0.069444459,-0.036111119,1,0,0,QQQ5,,,,,,,,English,2020-06-16_10h51.43.751,Experiment_English,3.2.4,Win32,60,,,1,0,340,8,1,339,ratio12_3_9_4.png,,,,,,,,,,,,
,,,,,,,,,,,,More than half,Most,Half,All,None,Some,Many,Less than half,Few,0.116666682,0.270370353,1,0,0,QQQ4,,,,,,,,English,2020-06-16_10h51.43.751,Experiment_English,3.2.4,Win32,60,,,1,0,340,46,1,339,ratioX0_9_9_3.png,,,,,,,,,,,,
,,,,,,,,,,,,Half,Less than half,Most,None,Few,Many,Some,All,More than half,0.370370389,-0.270370438,1,0,0,QQQ3,,,,,,,,English,2020-06-16_10h51.43.751,Experiment_English,3.2.4,Win32,60,,,1,0,340,326,1,339,ratio91_9_10_10.png,,,,,,,,,,,,
,,,,,,,,,,,,Few,All,Some,None,Half,More than half,Most,Many,Less than half,-0.094444433,-0.24259266,1,0,0,QQQ6,,,,,,,,English,2020-06-16_10h51.43.751,Experiment_English,3.2.4,Win32,60,,,1,0,340,289,1,339,ratio43_4_7_20.png,,,,,,,,,,,,
,,,,,,,,,,,,Few,Less than half,None,Some,All,More than half,Most,Half,Many,-0.356481474,-0.278703715,1,0,0,QQQ9,,,,,,,,English,2020-06-16_10h51.43.751,Experiment_English,3.2.4,Win32,60,,,1,0,340,14,1,339,ratio12_5_15_4.png,,,,,,,,,,,,
,,,,,,,,,,,,Few,Some,Less than half,Many,More than half,Most,Half,All,None,0.353703722,0.237037033,1,0,0,QQQ1,,,,,,,,English,2020-06-16_10h51.43.751,Experiment_English,3.2.4,Win32,60,,,1,0,340,40,1,339,ratioX0_3_3_5.png,,,,,,,,,,,,
,,,,,,,,,,,,More than half,Most,All,Half,None,Few,Some,Less than half,Many,-0.448148113,-0.311111123,1,0,0,QQQ9,,,,,,,,English,2020-06-16_10h51.43.751,Experiment_English,3.2.4,Win32,60,,,1,0,340,315,1,339,ratio51_15_18_10.png,,,,,,,,,,,,
,,,,,,,,,,,,Half,More than half,All,Less than half,Some,Many,None,Few,Most,0.120370385,0.005555548,1,0,0,QQQ5,,,,,,,,English,2020-06-16_10h51.43.751,Experiment_English,3.2.4,Win32,60,,,1,0,340,240,1,339,ratio34_3_7_4.png,,,,,,,,,,,,
,,,,,,,,,,,,All,Many,Most,None,Some,Few,Less than half,More than half,Half,0.377777797,-0.036111119,1,0,0,QQQ2,,,,,,,,English,2020-06-16_10h51.43.751,Experiment_English,3.2.4,Win32,60,,,1,0,340,252,1,339,ratio34_6_14_3.png,,,,,,,,,,,,
,,,,,,,,,,,,Few,More than half,Many,All,Half,Most,Some,Less than half,None,0.410185205,0.280555552,1,0,0,QQQ1,,,,,,,,English,2020-06-16_10h51.43.751,Experiment_English,3.2.4,Win32,60,,,1,0,340,129,1,339,ratio15_2_12_9.png,,,,,,,,,,,,
,,,,,,,,,,,,Most,Few,Less than half,Many,None,Half,More than half,All,Some,-0.011111098,-0.286111123,1,0,0,QQQ6,,,,,,,,English,2020-06-16_10h51.43.751,Experiment_English,3.2.4,Win32,60,,,1,0,340,23,1,339,ratio11_3_6_9.png,,,,,,,,,,,,
,,,,,,,,,,,,Most,Less than half,Some,All,Many,None,More than half,Few,Half,0.523148169,0.355555553,1,0,0,QQQ1,,,,,,,,English,2020-06-16_10h51.43.751,Experiment_English,3.2.4,Win32,60,,,1,0,340,330,1,339,ratio91_18_20_2.png,,,,,,,,,,,,
,,,,,,,,,,,,More than half,Many,Few,Less than half,None,Most,Some,All,Half,0.346296428,-0.000925933,1,0,0,QQQ2,,,,,,,,English,2020-06-16_10h51.43.751,Experiment_English,3.2.4,Win32,60,,,1,0,340,197,1,339,ratio23_8_20_6.png,,,,,,,,,,,,
,,,,,,,,,,,,Less than half,Many,More than half,Few,All,Some,None,Most,Half,-0.145370359,0.263888885,1,0,0,QQQ4,,,,,,,,English,2020-06-16_10h51.43.751,Experiment_English,3.2.4,Win32,60,,,1,0,340,149,1,339,ratio19_1_10_20.png,,,,,,,,,,,,
,,,,,,,,,,,,Less than half,None,Many,More than half,Few,Most,All,Half,Some,-0.092592581,-0.288888957,1,0,0,QQQ6,,,,,,,,English,2020-06-16_10h51.43.751,Experiment_English,3.2.4,Win32,60,,,1,0,340,268,1,339,ratio41_8_10_5.png,,,,,,,,,,,,
,,,,,,,,,,,,Half,Less than half,Some,More than half,Few,None,All,Most,Many,0.371296315,-0.072222231,1,0,0,QQQ2,,,,,,,,English,2020-06-16_10h51.43.751,Experiment_English,3.2.4,Win32,60,,,1,0,340,13,1,339,ratio12_5_15_3.png,0.308333351,-0.365740754,1,0,0,continue_button_pause,1,0,1,0,1,0
,,,,,,,,,,,,,,,,,,,,,,,,,,,,,,,,,,English,2020-06-16_10h51.43.751,Experiment_English,3.2.4,Win32,60,,,1,0,340,13,1,339,ratio12_5_15_3.png,,,,,,,,,,,,
,,,,,,,,,,,,Most,Half,Less than half,None,Many,All,Few,Some,More than half,-0.467592586,0.28796296,1,0,0,QQQ7,,,,,,,,English,2020-06-16_10h51.43.751,Experiment_English,3.2.4,Win32,60,,,1,0,340,139,1,339,ratio15_3_18_20.png,,,,,,,,,,,,
,,,,,,,,,,,,Few,Many,Half,None,Most,All,More than half,Less than half,Some,-0.098148136,0.037962956,1,0,0,QQQ5,,,,,,,,English,2020-06-16_10h51.43.751,Experiment_English,3.2.4,Win32,60,,,1,0,340,311,1,339,ratio51_10_12_14.png,,,,,,,,,,,,
,,,,,,,,,,,,Many,Some,Less than half,None,All,Most,More than half,Few,Half,0.485185319,-0.359259272,1,0,0,QQQ3,,,,,,,,English,2020-06-16_10h51.43.751,Experiment_English,3.2.4,Win32,60,,,1,0,340,81,1,339,ratio13_1_4_5.png,,,,,,,,,,,,
,,,,,,,,,,,,Many,None,More than half,Some,Less than half,Few,Half,All,Most,-0.375925918,-0.2638889,1,0,0,QQQ9,,,,,,,,English,2020-06-16_10h51.43.751,Experiment_English,3.2.4,Win32,60,,,1,0,340,303,1,339,ratio51_5_6_6.png,,,,,,,,,,,,
,,,,,,,,,,,,Some,None,Most,Half,Few,Less than half,Many,All,More than half,0.404629649,-0.364814828,1,0,0,QQQ3,,,,,,,,English,2020-06-16_10h51.43.751,Experiment_English,3.2.4,Win32,60,,,1,0,340,216,1,339,ratio31_15_20_3.png,,,,,,,,,,,,
,,,,,,,,,,,,Many,Half,Few,Some,Less than half,More than half,Most,All,None,0.400000019,-0.020370378,1,0,0,QQQ2,,,,,,,,English,2020-06-16_10h51.43.751,Experiment_English,3.2.4,Win32,60,,,1,0,340,281,1,339,ratio43_4_7_4.png,,,,,,,,,,,,
,,,,,,,,,,,,All,Less than half,Some,None,Most,Many,Few,Half,More than half,0.453703724,-0.275925937,1,0,0,QQQ3,,,,,,,,English,2020-06-16_10h51.43.751,Experiment_English,3.2.4,Win32,60,,,1,0,340,190,1,339,ratio23_6_15_3.png,,,,,,,,,,,,
,,,,,,,,,,,,Some,Most,All,Less than half,Half,More than half,Few,Many,None,-0.395370363,0.25833333,1,0,0,QQQ7,,,,,,,,English,2020-06-16_10h51.43.751,Experiment_English,3.2.4,Win32,60,,,1,0,340,148,1,339,ratio19_1_10_19.png,,,,,,,,,,,,
,,,,,,,,,,,,Few,Most,None,All,Half,More than half,Some,Many,Less than half,0.050000014,-0.24722229,1,0,0,QQQ6,,,,,,,,English,2020-06-16_10h51.43.751,Experiment_English,3.2.4,Win32,60,,,1,0,340,282,1,339,ratio43_4_7_7.png,,,,,,,,,,,,
,,,,,,,,,,,,All,More than half,Half,Some,Less than half,Many,Few,None,Most,0.11481483,-0.04722223,1,0,0,QQQ5,,,,,,,,English,2020-06-16_10h51.43.751,Experiment_English,3.2.4,Win32,60,,,1,0,340,152,1,339,ratio19_2_20_6.png,,,,,,,,,,,,
,,,,,,,,,,,,More than half,None,Most,Less than half,Half,Many,Some,Few,All,-0.487962957,0.084259253,1,0,0,QQQ8,,,,,,,,English,2020-06-16_10h51.43.751,Experiment_English,3.2.4,Win32,60,,,1,0,340,104,1,339,ratio14_1_5_10.png,,,,,,,,,,,,
,,,,,,,,,,,,Half,All,Few,Many,More than half,None,Less than half,Some,Most,-0.511111105,0.31203702,1,0,0,QQQ7,,,,,,,,English,2020-06-16_10h51.43.751,Experiment_English,3.2.4,Win32,60,,,1,0,340,144,1,339,ratio19_1_10_11.png,,,,,,,,,,,,
,,,,,,,,,,,,More than half,Some,None,Most,Half,Few,Many,Less than half,All,-0.112962951,0.318518516,1,0,0,QQQ4,,,,,,,,English,2020-06-16_10h51.43.751,Experiment_English,3.2.4,Win32,60,,,1,0,340,313,1,339,ratio51_15_18_2.png,,,,,,,,,,,,
,,,,,,,,,,,,Most,All,Half,Less than half,Few,Some,More than half,None,Many,-0.145370359,-0.274074086,1,0,0,QQQ6,,,,,,,,English,2020-06-16_10h51.43.751,Experiment_English,3.2.4,Win32,60,,,1,0,340,213,1,339,ratio31_12_16_2.png,,,,,,,,,,,,
,,,,,,,,,,,,Some,Half,Less than half,Many,None,Few,More than half,All,Most,-0.38703703,0.305555553,1,0,0,QQQ7,,,,,,,,English,2020-06-16_10h51.43.751,Experiment_English,3.2.4,Win32,60,,,1,0,340,208,1,339,ratio31_9_12_3.png,,,,,,,,,,,,
,,,,,,,,,,,,Most,Less than half,Few,Many,Half,Some,All,More than half,None,-0.104629561,-0.294444456,1,0,0,QQQ6,,,,,,,,English,2020-06-16_10h51.43.751,Experiment_English,3.2.4,Win32,60,,,1,0,340,74,1,339,ratio0Y_0_15_10.png,,,,,,,,,,,,
,,,,,,,,,,,,Half,Most,Many,All,None,Few,More than half,Less than half,Some,0.418518538,-0.023148156,1,0,0,QQQ2,,,,,,,,English,2020-06-16_10h51.43.751,Experiment_English,3.2.4,Win32,60,,,1,0,340,271,1,339,ratio41_12_15_6.png,,,,,,,,,,,,
,,,,,,,,,,,,None,Most,Few,Less than half,Many,Half,All,Some,More than half,0.401851984,-0.064814823,1,0,0,QQQ2,,,,,,,,English,2020-06-16_10h51.43.751,Experiment_English,3.2.4,Win32,60,,,1,0,340,321,1,339,ratio91_9_10_2.png,,,,,,,,,,,,
,,,,,,,,,,,,Half,Some,Most,All,Many,Few,None,Less than half,More than half,0.022222236,0.272222219,1,0,0,QQQ4,,,,,,,,English,2020-06-16_10h51.43.751,Experiment_English,3.2.4,Win32,60,,,1,0,340,58,1,339,ratioX0_19_19_4.png,,,,,,,,,,,,
,,,,,,,,,,,,Few,Less than half,Most,All,Many,Half,Some,None,More than half,0.414814834,0.037962956,1,0,0,QQQ2,,,,,,,,English,2020-06-16_10h51.43.751,Experiment_English,3.2.4,Win32,60,,,1,0,340,83,1,339,ratio13_1_4_10.png,,,,,,,,,,,,
,,,,,,,,,,,,None,Less than half,Many,Most,All,Half,Few,More than half,Some,-0.3824074,0.024999993,1,0,0,QQQ8,,,,,,,,English,2020-06-16_10h51.43.751,Experiment_English,3.2.4,Win32,60,,,1,0,340,304,1,339,ratio51_5_6_13.png,,,,,,,,,,,,
,,,,,,,,,,,,None,Less than half,Many,Some,More than half,Half,All,Most,Few,-0.084259247,0.021296289,1,0,0,QQQ5,,,,,,,,English,2020-06-16_10h51.43.751,Experiment_English,3.2.4,Win32,60,,,1,0,340,286,1,339,ratio43_4_7_15.png,,,,,,,,,,,,
,,,,,,,,,,,,None,Many,More than half,Some,All,Half,Most,Few,Less than half,-0.470370364,0.273148145,1,0,0,QQQ7,,,,,,,,English,2020-06-16_10h51.43.751,Experiment_English,3.2.4,Win32,60,,,1,0,340,264,1,339,ratio41_4_5_6.png,,,,,,,,,,,,
,,,,,,,,,,,,Some,Many,Less than half,Few,More than half,Half,None,All,Most,0.412962982,0.047222215,1,0,0,QQQ2,,,,,,,,English,2020-06-16_10h51.43.751,Experiment_English,3.2.4,Win32,60,,,1,0,340,217,1,339,ratio31_15_20_5.png,,,,,,,,,,,,
,,,,,,,,,,,,More than half,Most,Many,Few,Less than half,Half,None,All,Some,0.36111113,0.021296289,1,0,0,QQQ2,,,,,,,,English,2020-06-16_10h51.43.751,Experiment_English,3.2.4,Win32,60,,,1,0,340,336,1,339,ratio91_18_20_12.png,,,,,,,,,,,,
,,,,,,,,,,,,Half,Some,Few,All,Many,None,Less than half,More than half,Most,-0.34814814,0.370370368,1,0,0,QQQ7,,,,,,,,English,2020-06-16_10h51.43.751,Experiment_English,3.2.4,Win32,60,,,1,0,340,75,1,339,ratio0Y_0_16_10.png,,,,,,,,,,,,
,,,,,,,,,,,,All,Few,Some,Half,None,More than half,Most,Many,Less than half,-0.375925918,-0.218518529,1,0,0,QQQ9,,,,,,,,English,2020-06-16_10h51.43.751,Experiment_English,3.2.4,Win32,60,,,1,0,340,182,1,339,ratio23_2_5_7.png,,,,,,,,,,,,
,,,,,,,,,,,,Many,Most,Less than half,All,Half,None,Few,Some,More than half,0.400000019,-0.202777788,1,0,0,QQQ3,,,,,,,,English,2020-06-16_10h51.43.751,Experiment_English,3.2.4,Win32,60,,,1,0,340,131,1,339,ratio15_2_12_14.png,,,,,,,,,,,,
,,,,,,,,,,,,Half,Few,Some,All,More than half,None,Many,Less than half,Most,-0.366666659,-0.267592604,1,0,0,QQQ9,,,,,,,,English,2020-06-16_10h51.43.751,Experiment_English,3.2.4,Win32,60,,,1,0,340,263,1,339,ratio41_4_5_5.png,,,,,,,,,,,,
,,,,,,,,,,,,Some,Few,Less than half,None,Half,Many,Most,All,More than half,0.45740754,-0.278703715,1,0,0,QQQ3,,,,,,,,English,2020-06-16_10h51.43.751,Experiment_English,3.2.4,Win32,60,,,1,0,340,114,1,339,ratio14_3_15_10.png,,,,,,,,,,,,
,,,,,,,,,,,,Few,Less than half,Most,Half,Many,All,Some,None,More than half,0.411111244,-0.049074082,1,0,0,QQQ2,,,,,,,,English,2020-06-16_10h51.43.751,Experiment_English,3.2.4,Win32,60,,,1,0,340,122,1,339,ratio15_1_6_7.png,,,,,,,,,,,,
,,,,,,,,,,,,Less than half,Few,Half,Most,All,Many,More than half,None,Some,0.049074088,0.287037034,1,0,0,QQQ4,,,,,,,,English,2020-06-16_10h51.43.751,Experiment_English,3.2.4,Win32,60,,,1,0,340,237,1,339,ratio32_12_20_5.png,,,,,,,,,,,,
,,,,,,,,,,,,Most,More than half,Half,None,Less than half,All,Few,Some,Many,-0.350925918,0.295370367,1,0,0,QQQ7,,,,,,,,English,2020-06-16_10h51.43.751,Experiment_English,3.2.4,Win32,60,,,1,0,340,84,1,339,ratio13_2_8_1.png,,,,,,,,,,,,
,,,,,,,,,,,,Most,More than half,Less than half,Many,Few,Some,Half,All,None,0.044444458,-0.241666678,1,0,0,QQQ6,,,,,,,,English,2020-06-16_10h51.43.751,Experiment_English,3.2.4,Win32,60,,,1,0,340,188,1,339,ratio23_4_10_6.png,0.317592611,-0.387962976,1,0,0,continue_button_pause,1,0,1,0,1,0
,,,,,,,,,,,,,,,,,,,,,,,,,,,,,,,,,,English,2020-06-16_10h51.43.751,Experiment_English,3.2.4,Win32,60,,,1,0,340,188,1,339,ratio23_4_10_6.png,,,,,,,,,,,,
,,,,,,,,,,,,Most,None,All,More than half,Less than half,Many,Some,Half,Few,0.378703836,0.259259256,1,0,0,QQQ1,,,,,,,,English,2020-06-16_10h51.43.751,Experiment_English,3.2.4,Win32,60,,,1,0,340,308,1,339,ratio51_10_12_9.png,,,,,,,,,,,,
,,,,,,,,,,,,Some,Less than half,None,Half,All,Most,Few,More than half,Many,0.439814835,-0.013888897,1,0,0,QQQ2,,,,,,,,English,2020-06-16_10h51.43.751,Experiment_English,3.2.4,Win32,60,,,1,0,340,199,1,339,ratio23_8_20_8.png,,,,,,,,,,,,
,,,,,,,,,,,,None,All,Less than half,Some,Many,Most,Half,Few,More than half,0.473148168,-0.325925995,1,0,0,QQQ3,,,,,,,,English,2020-06-16_10h51.43.751,Experiment_English,3.2.4,Win32,60,,,1,0,340,121,1,339,ratio15_1_6_4.png,,,,,,,,,,,,
,,,,,,,,,,,,Few,Most,None,All,Some,More than half,Many,Less than half,Half,-0.389814807,0.254629626,1,0,0,QQQ7,,,,,,,,English,2020-06-16_10h51.43.751,Experiment_English,3.2.4,Win32,60,,,1,0,340,37,1,339,ratio11_9_18_8.png,,,,,,,,,,,,
,,,,,,,,,,,,All,Some,None,More than half,Half,Less than half,Many,Few,Most,0.501851873,0.282407404,1,0,0,QQQ1,,,,,,,,English,2020-06-16_10h51.43.751,Experiment_English,3.2.4,Win32,60,,,1,0,340,42,1,339,ratioX0_5_5_5.png,,,,,,,,,,,,
,,,,,,,,,,,,More than half,Few,Many,Most,Less than half,Half,Some,None,All,0.028703717,0.265740723,1,0,0,QQQ4,,,,,,,,English,2020-06-16_10h51.43.751,Experiment_English,3.2.4,Win32,60,,,1,0,340,329,1,339,ratio91_9_10_20.png,,,,,,,,,,,,
,,,,,,,,,,,,Half,None,Some,All,Less than half,Few,Most,More than half,Many,-0.431481475,0.284259242,1,0,0,QQQ7,,,,,,,,English,2020-06-16_10h51.43.751,Experiment_English,3.2.4,Win32,60,,,1,0,340,267,1,339,ratio41_8_10_4.png,,,,,,,,,,,,
,,,,,,,,,,,,Few,All,None,Half,Many,Some,Less than half,More than half,Most,-0.000925913,-0.000925933,1,0,0,QQQ5,,,,,,,,English,2020-06-16_10h51.43.751,Experiment_English,3.2.4,Win32,60,,,1,0,340,236,1,339,ratio32_12_20_2.png,,,,,,,,,,,,
,,,,,,,,,,,,All,None,Some,Most,Half,More than half,Few,Less than half,Many,0.387963095,0.281481478,1,0,0,QQQ1,,,,,,,,English,2020-06-16_10h51.43.751,Experiment_English,3.2.4,Win32,60,,,1,0,340,50,1,339,ratioX0_12_12_3.png,,,,,,,,,,,,
,,,,,,,,,,,,All,Many,Less than half,None,Some,Most,Half,More than half,Few,-0.487962957,-0.346296309,1,0,0,QQQ9,,,,,,,,English,2020-06-16_10h51.43.751,Experiment_English,3.2.4,Win32,60,,,1,0,340,111,1,339,ratio14_3_15_3.png,,,,,,,,,,,,
,,,,,,,,,,,,Most,More than half,Less than half,Some,All,Half,Few,Many,None,0.004629643,0.325925909,1,0,0,QQQ4,,,,,,,,English,2020-06-16_10h51.43.751,Experiment_English,3.2.4,Win32,60,,,1,0,340,191,1,339,ratio23_6_15_7.png,,,,,,,,,,,,
,,,,,,,,,,,,Most,Half,More than half,Few,All,Many,Less than half,None,Some,-0.436111104,0.277777774,1,0,0,QQQ7,,,,,,,,English,2020-06-16_10h51.43.751,Experiment_English,3.2.4,Win32,60,,,1,0,340,155,1,339,ratio19_2_20_13.png,,,,,,,,,,,,
,,,,,,,,,,,,Most,Few,Many,Some,Less than half,All,Half,More than half,None,0.369444576,0.272222219,1,0,0,QQQ1,,,,,,,,English,2020-06-16_10h51.43.751,Experiment_English,3.2.4,Win32,60,,,1,0,340,314,1,339,ratio51_15_18_4.png,,,,,,,,,,,,
,,,,,,,,,,,,Most,Half,More than half,Less than half,All,Many,None,Few,Some,0.447222242,0.282407404,1,0,0,QQQ1,,,,,,,,English,2020-06-16_10h51.43.751,Experiment_English,3.2.4,Win32,60,,,1,0,340,333,1,339,ratio91_18_20_6.png,,,,,,,,,,,,
,,,,,,,,,,,,Some,Most,Half,More than half,All,None,Less than half,Few,Many,0.453703724,-0.281481493,1,0,0,QQQ3,,,,,,,,English,2020-06-16_10h51.43.751,Experiment_English,3.2.4,Win32,60,,,1,0,340,24,1,339,ratio11_4_8_3.png,,,,,,,,,,,,
,,,,,,,,,,,,All,Half,Some,Few,Most,More than half,Less than half,Many,None,0.102777793,-0.246296307,1,0,0,QQQ6,,,,,,,,English,2020-06-16_10h51.43.751,Experiment_English,3.2.4,Win32,60,,,1,0,340,221,1,339,ratio32_3_5_3.png,,,,,,,,,,,,
,,,,,,,,,,,,Most,Half,All,More than half,Less than half,Many,Some,None,Few,-0.391666659,0.274074071,1,0,0,QQQ7,,,,,,,,English,2020-06-16_10h51.43.751,Experiment_English,3.2.4,Win32,60,,,1,0,340,194,1,339,ratio23_6_15_10.png,,,,,,,,,,,,
,,,,,,,,,,,,Few,Most,Many,Half,None,All,Some,Less than half,More than half,0.382407426,0.286111108,1,0,0,QQQ1,,,,,,,,English,2020-06-16_10h51.43.751,Experiment_English,3.2.4,Win32,60,,,1,0,340,132,1,339,ratio15_2_12_16.png,,,,,,,,,,,,
,,,,,,,,,,,,Many,None,All,Half,Some,Less than half,Few,More than half,Most,-0.427777771,-0.004629637,1,0,0,QQQ8,,,,,,,,English,2020-06-16_10h51.43.751,Experiment_English,3.2.4,Win32,60,,,1,0,340,266,1,339,ratio41_8_10_2.png,,,,,,,,,,,,
,,,,,,,,,,,,None,Some,More than half,Many,Less than half,Few,All,Most,Half,-0.413888882,-0.248148159,1,0,0,QQQ9,,,,,,,,English,2020-06-16_10h51.43.751,Experiment_English,3.2.4,Win32,60,,,1,0,340,3,1,339,ratio12_2_6_3.png,,,,,,,,,,,,
,,,,,,,,,,,,More than half,Some,All,Less than half,Many,Most,None,Half,Few,-0.034259247,0.34259259,1,0,0,QQQ4,,,,,,,,English,2020-06-16_10h51.43.751,Experiment_English,3.2.4,Win32,60,,,1,0,340,10,1,339,ratio12_4_12_4.png,,,,,,,,,,,,
,,,,,,,,,,,,More than half,All,None,Half,Some,Less than half,Many,Few,Most,0.017592606,0.074074068,1,0,0,QQQ5,,,,,,,,English,2020-06-16_10h51.43.751,Experiment_English,3.2.4,Win32,60,,,1,0,340,255,1,339,ratio34_6_14_10.png,,,,,,,,,,,,
,,,,,,,,,,,,Less than half,More than half,Many,Half,All,Some,Few,None,Most,-0.037037024,-0.048148156,1,0,0,QQQ5,,,,,,,,English,2020-06-16_10h51.43.751,Experiment_English,3.2.4,Win32,60,,,1,0,340,47,1,339,ratioX0_9_9_4.png,,,,,,,,,,,,
,,,,,,,,,,,,All,Less than half,Half,More than half,Few,Most,Some,None,Many,-0.118518451,-0.262962974,1,0,0,QQQ6,,,,,,,,English,2020-06-16_10h51.43.751,Experiment_English,3.2.4,Win32,60,,,1,0,340,214,1,339,ratio31_12_16_5.png,,,,,,,,,,,,
,,,,,,,,,,,,Many,Half,Less than half,More than half,Some,All,Few,Most,None,-0.399074067,0.248148144,1,0,0,QQQ7,,,,,,,,English,2020-06-16_10h51.43.751,Experiment_English,3.2.4,Win32,60,,,1,0,340,134,1,339,ratio15_3_18_5.png,,,,,,,,,,,,
,,,,,,,,,,,,Some,Less than half,More than half,Few,None,All,Most,Many,Half,0.360185317,0.273148145,1,0,0,QQQ1,,,,,,,,English,2020-06-16_10h51.43.751,Experiment_English,3.2.4,Win32,60,,,1,0,340,198,1,339,ratio23_8_20_7.png,,,,,,,,,,,,
,,,,,,,,,,,,None,Few,All,Half,More than half,Many,Less than half,Some,Most,-0.368518511,0.255555552,1,0,0,QQQ7,,,,,,,,English,2020-06-16_10h51.43.751,Experiment_English,3.2.4,Win32,60,,,1,0,340,112,1,339,ratio14_3_15_4.png,,,,,,,,,,,,
,,,,,,,,,,,,Many,More than half,None,Less than half,Some,All,Half,Most,Few,0.427777797,-0.037037045,1,0,0,QQQ2,,,,,,,,English,2020-06-16_10h51.43.751,Experiment_English,3.2.4,Win32,60,,,1,0,340,274,1,339,ratio41_12_15_9.png,,,,,,,,,,,,
,,,,,,,,,,,,All,Some,More than half,Few,Half,None,Less than half,Many,Most,-0.424074067,-0.322222234,1,0,0,QQQ9,,,,,,,,English,2020-06-16_10h51.43.751,Experiment_English,3.2.4,Win32,60,,,1,0,340,322,1,339,ratio91_9_10_3.png,,,,,,,,,,,,
,,,,,,,,,,,,Most,Some,Many,Less than half,None,Few,Half,More than half,All,0.425925946,0.311111108,1,0,0,QQQ1,,,,,,,,English,2020-06-16_10h51.43.751,Experiment_English,3.2.4,Win32,60,,,1,0,340,325,1,339,ratio91_9_10_8.png,,,,,,,,,,,,
,,,,,,,,,,,,More than half,Most,All,Few,Many,Some,Half,None,Less than half,0.037962977,0.324999997,1,0,0,QQQ4,,,,,,,,English,2020-06-16_10h51.43.751,Experiment_English,3.2.4,Win32,60,,,1,0,340,151,1,339,ratio19_2_20_4.png,,,,,,,,,,,,
,,,,,,,,,,,,More than half,Less than half,None,All,Many,Few,Some,Most,Half,0.39074076,0.013888882,1,0,0,QQQ2,,,,,,,,English,2020-06-16_10h51.43.751,Experiment_English,3.2.4,Win32,60,,,1,0,340,9,1,339,ratio12_3_9_5.png,,,,,,,,,,,,
,,,,,,,,,,,,Many,Few,None,Some,Half,More than half,Less than half,All,Most,-0.040740728,0.337037035,1,0,0,QQQ4,,,,,,,,English,2020-06-16_10h51.43.751,Experiment_English,3.2.4,Win32,60,,,1,0,340,293,1,339,ratio43_8_14_7.png,,,,,,,,,,,,
,,,,,,,,,,,,Many,Half,None,More than half,All,Some,Less than half,Few,Most,-0.50370367,0.271296293,1,0,0,QQQ7,,,,,,,,English,2020-06-16_10h51.43.751,Experiment_English,3.2.4,Win32,60,,,1,0,340,90,1,339,ratio13_3_12_7.png,0.296296314,-0.381481551,1,0,0,continue_button_pause,1,0,1,0,1,0
,,,,,,,,,,,,,,,,,,,,,,,,,,,,,,,,,,English,2020-06-16_10h51.43.751,Experiment_English,3.2.4,Win32,60,,,1,0,340,90,1,339,ratio13_3_12_7.png,,,,,,,,,,,,
,,,,,,,,,,,,Many,All,More than half,Half,Some,None,Few,Less than half,Most,-0.385185178,-0.220370381,1,0,0,QQQ9,,,,,,,,English,2020-06-16_10h51.43.751,Experiment_English,3.2.4,Win32,60,,,1,0,340,238,1,339,ratio32_12_20_9.png,,,,,,,,,,,,
,,,,,,,,,,,,Many,More than half,Half,All,Most,Few,Some,None,Less than half,-0.029629617,0.004629622,1,0,0,QQQ5,,,,,,,,English,2020-06-16_10h51.43.751,Experiment_English,3.2.4,Win32,60,,,1,0,340,309,1,339,ratio51_10_12_10.png,,,,,,,,,,,,
,,,,,,,,,,,,Most,None,Half,Some,More than half,Many,Less than half,Few,All,0.400000019,0.263888885,1,0,0,QQQ1,,,,,,,,English,2020-06-16_10h51.43.751,Experiment_English,3.2.4,Win32,60,,,1,0,340,279,1,339,ratio41_16_20_10.png,,,,,,,,,,,,
,,,,,,,,,,,,None,Most,Many,Few,More than half,Some,All,Half,Less than half,0.45462965,-0.031481489,1,0,0,QQQ2,,,,,,,,English,2020-06-16_10h51.43.751,Experiment_English,3.2.4,Win32,60,,,1,0,340,338,1,339,ratio91_18_20_18.png,,,,,,,,,,,,
,,,,,,,,,,,,Many,Most,Few,Some,More than half,None,All,Less than half,Half,-0.380555548,0.045370335,1,0,0,QQQ8,,,,,,,,English,2020-06-16_10h51.43.751,Experiment_English,3.2.4,Win32,60,,,1,0,340,82,1,339,ratio13_1_4_7.png,,,,,,,,,,,,
,,,,,,,,,,,,Most,Less than half,More than half,All,Some,Many,Few,None,Half,-0.03796295,0.009259252,1,0,0,QQQ5,,,,,,,,English,2020-06-16_10h51.43.751,Experiment_English,3.2.4,Win32,60,,,1,0,340,273,1,339,ratio41_12_15_8.png,,,,,,,,,,,,
,,,,,,,,,,,,Many,None,Less than half,All,Most,More than half,Half,Few,Some,0.405555575,-0.300000012,1,0,0,QQQ3,,,,,,,,English,2020-06-16_10h51.43.751,Experiment_English,3.2.4,Win32,60,,,1,0,340,88,1,339,ratio13_3_12_5.png,,,,,,,,,,,,
,,,,,,,,,,,,More than half,Most,Half,Many,Less than half,Some,All,Few,None,0.389814834,-0.033333341,1,0,0,QQQ2,,,,,,,,English,2020-06-16_10h51.43.751,Experiment_English,3.2.4,Win32,60,,,1,0,340,270,1,339,ratio41_12_15_3.png,,,,,,,,,,,,
,,,,,,,,,,,,Half,Most,Less than half,Many,All,Few,Some,None,More than half,0.375000019,0.009259252,1,0,0,QQQ2,,,,,,,,English,2020-06-16_10h51.43.751,Experiment_English,3.2.4,Win32,60,,,1,0,340,262,1,339,ratio41_4_5_4.png,,,,,,,,,,,,
,,,,,,,,,,,,All,Many,Some,Few,More than half,Less than half,Half,Most,None,-0.472222216,0.010185178,1,0,0,QQQ8,,,,,,,,English,2020-06-16_10h51.43.751,Experiment_English,3.2.4,Win32,60,,,1,0,340,310,1,339,ratio51_10_12_12.png,,,,,,,,,,,,
,,,,,,,,,,,,Most,All,Half,More than half,None,Less than half,Few,Many,Some,-0.021296227,-0.272222234,1,0,0,QQQ6,,,,,,,,English,2020-06-16_10h51.43.751,Experiment_English,3.2.4,Win32,60,,,1,0,340,128,1,339,ratio15_2_12_8.png,,,,,,,,,,,,
,,,,,,,,,,,,All,Few,None,Less than half,Many,Most,More than half,Some,Half,-0.429629595,0.030555549,1,0,0,QQQ8,,,,,,,,English,2020-06-16_10h51.43.751,Experiment_English,3.2.4,Win32,60,,,1,0,340,291,1,339,ratio43_8_14_5.png,,,,,,,,,,,,
,,,,,,,,,,,,Most,Few,All,None,More than half,Many,Half,Some,Less than half,-0.435185178,-0.219444512,1,0,0,QQQ9,,,,,,,,English,2020-06-16_10h51.43.751,Experiment_English,3.2.4,Win32,60,,,1,0,340,138,1,339,ratio15_3_18_17.png,,,,,,,,,,,,
,,,,,,,,,,,,Few,Many,Some,Less than half,Most,None,Half,More than half,All,0.393518538,0.013888882,1,0,0,QQQ2,,,,,,,,English,2020-06-16_10h51.43.751,Experiment_English,3.2.4,Win32,60,,,1,0,340,179,1,339,ratio21_12_18_8.png,,,,,,,,,,,,
,,,,,,,,,,,,Most,Few,Some,None,Many,Half,More than half,Less than half,All,0.382407426,0.006481474,1,0,0,QQQ2,,,,,,,,English,2020-06-16_10h51.43.751,Experiment_English,3.2.4,Win32,60,,,1,0,340,109,1,339,ratio14_2_10_9.png,,,,,,,,,,,,
,,,,,,,,,,,,Less than half,All,Most,Some,More than half,Few,None,Many,Half,0.402777797,0.234259255,1,0,0,QQQ1,,,,,,,,English,2020-06-16_10h51.43.751,Experiment_English,3.2.4,Win32,60,,,1,0,340,110,1,339,ratio14_3_15_2.png,,,,,,,,,,,,
,,,,,,,,,,,,Some,All,Most,None,Less than half,Many,More than half,Few,Half,0.129629645,0.246296293,1,0,0,QQQ4,,,,,,,,English,2020-06-16_10h51.43.751,Experiment_English,3.2.4,Win32,60,,,1,0,340,70,1,339,ratio0Y_0_12_5.png,,,,,,,,,,,,
,,,,,,,,,,,,Few,None,Less than half,Most,Many,Some,All,More than half,Half,0.075000014,0.245370367,1,0,0,QQQ4,,,,,,,,English,2020-06-16_10h51.43.751,Experiment_English,3.2.4,Win32,60,,,1,0,340,79,1,339,ratio0Y_0_20_4.png,,,,,,,,,,,,
,,,,,,,,,,,,Most,Many,More than half,Some,None,Few,All,Less than half,Half,-0.493518513,0.014814808,1,0,0,QQQ8,,,,,,,,English,2020-06-16_10h51.43.751,Experiment_English,3.2.4,Win32,60,,,1,0,340,86,1,339,ratio13_2_8_6.png,,,,,,,,,,,,
,,,,,,,,,,,,All,Most,None,Less than half,Half,More than half,Many,Some,Few,0.405555575,-0.016666674,1,0,0,QQQ2,,,,,,,,English,2020-06-16_10h51.43.751,Experiment_English,3.2.4,Win32,60,,,1,0,340,210,1,339,ratio31_9_12_9.png,,,,,,,,,,,,
,,,,,,,,,,,,Some,Many,Half,All,None,Few,More than half,Most,Less than half,-0.404629622,-0.314814827,1,0,0,QQQ9,,,,,,,,English,2020-06-16_10h51.43.751,Experiment_English,3.2.4,Win32,60,,,1,0,340,19,1,339,ratio12_6_18_9.png,,,,,,,,,,,,
,,,,,,,,,,,,Most,Many,Less than half,Few,Some,None,Half,More than half,All,-0.04259258,-0.007407415,1,0,0,QQQ5,,,,,,,,English,2020-06-16_10h51.43.751,Experiment_English,3.2.4,Win32,60,,,1,0,340,235,1,339,ratio32_12_20_1.png,,,,,,,,,,,,
,,,,,,,,,,,,Some,None,Most,Many,Less than half,Half,All,More than half,Few,0.365740759,0.279629612,1,0,0,QQQ1,,,,,,,,English,2020-06-16_10h51.43.751,Experiment_English,3.2.4,Win32,60,,,1,0,340,196,1,339,ratio23_8_20_5.png,,,,,,,,,,,,
,,,,,,,,,,,,Many,More than half,Less than half,Most,Some,Few,None,All,Half,-0.108333322,0.299074071,1,0,0,QQQ4,,,,,,,,English,2020-06-16_10h51.43.751,Experiment_English,3.2.4,Win32,60,,,1,0,340,272,1,339,ratio41_12_15_7.png,,,,,,,,,,,,
,,,,,,,,,,,,Less than half,Many,None,Few,All,Some,More than half,Half,Most,-0.419444437,-0.278703715,1,0,0,QQQ9,,,,,,,,English,2020-06-16_10h51.43.751,Experiment_English,3.2.4,Win32,60,,,1,0,340,337,1,339,ratio91_18_20_16.png,,,,,,,,,,,,
,,,,,,,,,,,,Most,Less than half,Many,More than half,All,Half,None,Some,Few,-0.048148136,0.297222219,1,0,0,QQQ4,,,,,,,,English,2020-06-16_10h51.43.751,Experiment_English,3.2.4,Win32,60,,,1,0,340,206,1,339,ratio31_6_8_6.png,,,,,,,,,,,,
,,,,,,,,,,,,Many,Half,Some,None,More than half,Few,All,Less than half,Most,-0.425925919,0.011111104,1,0,0,QQQ8,,,,,,,,English,2020-06-16_10h51.43.751,Experiment_English,3.2.4,Win32,60,,,1,0,340,115,1,339,ratio14_4_20_1.png,,,,,,,,,,,,
,,,,,,,,,,,,Half,Some,Less than half,Most,More than half,All,Many,None,Few,-0.10648147,0.263888885,1,0,0,QQQ4,,,,,,,,English,2020-06-16_10h51.43.751,Experiment_English,3.2.4,Win32,60,,,1,0,340,327,1,339,ratio91_9_10_11.png,,,,,,,,,,,,
,,,,,,,,,,,,Half,All,Many,More than half,Less than half,Most,Few,None,Some,-0.046296284,0.056481475,1,0,0,QQQ5,,,,,,,,English,2020-06-16_10h51.43.751,Experiment_English,3.2.4,Win32,60,,,1,0,340,159,1,339,ratio19_2_20_20.png,,,,,,,,,,,,
,,,,,,,,,,,,Many,Few,Some,None,Less than half,Most,More than half,Half,All,0.608333356,-0.308333345,1,0,0,QQQ3,,,,,,,,English,2020-06-16_10h51.43.751,Experiment_English,3.2.4,Win32,60,,,1,0,340,26,1,339,ratio11_5_10_4.png,,,,,,,,,,,,
,,,,,,,,,,,,More than half,None,Half,All,Most,Few,Some,Many,Less than half,-0.381481474,-0.244444456,1,0,0,QQQ9,,,,,,,,English,2020-06-16_10h51.43.751,Experiment_English,3.2.4,Win32,60,,,1,0,340,96,1,339,ratio13_5_20_1.png,,,,,,,,,,,,
,,,,,,,,,,,,Few,Many,Less than half,More than half,None,Some,Half,Most,All,-0.451851845,0.299074071,1,0,0,QQQ7,,,,,,,,English,2020-06-16_10h51.43.751,Experiment_English,3.2.4,Win32,60,,,1,0,340,22,1,339,ratio11_3_6_6.png,,,,,,,,,,,,
,,,,,,,,,,,,Half,Few,Some,All,Many,More than half,Less than half,None,Most,0.452777911,0.051851845,1,0,0,QQQ2,,,,,,,,English,2020-06-16_10h51.43.751,Experiment_English,3.2.4,Win32,60,,,1,0,340,1,1,339,ratio12_1_3_7.png,,,,,,,,,,,,
,,,,,,,,,,,,Most,Some,All,Few,Half,Many,More than half,None,Less than half,0.409259279,0.277777774,1,0,0,QQQ1,,,,,,,,English,2020-06-16_10h51.43.751,Experiment_English,3.2.4,Win32,60,,,1,0,340,328,1,339,ratio91_9_10_15.png,0.334259277,-0.38703705,1,0,0,continue_button_pause,1,0,1,0,1,0
,,,,,,,,,,,,,,,,,,,,,,,,,,,,,,,,,,English,2020-06-16_10h51.43.751,Experiment_English,3.2.4,Win32,60,,,1,0,340,328,1,339,ratio91_9_10_15.png,,,,,,,,,,,,
,,,,,,,,,,,,More than half,Less than half,Most,None,Few,Half,Some,All,Many,0.412962982,-0.285185197,1,0,0,QQQ3,,,,,,,,English,2020-06-16_10h51.43.751,Experiment_English,3.2.4,Win32,60,,,1,0,340,201,1,339,ratio31_3_4_7.png,,,,,,,,,,,,
,,,,,,,,,,,,None,All,Most,Half,More than half,Some,Many,Less than half,Few,0.13981483,-0.219444512,1,0,0,QQQ6,,,,,,,,English,2020-06-16_10h51.43.751,Experiment_English,3.2.4,Win32,60,,,1,0,340,193,1,339,ratio23_6_15_9.png,,,,,,,,,,,,
,,,,,,,,,,,,Some,Many,More than half,Half,Few,All,Less than half,None,Most,-0.44629629,-0.254629641,1,0,0,QQQ9,,,,,,,,English,2020-06-16_10h51.43.751,Experiment_English,3.2.4,Win32,60,,,1,0,340,218,1,339,ratio31_15_20_7.png,,,,,,,,,,,,
,,,,,,,,,,,,Most,Half,Some,More than half,Few,None,Less than half,Many,All,-0.370370363,-0.23796303,1,0,0,QQQ9,,,,,,,,English,2020-06-16_10h51.43.751,Experiment_English,3.2.4,Win32,60,,,1,0,340,57,1,339,ratioX0_18_18_1.png,,,,,,,,,,,,
,,,,,,,,,,,,All,Some,Few,Most,Half,None,Less than half,Many,More than half,-0.053703635,-0.069444453,1,0,0,QQQ5,,,,,,,,English,2020-06-16_10h51.43.751,Experiment_English,3.2.4,Win32,60,,,1,0,340,242,1,339,ratio34_3_7_6.png,,,,,,,,,,,,
,,,,,,,,,,,,Few,Many,All,None,Most,Some,Less than half,Half,More than half,-0.034259247,-0.050000008,1,0,0,QQQ5,,,,,,,,English,2020-06-16_10h51.43.751,Experiment_English,3.2.4,Win32,60,,,1,0,340,228,1,339,ratio32_6_10_7.png,,,,,,,,,,,,
,,,,,,,,,,,,Less than half,Few,Half,Most,Some,None,More than half,All,Many,0.115740756,-0.237037048,1,0,0,QQQ6,,,,,,,,English,2020-06-16_10h51.43.751,Experiment_English,3.2.4,Win32,60,,,1,0,340,63,1,339,ratio0Y_0_6_8.png,,,,,,,,,,,,
,,,,,,,,,,,,None,Many,Few,Most,Less than half,All,Some,More than half,Half,-0.523148143,0.295370367,1,0,0,QQQ7,,,,,,,,English,2020-06-16_10h51.43.751,Experiment_English,3.2.4,Win32,60,,,1,0,340,189,1,339,ratio23_4_10_8.png,,,,,,,,,,,,
,,,,,,,,,,,,Half,Less than half,All,None,Some,Most,Many,Few,More than half,-0.409259252,0.04629629,1,0,0,QQQ8,,,,,,,,English,2020-06-16_10h51.43.751,Experiment_English,3.2.4,Win32,60,,,1,0,340,102,1,339,ratio14_1_5_8.png,,,,,,,,,,,,
,,,,,,,,,,,,Some,Many,None,Half,Less than half,Few,More than half,Most,All,-0.41666666,-0.069444453,1,0,0,QQQ8,,,,,,,,English,2020-06-16_10h51.43.751,Experiment_English,3.2.4,Win32,60,,,1,0,340,318,1,339,ratio51_15_18_18.png,,,,,,,,,,,,
,,,,,,,,,,,,More than half,All,Most,Less than half,Many,Half,None,Few,Some,0.091666681,0.271296293,1,0,0,QQQ4,,,,,,,,English,2020-06-16_10h51.43.751,Experiment_English,3.2.4,Win32,60,,,1,0,340,117,1,339,ratio14_4_20_6.png,,,,,,,,,,,,
,,,,,,,,,,,,All,None,Most,Few,Many,Some,Less than half,More than half,Half,0.415740873,-0.353703773,1,0,0,QQQ3,,,,,,,,English,2020-06-16_10h51.43.751,Experiment_English,3.2.4,Win32,60,,,1,0,340,320,1,339,ratio91_9_10_1.png,,,,,,,,,,,,
,,,,,,,,,,,,More than half,Less than half,Half,All,Most,Few,Many,Some,None,0.101851867,-0.337962975,1,0,0,QQQ6,,,,,,,,English,2020-06-16_10h51.43.751,Experiment_English,3.2.4,Win32,60,,,1,0,340,108,1,339,ratio14_2_10_6.png,,,,,,,,,,,,
,,,,,,,,,,,,Less than half,Half,Few,More than half,Many,Most,None,All,Some,0.374074206,-0.261111179,1,0,0,QQQ3,,,,,,,,English,2020-06-16_10h51.43.751,Experiment_English,3.2.4,Win32,60,,,1,0,340,140,1,339,ratio19_1_10_1.png,,,,,,,,,,,,
,,,,,,,,,,,,Some,Most,All,Few,Less than half,None,Many,More than half,Half,0.052777848,-0.27314816,1,0,0,QQQ6,,,,,,,,English,2020-06-16_10h51.43.751,Experiment_English,3.2.4,Win32,60,,,1,0,340,65,1,339,ratio0Y_0_8_4.png,,,,,,,,,,,,
,,,,,,,,,,,,Most,More than half,Some,Few,Less than half,All,Many,None,Half,-0.371296289,0.024999993,1,0,0,QQQ8,,,,,,,,English,2020-06-16_10h51.43.751,Experiment_English,3.2.4,Win32,60,,,1,0,340,72,1,339,ratio0Y_0_13_4.png,,,,,,,,,,,,
,,,,,,,,,,,,Some,Many,Most,More than half,Half,None,Few,Less than half,All,0.096296311,-0.05648149,1,0,0,QQQ5,,,,,,,,English,2020-06-16_10h51.43.751,Experiment_English,3.2.4,Win32,60,,,1,0,340,192,1,339,ratio23_6_15_8.png,,,,,,,,,,,,
,,,,,,,,,,,,Less than half,Many,None,Some,Few,Half,More than half,All,Most,-0.460185179,0.017592585,1,0,0,QQQ8,,,,,,,,English,2020-06-16_10h51.43.751,Experiment_English,3.2.4,Win32,60,,,1,0,340,49,1,339,ratioX0_11_11_2.png,,,,,,,,,,,,
,,,,,,,,,,,,Some,More than half,Half,Most,Few,None,All,Less than half,Many,-0.057407395,0.00277777,1,0,0,QQQ5,,,,,,,,English,2020-06-16_10h51.43.751,Experiment_English,3.2.4,Win32,60,,,1,0,340,153,1,339,ratio19_2_20_8.png,,,,,,,,,,,,
,,,,,,,,,,,,Some,Most,More than half,Half,None,Many,Less than half,Few,All,-0.469444438,0.010185178,1,0,0,QQQ8,,,,,,,,English,2020-06-16_10h51.43.751,Experiment_English,3.2.4,Win32,60,,,1,0,340,120,1,339,ratio15_1_6_1.png,,,,,,,,,,,,
,,,,,,,,,,,,Half,Many,Some,Less than half,Few,All,Most,More than half,None,-0.410185178,0.324074071,1,0,0,QQQ7,,,,,,,,English,2020-06-16_10h51.43.751,Experiment_English,3.2.4,Win32,60,,,1,0,340,215,1,339,ratio31_12_16_8.png,,,,,,,,,,,,
,,,,,,,,,,,,Many,Most,Few,Some,Less than half,More than half,None,Half,All,0.366666685,-0.039814823,1,0,0,QQQ2,,,,,,,,English,2020-06-16_10h51.43.751,Experiment_English,3.2.4,Win32,60,,,1,0,340,317,1,339,ratio51_15_18_13.png,,,,,,,,,,,,
,,,,,,,,,,,,Most,All,Half,Some,None,Less than half,Many,Few,More than half,0.36111113,0.28796296,1,0,0,QQQ1,,,,,,,,English,2020-06-16_10h51.43.751,Experiment_English,3.2.4,Win32,60,,,1,0,340,316,1,339,ratio51_15_18_11.png,,,,,,,,,,,,
,,,,,,,,,,,,Few,Half,Some,None,Less than half,Many,More than half,Most,All,0.132407423,-0.0175926,1,0,0,QQQ5,,,,,,,,English,2020-06-16_10h51.43.751,Experiment_English,3.2.4,Win32,60,,,1,0,340,119,1,339,ratio14_4_20_10.png,,,,,,,,,,,,
,,,,,,,,,,,,Some,None,All,Most,Few,Less than half,Many,Half,More than half,-0.415740705,-0.264814826,1,0,0,QQQ9,,,,,,,,English,2020-06-16_10h51.43.751,Experiment_English,3.2.4,Win32,60,,,1,0,340,227,1,339,ratio32_6_10_6.png,,,,,,,,,,,,
,,,,,,,,,,,,Half,None,More than half,Most,Some,Many,Less than half,Few,All,-0.474074068,0.019444437,1,0,0,QQQ8,,,,,,,,English,2020-06-16_10h51.43.751,Experiment_English,3.2.4,Win32,60,,,1,0,340,2,1,339,ratio12_1_3_10.png,,,,,,,,,,,,
,,,,,,,,,,,,None,Few,All,More than half,Many,Half,Most,Some,Less than half,-0.381481474,-0.231481492,1,0,0,QQQ9,,,,,,,,English,2020-06-16_10h51.43.751,Experiment_English,3.2.4,Win32,60,,,1,0,340,7,1,339,ratio12_3_9_2.png,,,,,,,,,,,,
,,,,,,,,,,,,More than half,Some,Few,Less than half,None,All,Many,Half,Most,0.01666668,0.023148141,1,0,0,QQQ5,,,,,,,,English,2020-06-16_10h51.43.751,Experiment_English,3.2.4,Win32,60,,,1,0,340,62,1,339,ratio0Y_0_5_4.png,,,,,,,,,,,,
,,,,,,,,,,,,Some,More than half,Half,Few,Most,None,Many,All,Less than half,0.117592608,0.013888882,1,0,0,QQQ5,,,,,,,,English,2020-06-16_10h51.43.751,Experiment_English,3.2.4,Win32,60,,,1,0,340,232,1,339,ratio32_9_15_8.png,,,,,,,,,,,,
,,,,,,,,,,,,Many,Half,None,Some,Less than half,Few,More than half,Most,All,0.023148162,0.303703701,1,0,0,QQQ4,,,,,,,,English,2020-06-16_10h51.43.751,Experiment_English,3.2.4,Win32,60,,,1,0,340,295,1,339,ratio43_8_14_11.png,,,,,,,,,,,,
,,,,,,,,,,,,All,More than half,Few,Some,Many,Most,None,Less than half,Half,0.363888908,-0.226851863,1,0,0,QQQ3,,,,,,,,English,2020-06-16_10h51.43.751,Experiment_English,3.2.4,Win32,60,,,1,0,340,123,1,339,ratio15_1_6_12.png,,,,,,,,,,,,
,,,,,,,,,,,,None,Most,Less than half,All,Few,More than half,Half,Many,Some,0.413888908,-0.0175926,1,0,0,QQQ2,,,,,,,,English,2020-06-16_10h51.43.751,Experiment_English,3.2.4,Win32,60,,,1,0,340,222,1,339,ratio32_3_5_4.png,,,,,,,,,,,,
,,,,,,,,,,,,Half,Less than half,Few,None,More than half,Some,Many,Most,All,-0.381481474,-0.02222223,1,0,0,QQQ8,,,,,,,,English,2020-06-16_10h51.43.751,Experiment_English,3.2.4,Win32,60,,,1,0,340,204,1,339,ratio31_6_8_1.png,,,,,,,,,,,,
,,,,,,,,,,,,All,None,Many,Less than half,Some,Few,Most,More than half,Half,-0.120370359,-0.043518527,1,0,0,QQQ5,,,,,,,,English,2020-06-16_10h51.43.751,Experiment_English,3.2.4,Win32,60,,,1,0,340,251,1,339,ratio34_6_14_2.png,0.384259278,-0.392592606,1,0,0,continue_button_pause,1,0,1,0,1,0
,,,,,,,,,,,,,,,,,,,,,,,,,,,,,,,,,,English,2020-06-16_10h51.43.751,Experiment_English,3.2.4,Win32,60,,,1,0,340,251,1,339,ratio34_6_14_2.png,,,,,,,,,,,,
,,,,,,,,,,,,Many,Few,More than half,Some,Less than half,All,None,Most,Half,-0.383333326,-0.252777789,1,0,0,QQQ9,,,,,,,,English,2020-06-16_10h51.43.751,Experiment_English,3.2.4,Win32,60,,,1,0,340,284,1,339,ratio43_4_7_11.png,,,,,,,,,,,,
,,,,,,,,,,,,Half,None,More than half,Less than half,Most,All,Some,Few,Many,-0.011111098,0.251851848,1,0,0,QQQ4,,,,,,,,English,2020-06-16_10h51.43.751,Experiment_English,3.2.4,Win32,60,,,1,0,340,118,1,339,ratio14_4_20_8.png,,,,,,,,,,,,
,,,,,,,,,,,,None,Few,Less than half,Some,More than half,All,Half,Many,Most,0.39074076,0.0324074,1,0,0,QQQ2,,,,,,,,English,2020-06-16_10h51.43.751,Experiment_English,3.2.4,Win32,60,,,1,0,340,142,1,339,ratio19_1_10_6.png,,,,,,,,,,,,
,,,,,,,,,,,,Some,Few,All,None,Less than half,Most,Many,More than half,Half,0.120370385,-0.013888897,1,0,0,QQQ5,,,,,,,,English,2020-06-16_10h51.43.751,Experiment_English,3.2.4,Win32,60,,,1,0,340,248,1,339,ratio34_3_7_19.png,,,,,,,,,,,,
,,,,,,,,,,,,Few,Many,Most,More than half,None,Less than half,Half,All,Some,0.061111125,-0.261111179,1,0,0,QQQ6,,,,,,,,English,2020-06-16_10h51.43.751,Experiment_English,3.2.4,Win32,60,,,1,0,340,97,1,339,ratio13_5_20_2.png,,,,,,,,,,,,
,,,,,,,,,,,,Most,None,All,More than half,Less than half,Many,Some,Few,Half,-0.397222215,0.262962959,1,0,0,QQQ7,,,,,,,,English,2020-06-16_10h51.43.751,Experiment_English,3.2.4,Win32,60,,,1,0,340,33,1,339,ratio11_7_14_8.png,,,,,,,,,,,,
,,,,,,,,,,,,More than half,Few,Most,Many,All,Half,None,Less than half,Some,0.391666686,-0.270370438,1,0,0,QQQ3,,,,,,,,English,2020-06-16_10h51.43.751,Experiment_English,3.2.4,Win32,60,,,1,0,340,178,1,339,ratio21_12_18_2.png,,,,,,,,,,,,
,,,,,,,,,,,,Many,Most,All,None,Less than half,Few,Half,Some,More than half,-0.536111078,-0.286111123,1,0,0,QQQ9,,,,,,,,English,2020-06-16_10h51.43.751,Experiment_English,3.2.4,Win32,60,,,1,0,340,163,1,339,ratio21_4_6_1.png,,,,,,,,,,,,
,,,,,,,,,,,,More than half,All,Most,Some,Less than half,Half,Many,Few,None,-0.03796295,0.367592591,1,0,0,QQQ4,,,,,,,,English,2020-06-16_10h51.43.751,Experiment_English,3.2.4,Win32,60,,,1,0,340,185,1,339,ratio23_4_10_1.png,,,,,,,,,,,,
,,,,,,,,,,,,None,More than half,Some,Most,Half,All,Less than half,Few,Many,0.362962982,0.290740738,1,0,0,QQQ1,,,,,,,,English,2020-06-16_10h51.43.751,Experiment_English,3.2.4,Win32,60,,,1,0,340,69,1,339,ratio0Y_0_11_6.png,,,,,,,,,,,,
,,,,,,,,,,,,More than half,Many,Some,Less than half,All,Half,Most,Few,None,0.01666668,0.274074071,1,0,0,QQQ4,,,,,,,,English,2020-06-16_10h51.43.751,Experiment_English,3.2.4,Win32,60,,,1,0,340,95,1,339,ratio13_4_16_10.png,,,,,,,,,,,,
,,,,,,,,,,,,Few,All,Many,Less than half,None,Most,More than half,Half,Some,0.358333352,0.055555549,1,0,0,QQQ2,,,,,,,,English,2020-06-16_10h51.43.751,Experiment_English,3.2.4,Win32,60,,,1,0,340,59,1,339,ratioX0_20_20_9.png,,,,,,,,,,,,
,,,,,,,,,,,,More than half,Most,Less than half,Half,Few,None,Some,All,Many,0.062962977,-0.319444457,1,0,0,QQQ6,,,,,,,,English,2020-06-16_10h51.43.751,Experiment_English,3.2.4,Win32,60,,,1,0,340,66,1,339,ratio0Y_0_9_8.png,,,,,,,,,,,,
,,,,,,,,,,,,Half,Most,Many,All,None,Some,Less than half,More than half,Few,0.044444458,-0.032407415,1,0,0,QQQ5,,,,,,,,English,2020-06-16_10h51.43.751,Experiment_English,3.2.4,Win32,60,,,1,0,340,68,1,339,ratio0Y_0_11_3.png,,,,,,,,,,,,
,,,,,,,,,,,,All,Less than half,Most,Half,Many,More than half,Few,None,Some,0.364814947,-0.033333341,1,0,0,QQQ2,,,,,,,,English,2020-06-16_10h51.43.751,Experiment_English,3.2.4,Win32,60,,,1,0,340,249,1,339,ratio34_3_7_20.png,,,,,,,,,,,,
,,,,,,,,,,,,Less than half,Few,More than half,Half,None,Many,All,Most,Some,-0.396296289,0.082407373,1,0,0,QQQ8,,,,,,,,English,2020-06-16_10h51.43.751,Experiment_English,3.2.4,Win32,60,,,1,0,340,298,1,339,ratio43_8_14_14.png,,,,,,,,,,,,
,,,,,,,,,,,,Some,All,Half,Most,Few,Many,Less than half,More than half,None,-0.119444433,0.068518484,1,0,0,QQQ5,,,,,,,,English,2020-06-16_10h51.43.751,Experiment_English,3.2.4,Win32,60,,,1,0,340,181,1,339,ratio23_2_5_6.png,,,,,,,,,,,,
,,,,,,,,,,,,Half,More than half,Most,Many,All,None,Few,Less than half,Some,-0.393518511,-0.312962975,1,0,0,QQQ9,,,,,,,,English,2020-06-16_10h51.43.751,Experiment_English,3.2.4,Win32,60,,,1,0,340,254,1,339,ratio34_6_14_9.png,,,,,,,,,,,,
,,,,,,,,,,,,Less than half,Few,Some,All,Many,More than half,Half,Most,None,0.463888909,-0.014814822,1,0,0,QQQ2,,,,,,,,English,2020-06-16_10h51.43.751,Experiment_English,3.2.4,Win32,60,,,1,0,340,6,1,339,ratio12_3_9_1.png,,,,,,,,,,,,
,,,,,,,,,,,,More than half,None,All,Most,Half,Few,Some,Less than half,Many,-0.053703635,0.221296292,1,0,0,QQQ4,,,,,,,,English,2020-06-16_10h51.43.751,Experiment_English,3.2.4,Win32,60,,,1,0,340,299,1,339,ratio43_8_14_17.png,,,,,,,,,,,,
,,,,,,,,,,,,Half,Most,More than half,Few,None,Some,All,Many,Less than half,0.363888908,0.006481474,1,0,0,QQQ2,,,,,,,,English,2020-06-16_10h51.43.751,Experiment_English,3.2.4,Win32,60,,,1,0,340,245,1,339,ratio34_3_7_10.png,,,,,,,,,,,,
,,,,,,,,,,,,Some,Few,Many,None,Half,More than half,Most,Less than half,All,0.347222241,0.232407403,1,0,0,QQQ1,,,,,,,,English,2020-06-16_10h51.43.751,Experiment_English,3.2.4,Win32,60,,,1,0,340,256,1,339,ratio34_6_14_11.png,,,,,,,,,,,,
,,,,,,,,,,,,Many,Less than half,None,Half,Few,Some,More than half,Most,All,-0.480555521,0.004629622,1,0,0,QQQ8,,,,,,,,English,2020-06-16_10h51.43.751,Experiment_English,3.2.4,Win32,60,,,1,0,340,177,1,339,ratio21_12_18_1.png,,,,,,,,,,,,
,,,,,,,,,,,,Less than half,Many,Most,All,Half,None,More than half,Few,Some,-0.019444431,0.255555552,1,0,0,QQQ4,,,,,,,,English,2020-06-16_10h51.43.751,Experiment_English,3.2.4,Win32,60,,,1,0,340,56,1,339,ratioX0_17_17_10.png,,,,,,,,,,,,
,,,,,,,,,,,,Some,Many,Less than half,Half,Few,None,Most,More than half,All,-0.398148141,0.261111108,1,0,0,QQQ7,,,,,,,,English,2020-06-16_10h51.43.751,Experiment_English,3.2.4,Win32,60,,,1,0,340,306,1,339,ratio51_5_6_18.png,,,,,,,,,,,,
,,,,,,,,,,,,None,Some,Half,More than half,Many,Most,Few,All,Less than half,-0.025925857,-0.39166668,1,0,0,QQQ6,,,,,,,,English,2020-06-16_10h51.43.751,Experiment_English,3.2.4,Win32,60,,,1,0,340,211,1,339,ratio31_9_12_10.png,,,,,,,,,,,,
,,,,,,,,,,,,Most,All,None,Half,Many,Less than half,Few,More than half,Some,0.490740761,0.299074071,1,0,0,QQQ1,,,,,,,,English,2020-06-16_10h51.43.751,Experiment_English,3.2.4,Win32,60,,,1,0,340,297,1,339,ratio43_8_14_13.png,,,,,,,,,,,,
,,,,,,,,,,,,None,More than half,All,Most,Some,Few,Many,Less than half,Half,-0.087037025,-0.221296307,1,0,0,QQQ6,,,,,,,,English,2020-06-16_10h51.43.751,Experiment_English,3.2.4,Win32,60,,,1,0,340,156,1,339,ratio19_2_20_14.png,,,,,,,,,,,,
,,,,,,,,,,,,None,Some,Many,Less than half,Half,Most,All,Few,More than half,-0.001851839,0.276851849,1,0,0,QQQ4,,,,,,,,English,2020-06-16_10h51.43.751,Experiment_English,3.2.4,Win32,60,,,1,0,340,167,1,339,ratio21_6_9_2.png,,,,,,,,,,,,
,,,,,,,,,,,,Many,None,All,Most,Less than half,Half,More than half,Some,Few,-0.361111103,0.22407407,1,0,0,QQQ7,,,,,,,,English,2020-06-16_10h51.43.751,Experiment_English,3.2.4,Win32,60,,,1,0,340,223,1,339,ratio32_3_5_5.png,,,,,,,,,,,,
,,,,,,,,,,,,Most,Less than half,Few,Many,Half,More than half,None,All,Some,-0.085185173,0.229629626,1,0,0,QQQ4,,,,,,,,English,2020-06-16_10h51.43.751,Experiment_English,3.2.4,Win32,60,,,1,0,340,302,1,339,ratio51_5_6_5.png,,,,,,,,,,,,
,,,,,,,,,,,,Few,All,Most,Many,More than half,Some,None,Half,Less than half,-0.388888881,0.016666659,1,0,0,QQQ8,,,,,,,,English,2020-06-16_10h51.43.751,Experiment_English,3.2.4,Win32,60,,,1,0,340,4,1,339,ratio12_2_6_5.png,,,,,,,,,,,,
,,,,,,,,,,,,Half,None,Most,Few,Many,All,Some,More than half,Less than half,-0.020370357,-0.230555566,1,0,0,QQQ6,,,,,,,,English,2020-06-16_10h51.43.751,Experiment_English,3.2.4,Win32,60,,,1,0,340,54,1,339,ratioX0_15_15_5.png,,,,,,,,,,,,
,,,,,,,,,,,,More than half,Few,Many,Some,Less than half,All,None,Most,Half,-0.005555542,-0.066666675,1,0,0,QQQ5,,,,,,,,English,2020-06-16_10h51.43.751,Experiment_English,3.2.4,Win32,60,,,1,0,340,124,1,339,ratio15_1_6_16.png,0.283333351,-0.382407421,1,0,0,continue_button_pause,1,0,1,0,1,0
,,,,,,,,,,,,,,,,,,,,,,,,,,,,,,,,,,English,2020-06-16_10h51.43.751,Experiment_English,3.2.4,Win32,60,,,1,0,340,124,1,339,ratio15_1_6_16.png,,,,,,,,,,,,
,,,,,,,,,,,,Less than half,More than half,Few,Half,Most,None,Many,Some,All,0.0296297,0.212962959,1,0,0,QQQ4,,,,,,,,English,2020-06-16_10h51.43.751,Experiment_English,3.2.4,Win32,60,,,1,0,340,247,1,339,ratio34_3_7_12.png,,,,,,,,,,,,
,,,,,,,,,,,,Most,None,Half,Many,All,Some,Few,Less than half,More than half,0.505555576,0.295370367,1,0,0,QQQ1,,,,,,,,English,2020-06-16_10h51.43.751,Experiment_English,3.2.4,Win32,60,,,1,0,340,294,1,339,ratio43_8_14_9.png,,,,,,,,,,,,
,,,,,,,,,,,,Few,More than half,Most,All,Many,None,Half,Some,Less than half,0.352777796,-0.255555567,1,0,0,QQQ3,,,,,,,,English,2020-06-16_10h51.43.751,Experiment_English,3.2.4,Win32,60,,,1,0,340,202,1,339,ratio31_3_4_8.png,,,,,,,,,,,,
,,,,,,,,,,,,Some,More than half,None,All,Many,Less than half,Most,Half,Few,-0.504629624,-0.286111123,1,0,0,QQQ9,,,,,,,,English,2020-06-16_10h51.43.751,Experiment_English,3.2.4,Win32,60,,,1,0,340,106,1,339,ratio14_2_10_2.png,,,,,,,,,,,,
,,,,,,,,,,,,More than half,Half,Most,All,Less than half,None,Many,Some,Few,0.403703723,-0.232407418,1,0,0,QQQ3,,,,,,,,English,2020-06-16_10h51.43.751,Experiment_English,3.2.4,Win32,60,,,1,0,340,334,1,339,ratio91_18_20_9.png,,,,,,,,,,,,
,,,,,,,,,,,,Some,All,Most,None,Half,Less than half,Few,Many,More than half,0.473148168,0.299999997,1,0,0,QQQ1,,,,,,,,English,2020-06-16_10h51.43.751,Experiment_English,3.2.4,Win32,60,,,1,0,340,17,1,339,ratio12_6_18_5.png,,,,,,,,,,,,
,,,,,,,,,,,,Few,All,Many,Some,Most,None,More than half,Less than half,Half,-0.353703696,0.060185179,1,0,0,QQQ8,,,,,,,,English,2020-06-16_10h51.43.751,Experiment_English,3.2.4,Win32,60,,,1,0,340,94,1,339,ratio13_4_16_8.png,,,,,,,,,,,,
,,,,,,,,,,,,Few,All,More than half,Some,Less than half,None,Most,Half,Many,0.377777797,0.021296289,1,0,0,QQQ2,,,,,,,,English,2020-06-16_10h51.43.751,Experiment_English,3.2.4,Win32,60,,,1,0,340,52,1,339,ratioX0_13_13_10.png,,,,,,,,,,,,
,,,,,,,,,,,,All,Some,Less than half,Half,Few,More than half,Many,None,Most,0.093518533,-0.065740749,1,0,0,QQQ5,,,,,,,,English,2020-06-16_10h51.43.751,Experiment_English,3.2.4,Win32,60,,,1,0,340,136,1,339,ratio15_3_18_8.png,,,,,,,,,,,,
,,,,,,,,,,,,Most,None,More than half,Many,Less than half,Few,Some,Half,All,0.375925945,-0.039814823,1,0,0,QQQ2,,,,,,,,English,2020-06-16_10h51.43.751,Experiment_English,3.2.4,Win32,60,,,1,0,340,73,1,339,ratio0Y_0_14_7.png,,,,,,,,,,,,
,,,,,,,,,,,,Half,Many,Less than half,Some,More than half,Few,All,Most,None,-0.410185178,-0.070370379,1,0,0,QQQ8,,,,,,,,English,2020-06-16_10h51.43.751,Experiment_English,3.2.4,Win32,60,,,1,0,340,234,1,339,ratio32_9_15_10.png,,,,,,,,,,,,
,,,,,,,,,,,,Half,None,Few,All,Many,Some,Most,More than half,Less than half,-0.395370363,0.301851849,1,0,0,QQQ7,,,,,,,,English,2020-06-16_10h51.43.751,Experiment_English,3.2.4,Win32,60,,,1,0,340,269,1,339,ratio41_8_10_6.png,,,,,,,,,,,,
,,,,,,,,,,,,Less than half,Few,More than half,All,Some,Most,Half,None,Many,-0.057407395,0.060185179,1,0,0,QQQ5,,,,,,,,English,2020-06-16_10h51.43.751,Experiment_English,3.2.4,Win32,60,,,1,0,340,231,1,339,ratio32_9_15_2.png,,,,,,,,,,,,
,,,,,,,,,,,,Less than half,Few,Many,Most,Some,Half,More than half,None,All,-0.003703691,0.218518514,1,0,0,QQQ4,,,,,,,,English,2020-06-16_10h51.43.751,Experiment_English,3.2.4,Win32,60,,,1,0,340,332,1,339,ratio91_18_20_4.png,,,,,,,,,,,,
,,,,,,,,,,,,Few,None,Many,All,Most,Less than half,More than half,Half,Some,0.061111125,-0.071296305,1,0,0,QQQ5,,,,,,,,English,2020-06-16_10h51.43.751,Experiment_English,3.2.4,Win32,60,,,1,0,340,173,1,339,ratio21_8_12_9.png,,,,,,,,,,,,
,,,,,,,,,,,,Most,Less than half,Few,All,None,Many,Some,Half,More than half,-0.53518518,-0.04722223,1,0,0,QQQ8,,,,,,,,English,2020-06-16_10h51.43.751,Experiment_English,3.2.4,Win32,60,,,1,0,340,290,1,339,ratio43_8_14_3.png,,,,,,,,,,,,
,,,,,,,,,,,,More than half,All,Most,Many,Less than half,Few,None,Some,Half,0.433333353,-0.07685186,1,0,0,QQQ2,,,,,,,,English,2020-06-16_10h51.43.751,Experiment_English,3.2.4,Win32,60,,,1,0,340,51,1,339,ratioX0_12_12_9.png,,,,,,,,,,,,
,,,,,,,,,,,,Some,Half,Few,Most,Less than half,Many,More than half,None,All,0.426851871,0.255555552,1,0,0,QQQ1,,,,,,,,English,2020-06-16_10h51.43.751,Experiment_English,3.2.4,Win32,60,,,1,0,340,27,1,339,ratio11_5_10_7.png,,,,,,,,,,,,
,,,,,,,,,,,,All,More than half,Most,Some,Half,Few,Less than half,Many,None,0.102777793,-0.289814827,1,0,0,QQQ6,,,,,,,,English,2020-06-16_10h51.43.751,Experiment_English,3.2.4,Win32,60,,,1,0,340,141,1,339,ratio19_1_10_2.png,,,,,,,,,,,,
,,,,,,,,,,,,Few,More than half,Some,Many,Less than half,Half,All,Most,None,0.364814947,-0.061111119,1,0,0,QQQ2,,,,,,,,English,2020-06-16_10h51.43.751,Experiment_English,3.2.4,Win32,60,,,1,0,340,305,1,339,ratio51_5_6_14.png,,,,,,,,,,,,
,,,,,,,,,,,,Some,All,Half,Less than half,Many,More than half,Most,Few,None,0.36111113,0.245370367,1,0,0,QQQ1,,,,,,,,English,2020-06-16_10h51.43.751,Experiment_English,3.2.4,Win32,60,,,1,0,340,92,1,339,ratio13_4_16_3.png,,,,,,,,,,,,
,,,,,,,,,,,,More than half,Few,Less than half,Many,None,All,Some,Most,Half,0.3564815,-0.259259271,1,0,0,QQQ3,,,,,,,,English,2020-06-16_10h51.43.751,Experiment_English,3.2.4,Win32,60,,,1,0,340,85,1,339,ratio13_2_8_5.png,,,,,,,,,,,,
,,,,,,,,,,,,Half,Most,Less than half,All,Few,Some,More than half,None,Many,0.53425928,0.275925923,1,0,0,QQQ1,,,,,,,,English,2020-06-16_10h51.43.751,Experiment_English,3.2.4,Win32,60,,,1,0,340,243,1,339,ratio34_3_7_8.png,,,,,,,,,,,,
,,,,,,,,,,,,All,Many,Some,Few,Half,Less than half,Most,None,More than half,-0.453703697,0.29259259,1,0,0,QQQ7,,,,,,,,English,2020-06-16_10h51.43.751,Experiment_English,3.2.4,Win32,60,,,1,0,340,319,1,339,ratio51_15_18_20.png,,,,,,,,,,,,
,,,,,,,,,,,,Less than half,All,Many,Most,Few,None,Some,More than half,Half,-0.3824074,-0.245370381,1,0,0,QQQ9,,,,,,,,English,2020-06-16_10h51.43.751,Experiment_English,3.2.4,Win32,60,,,1,0,340,80,1,339,ratio13_1_4_3.png,,,,,,,,,,,,
,,,,,,,,,,,,Many,Less than half,Some,Few,More than half,None,Half,Most,All,-0.419444437,-0.027777786,1,0,0,QQQ8,,,,,,,,English,2020-06-16_10h51.43.751,Experiment_English,3.2.4,Win32,60,,,1,0,340,32,1,339,ratio11_7_14_5.png,,,,,,,,,,,,
,,,,,,,,,,,,More than half,Some,None,Most,Many,Half,Few,Less than half,All,0.022222236,0.231481477,1,0,0,QQQ4,,,,,,,,English,2020-06-16_10h51.43.751,Experiment_English,3.2.4,Win32,60,,,1,0,340,287,1,339,ratio43_4_7_17.png,,,,,,,,,,,,
,,,,,,,,,,,,Half,More than half,Less than half,Many,Most,Some,All,Few,None,0.018518532,0.06666666,1,0,0,QQQ5,,,,,,,,English,2020-06-16_10h51.43.751,Experiment_English,3.2.4,Win32,60,,,1,0,340,275,1,339,ratio41_16_20_2.png,,,,,,,,,,,,
,,,,,,,,,,,,Most,Less than half,Some,All,More than half,Many,None,Half,Few,0.375925945,-0.012037045,1,0,0,QQQ2,,,,,,,,English,2020-06-16_10h51.43.751,Experiment_English,3.2.4,Win32,60,,,1,0,340,100,1,339,ratio14_1_5_3.png,,,,,,,,,,,,
,,,,,,,,,,,,All,Some,None,Less than half,Few,Half,Many,Most,More than half,-0.405555548,0.29259259,1,0,0,QQQ7,,,,,,,,English,2020-06-16_10h51.43.751,Experiment_English,3.2.4,Win32,60,,,1,0,340,172,1,339,ratio21_8_12_6.png,,,,,,,,,,,,
,,,,,,,,,,,,Some,More than half,All,Most,Many,Less than half,Half,Few,None,-0.069444432,0.037962956,1,0,0,QQQ5,,,,,,,,English,2020-06-16_10h51.43.751,Experiment_English,3.2.4,Win32,60,,,1,0,340,171,1,339,ratio21_8_12_4.png,,,,,,,,,,,,
,,,,,,,,,,,,All,Half,Less than half,Few,Many,Some,More than half,None,Most,0.460185205,-0.290740753,1,0,0,QQQ3,,,,,,,,English,2020-06-16_10h51.43.751,Experiment_English,3.2.4,Win32,60,,,1,0,340,101,1,339,ratio14_1_5_7.png,,,,,,,,,,,,
,,,,,,,,,,,,More than half,Less than half,All,Half,None,Some,Most,Few,Many,0.374074206,0.285185182,1,0,0,QQQ1,,,,,,,,English,2020-06-16_10h51.43.751,Experiment_English,3.2.4,Win32,60,,,1,0,340,160,1,339,ratio21_2_3_2.png,,,,,,,,,,,,
,,,,,,,,,,,,Half,All,None,Most,Less than half,Few,More than half,Some,Many,0.078703718,0.31203702,1,0,0,QQQ4,,,,,,,,English,2020-06-16_10h51.43.751,Experiment_English,3.2.4,Win32,60,,,1,0,340,207,1,339,ratio31_6_8_9.png,0.299074092,-0.369444457,1,0,0,continue_button_pause,1,0,1,0,1,0
,,,,,,,,,,,,,,,,,,,,,,,,,,,,,,,,,,English,2020-06-16_10h51.43.751,Experiment_English,3.2.4,Win32,60,,,1,0,340,207,1,339,ratio31_6_8_9.png,,,,,,,,,,,,
,,,,,,,,,,,,More than half,None,All,Many,Some,Less than half,Few,Most,Half,-0.016666597,-0.267592604,1,0,0,QQQ6,,,,,,,,English,2020-06-16_10h51.43.751,Experiment_English,3.2.4,Win32,60,,,1,0,340,91,1,339,ratio13_3_12_10.png,,,,,,,,,,,,
,,,,,,,,,,,,Many,Less than half,More than half,All,Some,Most,Half,Few,None,0.414814834,0.234259255,1,0,0,QQQ1,,,,,,,,English,2020-06-16_10h51.43.751,Experiment_English,3.2.4,Win32,60,,,1,0,340,283,1,339,ratio43_4_7_8.png,,,,,,,,,,,,
,,,,,,,,,,,,All,None,Less than half,Few,More than half,Most,Half,Many,Some,0.027777791,-0.319444457,1,0,0,QQQ6,,,,,,,,English,2020-06-16_10h51.43.751,Experiment_English,3.2.4,Win32,60,,,1,0,340,261,1,339,ratio41_4_5_3.png,,,,,,,,,,,,
,,,,,,,,,,,,Many,Some,All,Few,More than half,Half,None,Most,Less than half,0.051851866,0.291666664,1,0,0,QQQ4,,,,,,,,English,2020-06-16_10h51.43.751,Experiment_English,3.2.4,Win32,60,,,1,0,340,107,1,339,ratio14_2_10_5.png,,,,,,,,,,,,
,,,,,,,,,,,,Half,Less than half,Some,None,Most,Many,Few,More than half,All,0.451851872,-0.333333346,1,0,0,QQQ3,,,,,,,,English,2020-06-16_10h51.43.751,Experiment_English,3.2.4,Win32,60,,,1,0,340,174,1,339,ratio21_10_15_1.png,,,,,,,,,,,,
,,,,,,,,,,,,Half,Many,All,Some,Most,Few,Less than half,None,More than half,0.117592608,-0.019444452,1,0,0,QQQ5,,,,,,,,English,2020-06-16_10h51.43.751,Experiment_English,3.2.4,Win32,60,,,1,0,340,331,1,339,ratio91_18_20_3.png,,,,,,,,,,,,
,,,,,,,,,,,,Most,Some,All,None,Less than half,Few,Many,More than half,Half,-0.386111104,0.027777771,1,0,0,QQQ8,,,,,,,,English,2020-06-16_10h51.43.751,Experiment_English,3.2.4,Win32,60,,,1,0,340,285,1,339,ratio43_4_7_14.png,,,,,,,,,,,,
,,,,,,,,,,,,Half,Less than half,Most,Some,All,None,Few,More than half,Many,0.383333465,0.040740706,1,0,0,QQQ2,,,,,,,,English,2020-06-16_10h51.43.751,Experiment_English,3.2.4,Win32,60,,,1,0,340,15,1,339,ratio12_5_15_5.png,,,,,,,,,,,,
,,,,,,,,,,,,Less than half,All,More than half,Some,Most,Many,None,Half,Few,-0.474999994,-0.279629698,1,0,0,QQQ9,,,,,,,,English,2020-06-16_10h51.43.751,Experiment_English,3.2.4,Win32,60,,,1,0,340,183,1,339,ratio23_2_5_9.png,,,,,,,,,,,,
,,,,,,,,,,,,Few,Most,Less than half,None,Some,Half,More than half,Many,All,0.475926059,0.270370353,1,0,0,QQQ1,,,,,,,,English,2020-06-16_10h51.43.751,Experiment_English,3.2.4,Win32,60,,,1,0,340,158,1,339,ratio19_2_20_17.png,,,,,,,,,,,,
,,,,,,,,,,,,Less than half,Few,Half,None,All,Some,Most,More than half,Many,-0.033333321,-0.344444514,1,0,0,QQQ6,,,,,,,,English,2020-06-16_10h51.43.751,Experiment_English,3.2.4,Win32,60,,,1,0,340,253,1,339,ratio34_6_14_5.png,,,,,,,,,,,,
,,,,,,,,,,,,All,More than half,Some,Many,Few,Half,Less than half,Most,None,-0.388888881,0.063888854,1,0,0,QQQ8,,,,,,,,English,2020-06-16_10h51.43.751,Experiment_English,3.2.4,Win32,60,,,1,0,340,335,1,339,ratio91_18_20_11.png,,,,,,,,,,,,
,,,,,,,,,,,,All,More than half,Less than half,Few,Some,Half,None,Most,Many,-0.462037002,-0.009259267,1,0,0,QQQ8,,,,,,,,English,2020-06-16_10h51.43.751,Experiment_English,3.2.4,Win32,60,,,1,0,340,205,1,339,ratio31_6_8_2.png,,,,,,,,,,,,
,,,,,,,,,,,,Less than half,None,Half,Few,More than half,Most,Some,All,Many,0.45000002,0.246296293,1,0,0,QQQ1,,,,,,,,English,2020-06-16_10h51.43.751,Experiment_English,3.2.4,Win32,60,,,1,0,340,11,1,339,ratio12_4_12_7.png,,,,,,,,,,,,
,,,,,,,,,,,,More than half,Most,Less than half,Few,All,None,Half,Many,Some,0.458333353,-0.340740753,1,0,0,QQQ3,,,,,,,,English,2020-06-16_10h51.43.751,Experiment_English,3.2.4,Win32,60,,,1,0,340,5,1,339,ratio12_2_6_9.png,,,,,,,,,,,,
,,,,,,,,,,,,More than half,Less than half,Most,Some,Many,All,None,Half,Few,0.112962978,-0.004629637,1,0,0,QQQ5,,,,,,,,English,2020-06-16_10h51.43.751,Experiment_English,3.2.4,Win32,60,,,1,0,340,166,1,339,ratio21_6_9_1.png,,,,,,,,,,,,
,,,,,,,,,,,,Many,Most,All,Some,None,Half,Less than half,Few,More than half,-0.427777771,0.303703701,1,0,0,QQQ7,,,,,,,,English,2020-06-16_10h51.43.751,Experiment_English,3.2.4,Win32,60,,,1,0,340,116,1,339,ratio14_4_20_3.png,,,,,,,,,,,,
,,,,,,,,,,,,Few,Most,Many,All,Less than half,None,More than half,Half,Some,0.566666688,0.339814798,1,0,0,QQQ1,,,,,,,,English,2020-06-16_10h51.43.751,Experiment_English,3.2.4,Win32,60,,,1,0,340,145,1,339,ratio19_1_10_15.png,,,,,,,,,,,,
,,,,,,,,,,,,Many,None,All,Most,Some,Less than half,Half,Few,More than half,-0.428703697,-0.231481492,1,0,0,QQQ9,,,,,,,,English,2020-06-16_10h51.43.751,Experiment_English,3.2.4,Win32,60,,,1,0,340,164,1,339,ratio21_4_6_6.png,,,,,,,,,,,,
,,,,,,,,,,,,Few,None,Many,More than half,Less than half,All,Most,Some,Half,0.3814815,0.251851848,1,0,0,QQQ1,,,,,,,,English,2020-06-16_10h51.43.751,Experiment_English,3.2.4,Win32,60,,,1,0,340,154,1,339,ratio19_2_20_11.png,,,,,,,,,,,,
,,,,,,,,,,,,Half,Most,None,All,More than half,Less than half,Many,Few,Some,0.086111126,0.025925919,1,0,0,QQQ5,,,,,,,,English,2020-06-16_10h51.43.751,Experiment_English,3.2.4,Win32,60,,,1,0,340,203,1,339,ratio31_3_4_9.png,,,,,,,,,,,,
,,,,,,,,,,,,Less than half,Few,Many,Half,More than half,None,Some,All,Most,0.431481501,0.325925909,1,0,0,QQQ1,,,,,,,,English,2020-06-16_10h51.43.751,Experiment_English,3.2.4,Win32,60,,,1,0,340,184,1,339,ratio23_2_5_10.png,,,,,,,,,,,,
,,,,,,,,,,,,Many,None,Less than half,Most,All,Half,Some,Few,More than half,-0.487037031,0.324999997,1,0,0,QQQ7,,,,,,,,English,2020-06-16_10h51.43.751,Experiment_English,3.2.4,Win32,60,,,1,0,340,36,1,339,ratio11_9_18_1.png,,,,,,,,,,,,
,,,,,,,,,,,,Most,Few,None,Less than half,All,Many,Some,Half,More than half,0.465740761,0.225925922,1,0,0,QQQ1,,,,,,,,English,2020-06-16_10h51.43.751,Experiment_English,3.2.4,Win32,60,,,1,0,340,301,1,339,ratio51_5_6_4.png,,,,,,,,,,,,
,,,,,,,,,,,,Few,Many,More than half,Some,Less than half,All,None,Half,Most,-0.367592585,-0.244444456,1,0,0,QQQ9,,,,,,,,English,2020-06-16_10h51.43.751,Experiment_English,3.2.4,Win32,60,,,1,0,340,300,1,339,ratio51_5_6_1.png,,,,,,,,,,,,
,,,,,,,,,,,,Some,Half,More than half,All,None,Most,Many,Less than half,Few,0.470370391,0.324999997,1,0,0,QQQ1,,,,,,,,English,2020-06-16_10h51.43.751,Experiment_English,3.2.4,Win32,60,,,1,0,340,195,1,339,ratio23_8_20_1.png,,,,,,,,,,,,
,,,,,,,,,,,,Half,Some,Most,None,All,Few,Many,Less than half,More than half,0.036111125,-0.000925933,1,0,0,QQQ5,,,,,,,,English,2020-06-16_10h51.43.751,Experiment_English,3.2.4,Win32,60,,,1,0,340,41,1,339,ratioX0_4_4_9.png,,,,,,,,,,,,
,,,,,,,,,,,,Some,Most,None,More than half,All,Half,Many,Less than half,Few,-0.374999992,0.077777743,1,0,0,QQQ8,,,,,,,,English,2020-06-16_10h51.43.751,Experiment_English,3.2.4,Win32,60,,,1,0,340,93,1,339,ratio13_4_16_7.png,,,,,,,,,,,,
,,,,,,,,,,,,None,All,Less than half,Most,Many,Few,Half,Some,More than half,0.451851872,-0.279629698,1,0,0,QQQ3,,,,,,,,English,2020-06-16_10h51.43.751,Experiment_English,3.2.4,Win32,60,,,1,0,340,18,1,339,ratio12_6_18_7.png,,,,,,,,,,,,
,,,,,,,,,,,,Half,None,Less than half,Few,Some,More than half,All,Many,Most,0.383333465,-0.23796303,1,0,0,QQQ3,,,,,,,,English,2020-06-16_10h51.43.751,Experiment_English,3.2.4,Win32,60,,,1,0,340,16,1,339,ratio12_5_15_6.png,,,,,,,,,,,,
,,,,,,,,,,,,All,Some,None,Half,Few,Many,More than half,Less than half,Most,0.453703724,-0.224074141,1,0,0,QQQ3,,,,,,,,English,2020-06-16_10h51.43.751,Experiment_English,3.2.4,Win32,60,,,1,0,340,77,1,339,ratio0Y_0_18_3.png,,,,,,,,,,,,
,,,,,,,,,,,,All,More than half,Less than half,Many,Few,None,Half,Some,Most,-0.395370363,0.266666663,1,0,0,QQQ7,,,,,,,,English,2020-06-16_10h51.43.751,Experiment_English,3.2.4,Win32,60,,,1,0,340,25,1,339,ratio11_4_8_10.png,,,,,,,,,,,,
,,,,,,,,,,,,All,None,Some,More than half,Most,Few,Many,Half,Less than half,-0.098148136,0.290740738,1,0,0,QQQ4,,,,,,,,English,2020-06-16_10h51.43.751,Experiment_English,3.2.4,Win32,60,,,1,0,340,209,1,339,ratio31_9_12_6.png,,,,,,,,,,,,
,,,,,,,,,,,,Few,Half,All,None,More than half,Less than half,Many,Some,Most,-0.423148141,-0.320370383,1,0,0,QQQ9,,,,,,,,English,2020-06-16_10h51.43.751,Experiment_English,3.2.4,Win32,60,,,1,0,340,175,1,339,ratio21_10_15_2.png,0.311111129,-0.368518531,1,0,0,continue_button_pause,1,0,1,0,1,0
,,,,,,,,,,,,,,,,,,,,,,,,,,,,,,,,,,English,2020-06-16_10h51.43.751,Experiment_English,3.2.4,Win32,60,,,1,0,340,175,1,339,ratio21_10_15_2.png,,,,,,,,,,,,
,,,,,,,,,,,,None,All,Most,Few,Some,Half,Less than half,Many,More than half,0.413888908,0.050925919,1,0,0,QQQ2,,,,,,,,English,2020-06-16_10h51.43.751,Experiment_English,3.2.4,Win32,60,,,1,0,340,44,1,339,ratioX0_7_7_5.png,,,,,,,,,,,,
,,,,,,,,,,,,Some,All,More than half,Half,Most,Many,Few,None,Less than half,-0.41203703,0.234259255,1,0,0,QQQ7,,,,,,,,English,2020-06-16_10h51.43.751,Experiment_English,3.2.4,Win32,60,,,1,0,340,127,1,339,ratio15_2_12_2.png,,,,,,,,,,,,
,,,,,,,,,,,,None,Few,Some,Less than half,Half,Many,Most,More than half,All,-0.467592586,0.360185183,1,0,0,QQQ7,,,,,,,,English,2020-06-16_10h51.43.751,Experiment_English,3.2.4,Win32,60,,,1,0,340,323,1,339,ratio91_9_10_5.png,,,,,,,,,,,,
,,,,,,,,,,,,More than half,All,Less than half,Most,Some,Half,Many,Few,None,-0.3824074,0.271296293,1,0,0,QQQ7,,,,,,,,English,2020-06-16_10h51.43.751,Experiment_English,3.2.4,Win32,60,,,1,0,340,34,1,339,ratio11_8_16_8.png,,,,,,,,,,,,
,,,,,,,,,,,,None,Many,Half,Less than half,More than half,Few,Most,All,Some,-0.479629624,0.35185185,1,0,0,QQQ7,,,,,,,,English,2020-06-16_10h51.43.751,Experiment_English,3.2.4,Win32,60,,,1,0,340,265,1,339,ratio41_8_10_1.png,,,,,,,,,,,,
,,,,,,,,,,,,Many,Less than half,Some,None,Most,Few,All,More than half,Half,0.407407427,-0.282407419,1,0,0,QQQ3,,,,,,,,English,2020-06-16_10h51.43.751,Experiment_English,3.2.4,Win32,60,,,1,0,340,29,1,339,ratio11_6_12_1.png,,,,,,,,,,,,
,,,,,,,,,,,,Some,None,Few,All,Half,Less than half,Many,Most,More than half,-0.432407401,-0.329629642,1,0,0,QQQ9,,,,,,,,English,2020-06-16_10h51.43.751,Experiment_English,3.2.4,Win32,60,,,1,0,340,233,1,339,ratio32_9_15_9.png,,,,,,,,,,,,
,,,,,,,,,,,,Many,None,Less than half,Most,All,Half,More than half,Some,Few,-0.051851839,0.249999996,1,0,0,QQQ4,,,,,,,,English,2020-06-16_10h51.43.751,Experiment_English,3.2.4,Win32,60,,,1,0,340,312,1,339,ratio51_10_12_16.png,,,,,,,,,,,,
,,,,,,,,,,,,All,Most,None,Less than half,Half,Few,More than half,Many,Some,0.410185205,0.017592585,1,0,0,QQQ2,,,,,,,,English,2020-06-16_10h51.43.751,Experiment_English,3.2.4,Win32,60,,,1,0,340,339,1,339,ratio91_18_20_19.png,,,,,,,,,,,,
,,,,,,,,,,,,Some,Most,Few,Many,Half,More than half,None,Less than half,All,0.437037057,0.297222219,1,0,0,QQQ1,,,,,,,,English,2020-06-16_10h51.43.751,Experiment_English,3.2.4,Win32,60,,,1,0,340,89,1,339,ratio13_3_12_6.png,,,,,,,,,,,,
,,,,,,,,,,,,More than half,Most,None,Few,Many,Half,Less than half,All,Some,-0.385185178,-0.250000011,1,0,0,QQQ9,,,,,,,,English,2020-06-16_10h51.43.751,Experiment_English,3.2.4,Win32,60,,,1,0,340,250,1,339,ratio34_6_14_1.png,,,,,,,,,,,,
,,,,,,,,,,,,Most,Half,Many,Some,Few,Less than half,None,All,More than half,-0.431481475,0.285185182,1,0,0,QQQ7,,,,,,,,English,2020-06-16_10h51.43.751,Experiment_English,3.2.4,Win32,60,,,1,0,340,60,1,339,ratio0Y_0_3_5.png,,,,,,,,,,,,
,,,,,,,,,,,,Many,Few,Some,More than half,Less than half,Half,Most,All,None,0.065740755,-0.306481493,1,0,0,QQQ6,,,,,,,,English,2020-06-16_10h51.43.751,Experiment_English,3.2.4,Win32,60,,,1,0,340,241,1,339,ratio34_3_7_5.png,,,,,,,,,,,,
,,,,,,,,,,,,All,None,Most,Few,Half,Some,More than half,Less than half,Many,0.05092594,-0.010185193,1,0,0,QQQ5,,,,,,,,English,2020-06-16_10h51.43.751,Experiment_English,3.2.4,Win32,60,,,1,0,340,20,1,339,ratio11_2_4_3.png,,,,,,,,,,,,
,,,,,,,,,,,,Half,Few,All,None,Less than half,More than half,Some,Many,Most,-0.402777771,0.247222218,1,0,0,QQQ7,,,,,,,,English,2020-06-16_10h51.43.751,Experiment_English,3.2.4,Win32,60,,,1,0,340,257,1,339,ratio34_6_14_12.png,,,,,,,,,,,,
,,,,,,,,,,,,Many,All,Most,Half,None,More than half,Less than half,Some,Few,-0.381481474,0.31296296,1,0,0,QQQ7,,,,,,,,English,2020-06-16_10h51.43.751,Experiment_English,3.2.4,Win32,60,,,1,0,340,125,1,339,ratio15_1_6_19.png,,,,,,,,,,,,
,,,,,,,,,,,,Few,Most,All,None,More than half,Some,Many,Less than half,Half,0.042592606,-0.025000008,1,0,0,QQQ5,,,,,,,,English,2020-06-16_10h51.43.751,Experiment_English,3.2.4,Win32,60,,,1,0,340,200,1,339,ratio31_3_4_4.png,,,,,,,,,,,,
,,,,,,,,,,,,Few,Less than half,Half,Some,Most,None,Many,All,More than half,-0.071296284,-0.231481492,1,0,0,QQQ6,,,,,,,,English,2020-06-16_10h51.43.751,Experiment_English,3.2.4,Win32,60,,,1,0,340,78,1,339,ratio0Y_0_19_1.png,,,,,,,,,,,,
,,,,,,,,,,,,Few,Some,None,All,Many,Half,Most,Less than half,More than half,0.550000134,0.359259257,1,0,0,QQQ1,,,,,,,,English,2020-06-16_10h51.43.751,Experiment_English,3.2.4,Win32,60,,,1,0,340,0,1,339,ratio12_1_3_3.png,,,,,,,,,,,,
,,,,,,,,,,,,Some,Many,All,None,Less than half,Few,Half,Most,More than half,-0.420370335,0.277777774,1,0,0,QQQ7,,,,,,,,English,2020-06-16_10h51.43.751,Experiment_English,3.2.4,Win32,60,,,1,0,340,38,1,339,ratio11_10_20_5.png,,,,,,,,,,,,
,,,,,,,,,,,,Less than half,All,Half,Few,None,More than half,Many,Most,Some,-0.50092592,-0.259259271,1,0,0,QQQ9,,,,,,,,English,2020-06-16_10h51.43.751,Experiment_English,3.2.4,Win32,60,,,1,0,340,31,1,339,ratio11_6_12_9.png,,,,,,,,,,,,
,,,,,,,,,,,,Most,Few,Half,More than half,Many,Some,None,All,Less than half,0.366666685,0.237037033,1,0,0,QQQ1,,,,,,,,English,2020-06-16_10h51.43.751,Experiment_English,3.2.4,Win32,60,,,1,0,340,324,1,339,ratio91_9_10_7.png,,,,,,,,,,,,
,,,,,,,,,,,,Less than half,All,None,Some,Most,More than half,Half,Many,Few,0.067592607,0.32129628,1,0,0,QQQ4,,,,,,,,English,2020-06-16_10h51.43.751,Experiment_English,3.2.4,Win32,60,,,1,0,340,30,1,339,ratio11_6_12_6.png,,,,,,,,,,,,
,,,,,,,,,,,,Many,Some,Few,Most,Half,None,Less than half,All,More than half,-0.062037025,-0.317592605,1,0,0,QQQ6,,,,,,,,English,2020-06-16_10h51.43.751,Experiment_English,3.2.4,Win32,60,,,1,0,340,71,1,339,ratio0Y_0_12_10.png,,,,,,,,,,,,
,,,,,,,,,,,,All,Half,More than half,Few,Many,Some,None,Less than half,Most,-0.420370335,-0.26851853,1,0,0,QQQ9,,,,,,,,English,2020-06-16_10h51.43.751,Experiment_English,3.2.4,Win32,60,,,1,0,340,277,1,339,ratio41_16_20_8.png,,,,,,,,,,,,
,,,,,,,,,,,,Most,Less than half,Few,None,All,More than half,Many,Half,Some,-0.579629625,-0.307407476,1,0,0,QQQ9,,,,,,,,English,2020-06-16_10h51.43.751,Experiment_English,3.2.4,Win32,60,,,1,0,340,170,1,339,ratio21_6_9_8.png,,,,,,,,,,,,
,,,,,,,,,,,,Most,Some,Half,Less than half,Few,More than half,Many,All,None,-0.079629618,0.227777774,1,0,0,QQQ4,,,,,,,,English,2020-06-16_10h51.43.751,Experiment_English,3.2.4,Win32,60,,,1,0,340,137,1,339,ratio15_3_18_16.png,,,,,,,,,,,,
,,,,,,,,,,,,Few,Less than half,More than half,None,All,Some,Half,Many,Most,-0.060185173,0.257407404,1,0,0,QQQ4,,,,,,,,English,2020-06-16_10h51.43.751,Experiment_English,3.2.4,Win32,60,,,1,0,340,76,1,339,ratio0Y_0_17_10.png,,,,,,,,,,,,
,,,,,,,,,,,,Most,Few,All,Some,Many,Less than half,Half,None,More than half,-0.067592524,-0.24351853,1,0,0,QQQ6,,,,,,,,English,2020-06-16_10h51.43.751,Experiment_English,3.2.4,Win32,60,,,1,0,340,186,1,339,ratio23_4_10_2.png,,,,,,,,,,,,
,,,,,,,,,,,,Less than half,Most,Some,Few,Many,More than half,All,Half,None,-0.016666597,0.245370367,1,0,0,QQQ4,,,,,,,,English,2020-06-16_10h51.43.751,Experiment_English,3.2.4,Win32,60,,,1,0,340,126,1,339,ratio15_2_12_1.png,,,,,,,,,,,,
,,,,,,,,,,,,Many,Some,More than half,Less than half,Most,Half,None,All,Few,0.340740759,0.238888885,1,0,0,QQQ1,,,,,,,,English,2020-06-16_10h51.43.751,Experiment_English,3.2.4,Win32,60,,,1,0,340,168,1,339,ratio21_6_9_3.png,,,,,,,,,,,,
,,,,,,,,,,,,Half,All,Some,None,Most,Few,More than half,Many,Less than half,0.035185199,-0.362963032,1,0,0,QQQ6,,,,,,,,English,2020-06-16_10h51.43.751,Experiment_English,3.2.4,Win32,60,,,1,0,340,143,1,339,ratio19_1_10_9.png,,,,,,,,,,,,
,,,,,,,,,,,,Many,All,Some,None,Most,Less than half,Few,More than half,Half,-0.392592585,0.268518515,1,0,0,QQQ7,,,,,,,,English,2020-06-16_10h51.43.751,Experiment_English,3.2.4,Win32,60,,,1,0,340,130,1,339,ratio15_2_12_12.png,,,,,,,,,,,,
,,,,,,,,,,,,Less than half,Some,Half,None,More than half,Many,All,Most,Few,-0.087037025,-0.254629641,1,0,0,QQQ6,,,,,,,,English,2020-06-16_10h51.43.751,Experiment_English,3.2.4,Win32,60,,,1,0,340,212,1,339,ratio31_12_16_1.png,0.225925943,-0.363888902,1,0,0,continue_button_pause,1,0,1,0,1,0
,,,,,,,,,,,,,,,,,,,,,,,,,,,,,,,,,,English,2020-06-16_10h51.43.751,Experiment_English,3.2.4,Win32,60,,,1,0,340,212,1,339,ratio31_12_16_1.png,,,,,,,,,,,,
,,,,,,,,,,,,None,Some,Most,More than half,Less than half,All,Few,Half,Many,0.374074206,0.287037034,1,0,0,QQQ1,,,,,,,,English,2020-06-16_10h51.43.751,Experiment_English,3.2.4,Win32,60,,,1,0,340,64,1,339,ratio0Y_0_7_1.png,,,,,,,,,,,,
,,,,,,,,,,,,Half,None,Less than half,Some,All,Most,Many,More than half,Few,0.137037052,0.234259255,1,0,0,QQQ4,,,,,,,,English,2020-06-16_10h51.43.751,Experiment_English,3.2.4,Win32,60,,,1,0,340,292,1,339,ratio43_8_14_6.png,,,,,,,,,,,,
,,,,,,,,,,,,Less than half,More than half,Half,Some,Few,None,Most,Many,All,0.375000019,0.271296293,1,0,0,QQQ1,,,,,,,,English,2020-06-16_10h51.43.751,Experiment_English,3.2.4,Win32,60,,,1,0,340,135,1,339,ratio15_3_18_7.png,,,,,,,,,,,,
,,,,,,,,,,,,Few,More than half,Most,Many,All,Less than half,Half,None,Some,0.428703723,0.034259252,1,0,0,QQQ2,,,,,,,,English,2020-06-16_10h51.43.751,Experiment_English,3.2.4,Win32,60,,,1,0,340,161,1,339,ratio21_2_3_8.png,,,,,,,,,,,,
,,,,,,,,,,,,Half,Some,All,Many,Most,More than half,None,Few,Less than half,0.371296315,0.246296293,1,0,0,QQQ1,,,,,,,,English,2020-06-16_10h51.43.751,Experiment_English,3.2.4,Win32,60,,,1,0,340,21,1,339,ratio11_2_4_10.png,,,,,,,,,,,,
,,,,,,,,,,,,Less than half,Half,More than half,Some,Most,None,All,Many,Few,0.350926057,-0.267592604,1,0,0,QQQ3,,,,,,,,English,2020-06-16_10h51.43.751,Experiment_English,3.2.4,Win32,60,,,1,0,340,220,1,339,ratio32_3_5_1.png,,,,,,,,,,,,
,,,,,,,,,,,,All,Some,Most,More than half,Half,Less than half,None,Few,Many,0.100925941,-0.037962971,1,0,0,QQQ5,,,,,,,,English,2020-06-16_10h51.43.751,Experiment_English,3.2.4,Win32,60,,,1,0,340,288,1,339,ratio43_4_7_18.png,,,,,,,,,,,,
,,,,,,,,,,,,Half,Less than half,All,Many,None,Some,Most,More than half,Few,0.054629644,-0.23796303,1,0,0,QQQ6,,,,,,,,English,2020-06-16_10h51.43.751,Experiment_English,3.2.4,Win32,60,,,1,0,340,226,1,339,ratio32_6_10_5.png,,,,,,,,,,,,
,,,,,,,,,,,,Half,Less than half,Some,Most,Many,None,Few,All,More than half,0.039814829,-0.016666674,1,0,0,QQQ5,,,,,,,,English,2020-06-16_10h51.43.751,Experiment_English,3.2.4,Win32,60,,,1,0,340,239,1,339,ratio32_12_20_10.png,,,,,,,,,,,,
,,,,,,,,,,,,Most,Some,All,More than half,Few,Many,Less than half,None,Half,0.365740759,-0.004629637,1,0,0,QQQ2,,,,,,,,English,2020-06-16_10h51.43.751,Experiment_English,3.2.4,Win32,60,,,1,0,340,12,1,339,ratio12_4_12_10.png,,,,,,,,,,,,
,,,,,,,,,,,,Few,All,Many,Some,Half,Less than half,None,Most,More than half,-0.34351851,0.263888885,1,0,0,QQQ7,,,,,,,,English,2020-06-16_10h51.43.751,Experiment_English,3.2.4,Win32,60,,,1,0,340,67,1,339,ratio0Y_0_10_10.png,,,,,,,,,,,,
,,,,,,,,,,,,More than half,All,Less than half,Some,Many,Most,None,Half,Few,-0.023148135,0.242592589,1,0,0,QQQ4,,,,,,,,English,2020-06-16_10h51.43.751,Experiment_English,3.2.4,Win32,60,,,1,0,340,259,1,339,ratio34_6_14_19.png,,,,,,,,,,,,
,,,,,,,,,,,,More than half,Most,Half,Few,All,Many,Less than half,Some,None,0.022222236,-0.000925933,1,0,0,QQQ5,,,,,,,,English,2020-06-16_10h51.43.751,Experiment_English,3.2.4,Win32,60,,,1,0,340,55,1,339,ratioX0_16_16_3.png,,,,,,,,,,,,
,,,,,,,,,,,,Half,Many,More than half,Some,Most,None,All,Few,Less than half,0.022222236,-0.000925933,1,0,0,QQQ5,,,,,,,,English,2020-06-16_10h51.43.751,Experiment_English,3.2.4,Win32,60,,,1,0,340,230,1,339,ratio32_9_15_1.png,,,,,,,,,,,,
,,,,,,,,,,,,Less than half,All,Some,None,Many,More than half,Half,Few,Most,-0.4074074,-0.011111119,1,0,0,QQQ8,,,,,,,,English,2020-06-16_10h51.43.751,Experiment_English,3.2.4,Win32,60,,,1,0,340,133,1,339,ratio15_3_18_3.png,,,,,,,,,,,,
,,,,,,,,,,,,Many,None,All,More than half,Most,Some,Less than half,Half,Few,-0.475925892,-0.274074086,1,0,0,QQQ9,,,,,,,,English,2020-06-16_10h51.43.751,Experiment_English,3.2.4,Win32,60,,,1,0,340,113,1,339,ratio14_3_15_8.png,,,,,,,,,,,,
,,,,,,,,,,,,Less than half,Half,Some,More than half,Few,None,Many,Most,All,0.388888908,-0.075925935,1,0,0,QQQ2,,,,,,,,English,2020-06-16_10h51.43.751,Experiment_English,3.2.4,Win32,60,,,1,0,340,225,1,339,ratio32_6_10_4.png,,,,,,,,,,,,
,,,,,,,,,,,,Some,Less than half,None,Many,All,Few,More than half,Most,Half,0.439814835,-0.015740748,1,0,0,QQQ2,,,,,,,,English,2020-06-16_10h51.43.751,Experiment_English,3.2.4,Win32,60,,,1,0,340,103,1,339,ratio14_1_5_9.png,,,,,,,,,,,,
,,,,,,,,,,,,Most,Half,None,All,More than half,Few,Some,Many,Less than half,0.377777797,0.225925922,1,0,0,QQQ1,,,,,,,,English,2020-06-16_10h51.43.751,Experiment_English,3.2.4,Win32,60,,,1,0,340,219,1,339,ratio31_15_20_10.png,,,,,,,,,,,,
,,,,,,,,,,,,Most,Few,Half,Less than half,All,None,Many,Some,More than half,0.355555687,-0.040740749,1,0,0,QQQ2,,,,,,,,English,2020-06-16_10h51.43.751,Experiment_English,3.2.4,Win32,60,,,1,0,340,147,1,339,ratio19_1_10_18.png,,,,,,,,,,,,
,,,,,,,,,,,,Some,Half,Many,All,Most,Less than half,Few,None,More than half,0.091666681,0.227777774,1,0,0,QQQ4,,,,,,,,English,2020-06-16_10h51.43.751,Experiment_English,3.2.4,Win32,60,,,1,0,340,48,1,339,ratioX0_10_10_1.png,,,,,,,,,,,,
,,,,,,,,,,,,Most,Half,More than half,None,All,Less than half,Some,Few,Many,0.53425928,0.327777775,1,0,0,QQQ1,,,,,,,,English,2020-06-16_10h51.43.751,Experiment_English,3.2.4,Win32,60,,,1,0,340,278,1,339,ratio41_16_20_9.png,,,,,,,,,,,,
,,,,,,,,,,,,Some,Most,Many,More than half,All,Half,Less than half,Few,None,-0.374074066,0.281481478,1,0,0,QQQ7,,,,,,,,English,2020-06-16_10h51.43.751,Experiment_English,3.2.4,Win32,60,,,1,0,340,87,1,339,ratio13_2_8_8.png,,,,,,,,,,,,
,,,,,,,,,,,,All,Few,None,Many,Some,Half,Most,More than half,Less than half,-0.383333326,0.005555548,1,0,0,QQQ8,,,,,,,,English,2020-06-16_10h51.43.751,Experiment_English,3.2.4,Win32,60,,,1,0,340,224,1,339,ratio32_3_5_10.png,,,,,,,,,,,,
,,,,,,,,,,,,Some,Less than half,Most,Half,None,Many,Few,More than half,All,-0.458333327,0.249999996,1,0,0,QQQ7,,,,,,,,English,2020-06-16_10h51.43.751,Experiment_English,3.2.4,Win32,60,,,1,0,340,146,1,339,ratio19_1_10_17.png,,,,,,,,,,,,
,,,,,,,,,,,,Less than half,More than half,Few,None,All,Many,Most,Half,Some,0.044444458,0.038888882,1,0,0,QQQ5,,,,,,,,English,2020-06-16_10h51.43.751,Experiment_English,3.2.4,Win32,60,,,1,0,340,53,1,339,ratioX0_14_14_8.png,,,,,,,,,,,,
,,,,,,,,,,,,Most,Less than half,Half,None,Many,Few,Some,All,More than half,0.043518589,0.244444441,1,0,0,QQQ4,,,,,,,,English,2020-06-16_10h51.43.751,Experiment_English,3.2.4,Win32,60,,,1,0,340,61,1,339,ratio0Y_0_4_7.png,,,,,,,,,,,,
,,,,,,,,,,,,None,Most,Some,Few,Many,More than half,Half,All,Less than half,0.47500002,0.004629622,1,0,0,QQQ2,,,,,,,,English,2020-06-16_10h51.43.751,Experiment_English,3.2.4,Win32,60,,,1,0,340,276,1,339,ratio41_16_20_4.png,,,,,,,,,,,,
,,,,,,,,,,,,More than half,Few,None,Many,Some,All,Most,Less than half,Half,-0.354629622,-0.013888897,1,0,0,QQQ8,,,,,,,,English,2020-06-16_10h51.43.751,Experiment_English,3.2.4,Win32,60,,,1,0,340,187,1,339,ratio23_4_10_5.png,,,,,,,,,,,,
,,,,,,,,,,,,Some,More than half,Most,None,All,Less than half,Many,Half,Few,0.562037059,0.300925923,1,0,0,QQQ1,,,,,,,,English,2020-06-16_10h51.43.751,Experiment_English,3.2.4,Win32,60,,,1,0,340,258,1,339,ratio34_6_14_14.png,,,,,,,,,,,,
,,,,,,,,,,,,More than half,All,Less than half,None,Some,Many,Half,Few,Most,0.387037056,-0.271296308,1,0,0,QQQ3,,,,,,,,English,2020-06-16_10h51.43.751,Experiment_English,3.2.4,Win32,60,,,1,0,340,180,1,339,ratio23_2_5_4.png,,,,,,,,,,,,
,,,,,,,,,,,,None,Many,Half,Some,More than half,Less than half,Few,All,Most,-0.013888876,0.003703696,1,0,0,QQQ5,,,,,,,,English,2020-06-16_10h51.43.751,Experiment_English,3.2.4,Win32,60,,,1,0,340,162,1,339,ratio21_2_3_9.png,,,,,,,,,,,,
,,,,,,,,,,,,Most,None,Some,Many,All,More than half,Few,Less than half,Half,0.423148168,-0.286111123,1,0,0,QQQ3,,,,,,,,English,2020-06-16_10h51.43.751,Experiment_English,3.2.4,Win32,60,,,1,0,340,296,1,339,ratio43_8_14_12.png,,,,,,,,,,,,
,,,,,,,,,,,,Most,Few,All,Some,Many,Less than half,More than half,Half,None,0.078703718,0.209259255,1,0,0,QQQ4,,,,,,,,English,2020-06-16_10h51.43.751,Experiment_English,3.2.4,Win32,60,,,1,0,340,246,1,339,ratio34_3_7_11.png,,,,,,,,,,,,
