continue_mouse.x,continue_mouse.y,continue_mouse.leftButton,continue_mouse.midButton,continue_mouse.rightButton,continue_mouse.clicked_name,continue_mouse_2.x,continue_mouse_2.y,continue_mouse_2.leftButton,continue_mouse_2.midButton,continue_mouse_2.rightButton,continue_mouse_2.clicked_name,Q1,Q2,Q3,Q4,Q5,Q6,Q7,Q8,Q9,select_answer.x,select_answer.y,select_answer.leftButton,select_answer.midButton,select_answer.rightButton,select_answer.clicked_name,trial.thisRepN,trial.thisTrialN,trial.thisN,trial.thisIndex,trial.ran,trial.order,trials,Native tongue*,date,expName,psychopyVersion,OS,frameRate,key_resp.keys,key_resp.rt,Actual_Experiment.thisRepN,Actual_Experiment.thisTrialN,Actual_Experiment.thisN,Actual_Experiment.thisIndex,Actual_Experiment.ran,Actual_Experiment.order,Pic,mouse_pause.x,mouse_pause.y,mouse_pause.leftButton,mouse_pause.midButton,mouse_pause.rightButton,mouse_pause.clicked_name,pause.thisRepN,pause.thisTrialN,pause.thisN,pause.thisIndex,pause.ran,pause.order
0.31222224,-0.433333347,1,0,0,continue_button,0.317777796,-0.430000082,1,0,0,continue_button_2,Few,Less than half,More than half,Most,Half,None,Some,All,Many,-0.455555549,-0.284444456,1,0,0,QQQ9,1,0,16,15,1,15,ratio0Y_0_14_10.png,English,2020-07-02_11h00.15.020,Experiment_English,3.2.4,Win32,60,,,,,,,,,,,,,,,,,,,,,
,,,,,,,,,,,,Less than half,Some,Most,More than half,All,Half,None,Few,Many,0.504444465,-7.4558E-09,1,0,0,QQQ2,1,0,16,5,1,15,ratio32_6_10_2.png,English,2020-07-02_11h00.15.020,Experiment_English,3.2.4,Win32,60,,,,,,,,,,,,,,,,,,,,,
,,,,,,,,,,,,More than half,Most,Many,All,Less than half,None,Few,Half,Some,-0.037777765,-0.011111119,1,0,0,QQQ5,1,0,16,4,1,15,ratio34_3_7_3.png,English,2020-07-02_11h00.15.020,Experiment_English,3.2.4,Win32,60,,,,,,,,,,,,,,,,,,,,,
,,,,,,,,,,,,Most,Less than half,Few,None,Many,Some,More than half,Half,All,-0.444444438,0.292222219,1,0,0,QQQ7,1,0,16,6,1,15,ratio31_12_16_7.png,English,2020-07-02_11h00.15.020,Experiment_English,3.2.4,Win32,60,,,,,,,,,,,,,,,,,,,,,
,,,,,,,,,,,,Some,All,Few,None,More than half,Less than half,Most,Half,Many,0.492222243,-0.29777779,1,0,0,QQQ3,1,0,16,12,1,15,ratio13_3_12_3.png,English,2020-07-02_11h00.15.020,Experiment_English,3.2.4,Win32,60,,,,,,,,,,,,,,,,,,,,,
,,,,,,,,,,,,None,Less than half,Few,Some,All,Most,More than half,Half,Many,-0.388888881,0.011111104,1,0,0,QQQ8,,,,,,,,English,2020-07-02_11h00.15.020,Experiment_English,3.2.4,Win32,60,b,20.58199978,1,0,340,285,1,339,ratio43_4_7_14.png,,,,,,,,,,,,
,,,,,,,,,,,,Less than half,All,More than half,None,Half,Many,Few,Most,Some,-0.387777736,0.297777775,1,0,0,QQQ7,,,,,,,,English,2020-07-02_11h00.15.020,Experiment_English,3.2.4,Win32,60,,,1,0,340,131,1,339,ratio15_2_12_14.png,,,,,,,,,,,,
,,,,,,,,,,,,None,Few,More than half,All,Half,Most,Many,Some,Less than half,0.484444465,-0.021111119,1,0,0,QQQ2,,,,,,,,English,2020-07-02_11h00.15.020,Experiment_English,3.2.4,Win32,60,,,1,0,340,135,1,339,ratio15_3_18_7.png,,,,,,,,,,,,
,,,,,,,,,,,,None,Half,Some,Many,Few,Most,All,More than half,Less than half,-0.486666661,-0.016666674,1,0,0,QQQ8,,,,,,,,English,2020-07-02_11h00.15.020,Experiment_English,3.2.4,Win32,60,,,1,0,340,331,1,339,ratio91_18_20_3.png,,,,,,,,,,,,
,,,,,,,,,,,,Less than half,All,Most,None,Few,More than half,Many,Some,Half,0.537777935,0.287777775,1,0,0,QQQ1,,,,,,,,English,2020-07-02_11h00.15.020,Experiment_English,3.2.4,Win32,60,,,1,0,340,35,1,339,ratio11_8_16_10.png,,,,,,,,,,,,
,,,,,,,,,,,,Few,Many,Some,None,Most,Less than half,All,Half,More than half,0.550000021,0.27333333,1,0,0,QQQ1,,,,,,,,English,2020-07-02_11h00.15.020,Experiment_English,3.2.4,Win32,60,,,1,0,340,182,1,339,ratio23_2_5_7.png,,,,,,,,,,,,
,,,,,,,,,,,,All,Some,Many,Most,Half,Few,None,More than half,Less than half,-0.068888877,-0.008888896,1,0,0,QQQ5,,,,,,,,English,2020-07-02_11h00.15.020,Experiment_English,3.2.4,Win32,60,,,1,0,340,250,1,339,ratio34_6_14_1.png,,,,,,,,,,,,
,,,,,,,,,,,,Half,More than half,Many,Some,None,Less than half,Few,All,Most,0.572222244,0.004444403,1,0,0,QQQ2,,,,,,,,English,2020-07-02_11h00.15.020,Experiment_English,3.2.4,Win32,60,,,1,0,340,218,1,339,ratio31_15_20_7.png,,,,,,,,,,,,
,,,,,,,,,,,,Some,All,Few,Most,None,Half,Many,More than half,Less than half,0.034444458,-0.003333341,1,0,0,QQQ5,,,,,,,,English,2020-07-02_11h00.15.020,Experiment_English,3.2.4,Win32,60,,,1,0,340,72,1,339,ratio0Y_0_13_4.png,,,,,,,,,,,,
,,,,,,,,,,,,Less than half,Some,Few,Half,None,More than half,All,Many,Most,0.488888909,-0.325555568,1,0,0,QQQ3,,,,,,,,English,2020-07-02_11h00.15.020,Experiment_English,3.2.4,Win32,60,,,1,0,340,132,1,339,ratio15_2_12_16.png,,,,,,,,,,,,
,,,,,,,,,,,,Less than half,None,Half,More than half,All,Many,Few,Some,Most,-0.489999994,-0.2488889,1,0,0,QQQ9,,,,,,,,English,2020-07-02_11h00.15.020,Experiment_English,3.2.4,Win32,60,,,1,0,340,306,1,339,ratio51_5_6_18.png,,,,,,,,,,,,
,,,,,,,,,,,,Many,Half,Most,Less than half,More than half,Few,Some,None,All,0.024444526,0.003333326,1,0,0,QQQ5,,,,,,,,English,2020-07-02_11h00.15.020,Experiment_English,3.2.4,Win32,60,,,1,0,340,273,1,339,ratio41_12_15_8.png,,,,,,,,,,,,
,,,,,,,,,,,,Many,All,More than half,None,Less than half,Some,Few,Half,Most,0.024444526,0.003333326,1,0,0,QQQ5,,,,,,,,English,2020-07-02_11h00.15.020,Experiment_English,3.2.4,Win32,60,,,1,0,340,231,1,339,ratio32_9_15_2.png,,,,,,,,,,,,
,,,,,,,,,,,,All,Half,Many,Most,More than half,Some,Less than half,None,Few,0.494444465,-0.013333341,1,0,0,QQQ2,,,,,,,,English,2020-07-02_11h00.15.020,Experiment_English,3.2.4,Win32,60,,,1,0,340,189,1,339,ratio23_4_10_8.png,,,,,,,,,,,,
,,,,,,,,,,,,Many,More than half,None,Less than half,Some,Half,All,Most,Few,0.443333353,0.277777774,1,0,0,QQQ1,,,,,,,,English,2020-07-02_11h00.15.020,Experiment_English,3.2.4,Win32,60,,,1,0,340,272,1,339,ratio41_12_15_7.png,,,,,,,,,,,,
,,,,,,,,,,,,None,Most,Half,Some,Many,Less than half,Few,All,More than half,0.525555577,-7.4558E-09,1,0,0,QQQ2,,,,,,,,English,2020-07-02_11h00.15.020,Experiment_English,3.2.4,Win32,60,,,1,0,340,326,1,339,ratio91_9_10_10.png,,,,,,,,,,,,
,,,,,,,,,,,,All,None,Some,Less than half,More than half,Many,Most,Half,Few,-0.009999987,-0.027777786,1,0,0,QQQ5,,,,,,,,English,2020-07-02_11h00.15.020,Experiment_English,3.2.4,Win32,60,,,1,0,340,271,1,339,ratio41_12_15_6.png,,,,,,,,,,,,
,,,,,,,,,,,,Many,Most,All,Less than half,Few,None,Some,Half,More than half,-0.536666661,-0.313333413,1,0,0,QQQ9,,,,,,,,English,2020-07-02_11h00.15.020,Experiment_English,3.2.4,Win32,60,,,1,0,340,233,1,339,ratio32_9_15_9.png,,,,,,,,,,,,
,,,,,,,,,,,,All,Many,None,Most,Few,More than half,Less than half,Some,Half,-0.483333327,-0.305555568,1,0,0,QQQ9,,,,,,,,English,2020-07-02_11h00.15.020,Experiment_English,3.2.4,Win32,60,,,1,0,340,290,1,339,ratio43_8_14_3.png,,,,,,,,,,,,
,,,,,,,,,,,,Half,Most,More than half,Some,Few,Many,None,All,Less than half,0.062222236,-0.023333375,1,0,0,QQQ5,,,,,,,,English,2020-07-02_11h00.15.020,Experiment_English,3.2.4,Win32,60,,,1,0,340,102,1,339,ratio14_1_5_8.png,,,,,,,,,,,,
,,,,,,,,,,,,Less than half,None,Many,All,Some,Most,More than half,Few,Half,0.102222305,-0.307777858,1,0,0,QQQ6,,,,,,,,English,2020-07-02_11h00.15.020,Experiment_English,3.2.4,Win32,60,,,1,0,340,338,1,339,ratio91_18_20_18.png,,,,,,,,,,,,
,,,,,,,,,,,,All,None,Many,Most,Some,More than half,Half,Less than half,Few,-0.452222216,-0.038888897,1,0,0,QQQ8,,,,,,,,English,2020-07-02_11h00.15.020,Experiment_English,3.2.4,Win32,60,,,1,0,340,91,1,339,ratio13_3_12_10.png,,,,,,,,,,,,
,,,,,,,,,,,,Half,Most,Few,All,More than half,None,Some,Many,Less than half,0.52888891,-0.311111123,1,0,0,QQQ3,,,,,,,,English,2020-07-02_11h00.15.020,Experiment_English,3.2.4,Win32,60,,,1,0,340,112,1,339,ratio14_3_15_4.png,,,,,,,,,,,,
,,,,,,,,,,,,All,None,Few,Less than half,Most,Some,Many,More than half,Half,0.535555577,-0.333333346,1,0,0,QQQ3,,,,,,,,English,2020-07-02_11h00.15.020,Experiment_English,3.2.4,Win32,60,,,1,0,340,142,1,339,ratio19_1_10_6.png,,,,,,,,,,,,
,,,,,,,,,,,,Many,Less than half,More than half,Some,All,Half,Most,None,Few,-0.418888882,0.281111108,1,0,0,QQQ7,,,,,,,,English,2020-07-02_11h00.15.020,Experiment_English,3.2.4,Win32,60,,,1,0,340,303,1,339,ratio51_5_6_6.png,,,,,,,,,,,,
,,,,,,,,,,,,Half,Some,Most,More than half,Few,None,All,Less than half,Many,-0.392222215,0.005555548,1,0,0,QQQ8,,,,,,,,English,2020-07-02_11h00.15.020,Experiment_English,3.2.4,Win32,60,,,1,0,340,259,1,339,ratio34_6_14_19.png,,,,,,,,,,,,
,,,,,,,,,,,,Few,All,Many,Some,Half,More than half,Less than half,None,Most,0.514444465,-0.012222264,1,0,0,QQQ2,,,,,,,,English,2020-07-02_11h00.15.020,Experiment_English,3.2.4,Win32,60,,,1,0,340,52,1,339,ratioX0_13_13_10.png,,,,,,,,,,,,
,,,,,,,,,,,,Some,All,More than half,Half,Few,Many,Less than half,Most,None,0.513333354,-0.277777789,1,0,0,QQQ3,,,,,,,,English,2020-07-02_11h00.15.020,Experiment_English,3.2.4,Win32,60,,,1,0,340,288,1,339,ratio43_4_7_18.png,,,,,,,,,,,,
,,,,,,,,,,,,Half,More than half,Many,Few,None,Most,Less than half,All,Some,0.040000014,-0.014444452,1,0,0,QQQ5,,,,,,,,English,2020-07-02_11h00.15.020,Experiment_English,3.2.4,Win32,60,,,1,0,340,79,1,339,ratio0Y_0_20_4.png,,,,,,,,,,,,
,,,,,,,,,,,,All,Few,Most,More than half,Many,Some,Half,Less than half,None,0.571111269,0.307777758,1,0,0,QQQ1,,,,,,,,English,2020-07-02_11h00.15.020,Experiment_English,3.2.4,Win32,60,,,1,0,340,58,1,339,ratioX0_19_19_4.png,,,,,,,,,,,,
,,,,,,,,,,,,None,Most,More than half,All,Few,Many,Half,Less than half,Some,-0.453333327,0.002222215,1,0,0,QQQ8,,,,,,,,English,2020-07-02_11h00.15.020,Experiment_English,3.2.4,Win32,60,,,1,0,340,36,1,339,ratio11_9_18_1.png,,,,,,,,,,,,
,,,,,,,,,,,,All,Less than half,Few,Some,More than half,None,Many,Most,Half,0.506666687,-0.352222303,1,0,0,QQQ3,,,,,,,,English,2020-07-02_11h00.15.020,Experiment_English,3.2.4,Win32,60,,,1,0,340,126,1,339,ratio15_2_12_1.png,,,,,,,,,,,,
,,,,,,,,,,,,More than half,Most,Many,Few,Some,All,Less than half,Half,None,0.50888891,-0.004444452,1,0,0,QQQ2,,,,,,,,English,2020-07-02_11h00.15.020,Experiment_English,3.2.4,Win32,60,,,1,0,340,317,1,339,ratio51_15_18_13.png,,,,,,,,,,,,
,,,,,,,,,,,,Less than half,All,Few,Most,None,Half,Many,More than half,Some,0.51888891,-0.294444456,1,0,0,QQQ3,,,,,,,,English,2020-07-02_11h00.15.020,Experiment_English,3.2.4,Win32,60,,,1,0,340,130,1,339,ratio15_2_12_12.png,0.384444463,-0.41888897,1,0,0,continue_button_pause,1,0,1,0,1,0
,,,,,,,,,,,,,,,,,,,,,,,,,,,,,,,,,,English,2020-07-02_11h00.15.020,Experiment_English,3.2.4,Win32,60,,,1,0,340,130,1,339,ratio15_2_12_12.png,,,,,,,,,,,,
,,,,,,,,,,,,More than half,Few,Most,Many,Half,Some,None,All,Less than half,0.077777792,0.308888886,1,0,0,QQQ4,,,,,,,,English,2020-07-02_11h00.15.020,Experiment_English,3.2.4,Win32,60,,,1,0,340,311,1,339,ratio51_10_12_14.png,,,,,,,,,,,,
,,,,,,,,,,,,All,Few,More than half,Some,Half,None,Less than half,Most,Many,0.464444465,-0.254444456,1,0,0,QQQ3,,,,,,,,English,2020-07-02_11h00.15.020,Experiment_English,3.2.4,Win32,60,,,1,0,340,286,1,339,ratio43_4_7_15.png,,,,,,,,,,,,
,,,,,,,,,,,,All,Many,More than half,None,Less than half,Most,Some,Few,Half,-0.555555551,-0.001111152,1,0,0,QQQ8,,,,,,,,English,2020-07-02_11h00.15.020,Experiment_English,3.2.4,Win32,60,,,1,0,340,100,1,339,ratio14_1_5_3.png,,,,,,,,,,,,
,,,,,,,,,,,,Some,More than half,Less than half,Many,Half,None,All,Most,Few,0.086666681,0.301111108,1,0,0,QQQ4,,,,,,,,English,2020-07-02_11h00.15.020,Experiment_English,3.2.4,Win32,60,,,1,0,340,314,1,339,ratio51_15_18_4.png,,,,,,,,,,,,
,,,,,,,,,,,,None,Many,Less than half,Some,Half,More than half,Few,All,Most,-0.427777771,0.351111109,1,0,0,QQQ7,,,,,,,,English,2020-07-02_11h00.15.020,Experiment_English,3.2.4,Win32,60,,,1,0,340,88,1,339,ratio13_3_12_5.png,,,,,,,,,,,,
,,,,,,,,,,,,More than half,Half,Less than half,All,Most,None,Some,Few,Many,0.472222243,-0.261111122,1,0,0,QQQ3,,,,,,,,English,2020-07-02_11h00.15.020,Experiment_English,3.2.4,Win32,60,,,1,0,340,29,1,339,ratio11_6_12_1.png,,,,,,,,,,,,
,,,,,,,,,,,,Less than half,All,Many,More than half,Few,None,Most,Some,Half,0.014444458,0.03666666,1,0,0,QQQ5,,,,,,,,English,2020-07-02_11h00.15.020,Experiment_English,3.2.4,Win32,60,,,1,0,340,147,1,339,ratio19_1_10_18.png,,,,,,,,,,,,
,,,,,,,,,,,,Half,More than half,Less than half,Most,None,Many,Some,Few,All,0.496666687,0.281111108,1,0,0,QQQ1,,,,,,,,English,2020-07-02_11h00.15.020,Experiment_English,3.2.4,Win32,60,,,1,0,340,37,1,339,ratio11_9_18_8.png,,,,,,,,,,,,
,,,,,,,,,,,,None,Few,All,Many,Some,Half,Less than half,Most,More than half,0.497777798,-0.026666675,1,0,0,QQQ2,,,,,,,,English,2020-07-02_11h00.15.020,Experiment_English,3.2.4,Win32,60,,,1,0,340,158,1,339,ratio19_2_20_17.png,,,,,,,,,,,,
,,,,,,,,,,,,Most,None,Many,More than half,Some,Few,Less than half,Half,All,-0.496666661,-0.051111153,1,0,0,QQQ8,,,,,,,,English,2020-07-02_11h00.15.020,Experiment_English,3.2.4,Win32,60,,,1,0,340,190,1,339,ratio23_6_15_3.png,,,,,,,,,,,,
,,,,,,,,,,,,Less than half,All,More than half,Some,Most,Many,Half,Few,None,0.066666681,-0.056666709,1,0,0,QQQ5,,,,,,,,English,2020-07-02_11h00.15.020,Experiment_English,3.2.4,Win32,60,,,1,0,340,201,1,339,ratio31_3_4_7.png,,,,,,,,,,,,
,,,,,,,,,,,,Many,All,Most,Few,None,More than half,Half,Some,Less than half,-0.387777736,-0.026666675,1,0,0,QQQ8,,,,,,,,English,2020-07-02_11h00.15.020,Experiment_English,3.2.4,Win32,60,,,1,0,340,115,1,339,ratio14_4_20_1.png,,,,,,,,,,,,
,,,,,,,,,,,,None,All,Half,Few,Many,Less than half,More than half,Most,Some,-0.439999993,0.264444441,1,0,0,QQQ7,,,,,,,,English,2020-07-02_11h00.15.020,Experiment_English,3.2.4,Win32,60,,,1,0,340,203,1,339,ratio31_3_4_9.png,,,,,,,,,,,,
,,,,,,,,,,,,Some,Half,Most,More than half,None,All,Few,Many,Less than half,-0.592222218,0.275555552,1,0,0,QQQ7,,,,,,,,English,2020-07-02_11h00.15.020,Experiment_English,3.2.4,Win32,60,,,1,0,340,157,1,339,ratio19_2_20_16.png,,,,,,,,,,,,
,,,,,,,,,,,,Most,None,Many,All,Few,Some,Half,Less than half,More than half,-0.587777773,0.302222202,1,0,0,QQQ7,,,,,,,,English,2020-07-02_11h00.15.020,Experiment_English,3.2.4,Win32,60,,,1,0,340,254,1,339,ratio34_6_14_9.png,,,,,,,,,,,,
,,,,,,,,,,,,Most,None,Many,Few,Half,More than half,All,Less than half,Some,-0.493333294,0.098888849,1,0,0,QQQ8,,,,,,,,English,2020-07-02_11h00.15.020,Experiment_English,3.2.4,Win32,60,,,1,0,340,16,1,339,ratio12_5_15_6.png,,,,,,,,,,,,
,,,,,,,,,,,,Some,Few,Less than half,All,More than half,Most,Half,Many,None,0.436666686,0.032222181,1,0,0,QQQ2,,,,,,,,English,2020-07-02_11h00.15.020,Experiment_English,3.2.4,Win32,60,,,1,0,340,245,1,339,ratio34_3_7_10.png,,,,,,,,,,,,
,,,,,,,,,,,,Less than half,Some,More than half,Half,Most,Few,All,None,Many,-0.435555549,-0.252222301,1,0,0,QQQ9,,,,,,,,English,2020-07-02_11h00.15.020,Experiment_English,3.2.4,Win32,60,,,1,0,340,313,1,339,ratio51_15_18_2.png,,,,,,,,,,,,
,,,,,,,,,,,,Some,Half,All,Less than half,None,Most,Many,More than half,Few,-0.005555542,0.23444444,1,0,0,QQQ4,,,,,,,,English,2020-07-02_11h00.15.020,Experiment_English,3.2.4,Win32,60,,,1,0,340,186,1,339,ratio23_4_10_2.png,,,,,,,,,,,,
,,,,,,,,,,,,Some,Few,More than half,Half,Many,None,Less than half,All,Most,0.011111125,0.299999997,1,0,0,QQQ4,,,,,,,,English,2020-07-02_11h00.15.020,Experiment_English,3.2.4,Win32,60,,,1,0,340,282,1,339,ratio43_4_7_7.png,,,,,,,,,,,,
,,,,,,,,,,,,Few,Many,Less than half,Half,Most,Some,None,More than half,All,0.520000021,0.282222219,1,0,0,QQQ1,,,,,,,,English,2020-07-02_11h00.15.020,Experiment_English,3.2.4,Win32,60,,,1,0,340,159,1,339,ratio19_2_20_20.png,,,,,,,,,,,,
,,,,,,,,,,,,Less than half,Half,None,All,Many,More than half,Most,Few,Some,-0.529999995,-0.02222223,1,0,0,QQQ8,,,,,,,,English,2020-07-02_11h00.15.020,Experiment_English,3.2.4,Win32,60,,,1,0,340,87,1,339,ratio13_2_8_8.png,,,,,,,,,,,,
,,,,,,,,,,,,More than half,Most,Some,Less than half,Half,None,Few,All,Many,-0.044444432,0.312222219,1,0,0,QQQ4,,,,,,,,English,2020-07-02_11h00.15.020,Experiment_English,3.2.4,Win32,60,,,1,0,340,193,1,339,ratio23_6_15_9.png,,,,,,,,,,,,
,,,,,,,,,,,,Less than half,Some,Most,None,Half,Many,All,Few,More than half,-0.496666661,0.288888886,1,0,0,QQQ7,,,,,,,,English,2020-07-02_11h00.15.020,Experiment_English,3.2.4,Win32,60,,,1,0,340,59,1,339,ratioX0_20_20_9.png,,,,,,,,,,,,
,,,,,,,,,,,,Few,None,Some,Less than half,More than half,Many,Half,Most,All,0.00666668,-0.212222233,1,0,0,QQQ6,,,,,,,,English,2020-07-02_11h00.15.020,Experiment_English,3.2.4,Win32,60,,,1,0,340,270,1,339,ratio41_12_15_3.png,,,,,,,,,,,,
,,,,,,,,,,,,Some,More than half,Less than half,All,Half,Many,Most,None,Few,-0.497777772,0.287777775,1,0,0,QQQ7,,,,,,,,English,2020-07-02_11h00.15.020,Experiment_English,3.2.4,Win32,60,,,1,0,340,206,1,339,ratio31_6_8_6.png,,,,,,,,,,,,
,,,,,,,,,,,,More than half,Half,Many,Most,Some,All,Few,Less than half,None,-0.034444432,0.265555552,1,0,0,QQQ4,,,,,,,,English,2020-07-02_11h00.15.020,Experiment_English,3.2.4,Win32,60,,,1,0,340,268,1,339,ratio41_8_10_5.png,,,,,,,,,,,,
,,,,,,,,,,,,None,Many,Less than half,Some,Few,More than half,All,Half,Most,-0.094444433,0.011111104,1,0,0,QQQ5,,,,,,,,English,2020-07-02_11h00.15.020,Experiment_English,3.2.4,Win32,60,,,1,0,340,156,1,339,ratio19_2_20_14.png,,,,,,,,,,,,
,,,,,,,,,,,,More than half,All,Most,None,Half,Few,Many,Less than half,Some,-0.376666625,0.001111104,1,0,0,QQQ8,,,,,,,,English,2020-07-02_11h00.15.020,Experiment_English,3.2.4,Win32,60,,,1,0,340,246,1,339,ratio34_3_7_11.png,,,,,,,,,,,,
,,,,,,,,,,,,All,Few,Most,Some,Less than half,Many,More than half,Half,None,0.484444465,0.00777777,1,0,0,QQQ2,,,,,,,,English,2020-07-02_11h00.15.020,Experiment_English,3.2.4,Win32,60,,,1,0,340,140,1,339,ratio19_1_10_1.png,,,,,,,,,,,,
,,,,,,,,,,,,Some,All,More than half,Less than half,Most,None,Many,Few,Half,-0.451111105,-0.250000011,1,0,0,QQQ9,,,,,,,,English,2020-07-02_11h00.15.020,Experiment_English,3.2.4,Win32,60,,,1,0,340,287,1,339,ratio43_4_7_17.png,,,,,,,,,,,,
,,,,,,,,,,,,None,More than half,All,Most,Many,Some,Few,Half,Less than half,-0.375555548,0.295555553,1,0,0,QQQ7,,,,,,,,English,2020-07-02_11h00.15.020,Experiment_English,3.2.4,Win32,60,,,1,0,340,124,1,339,ratio15_1_6_16.png,,,,,,,,,,,,
,,,,,,,,,,,,Some,Many,All,Less than half,Most,More than half,Half,Few,None,0.003333347,0.247777774,1,0,0,QQQ4,,,,,,,,English,2020-07-02_11h00.15.020,Experiment_English,3.2.4,Win32,60,,,1,0,340,113,1,339,ratio14_3_15_8.png,,,,,,,,,,,,
,,,,,,,,,,,,Many,None,Few,Some,More than half,Most,All,Half,Less than half,0.475555576,-0.02222223,1,0,0,QQQ2,,,,,,,,English,2020-07-02_11h00.15.020,Experiment_English,3.2.4,Win32,60,,,1,0,340,63,1,339,ratio0Y_0_6_8.png,0.357777796,-0.375555569,1,0,0,continue_button_pause,1,0,1,0,1,0
,,,,,,,,,,,,,,,,,,,,,,,,,,,,,,,,,,English,2020-07-02_11h00.15.020,Experiment_English,3.2.4,Win32,60,,,1,0,340,63,1,339,ratio0Y_0_6_8.png,,,,,,,,,,,,
,,,,,,,,,,,,Some,Half,Many,More than half,Less than half,None,Most,All,Few,0.01666668,-0.08111112,1,0,0,QQQ5,,,,,,,,English,2020-07-02_11h00.15.020,Experiment_English,3.2.4,Win32,60,,,1,0,340,117,1,339,ratio14_4_20_6.png,,,,,,,,,,,,
,,,,,,,,,,,,All,None,More than half,Some,Few,Most,Half,Many,Less than half,0.38111113,-0.001111152,1,0,0,QQQ2,,,,,,,,English,2020-07-02_11h00.15.020,Experiment_English,3.2.4,Win32,60,,,1,0,340,68,1,339,ratio0Y_0_11_3.png,,,,,,,,,,,,
,,,,,,,,,,,,More than half,Many,Less than half,None,Few,Some,Half,Most,All,-0.074444432,-0.090000009,1,0,0,QQQ5,,,,,,,,English,2020-07-02_11h00.15.020,Experiment_English,3.2.4,Win32,60,,,1,0,340,120,1,339,ratio15_1_6_1.png,,,,,,,,,,,,
,,,,,,,,,,,,Half,Few,More than half,Many,Less than half,Most,Some,None,All,0.061111125,-0.065555564,1,0,0,QQQ5,,,,,,,,English,2020-07-02_11h00.15.020,Experiment_English,3.2.4,Win32,60,,,1,0,340,10,1,339,ratio12_4_12_4.png,,,,,,,,,,,,
,,,,,,,,,,,,More than half,None,All,Half,Some,Less than half,Many,Most,Few,-0.025555475,-0.02222223,1,0,0,QQQ5,,,,,,,,English,2020-07-02_11h00.15.020,Experiment_English,3.2.4,Win32,60,,,1,0,340,95,1,339,ratio13_4_16_10.png,,,,,,,,,,,,
,,,,,,,,,,,,Less than half,More than half,Most,None,Many,Half,All,Few,Some,0.493333354,0.026666626,1,0,0,QQQ2,,,,,,,,English,2020-07-02_11h00.15.020,Experiment_English,3.2.4,Win32,60,,,1,0,340,280,1,339,ratio43_4_7_2.png,,,,,,,,,,,,
,,,,,,,,,,,,Few,Half,None,More than half,All,Most,Some,Less than half,Many,-0.058888809,-0.033333341,1,0,0,QQQ5,,,,,,,,English,2020-07-02_11h00.15.020,Experiment_English,3.2.4,Win32,60,,,1,0,340,46,1,339,ratioX0_9_9_3.png,,,,,,,,,,,,
,,,,,,,,,,,,Half,None,Few,All,Some,Many,Less than half,More than half,Most,0.46000002,-0.262222234,1,0,0,QQQ3,,,,,,,,English,2020-07-02_11h00.15.020,Experiment_English,3.2.4,Win32,60,,,1,0,340,104,1,339,ratio14_1_5_10.png,,,,,,,,,,,,
,,,,,,,,,,,,Many,None,More than half,Some,Most,All,Half,Less than half,Few,-0.387777736,0.302222202,1,0,0,QQQ7,,,,,,,,English,2020-07-02_11h00.15.020,Experiment_English,3.2.4,Win32,60,,,1,0,340,24,1,339,ratio11_4_8_3.png,,,,,,,,,,,,
,,,,,,,,,,,,Half,None,More than half,Few,Most,All,Less than half,Many,Some,-0.068888877,-0.013333341,1,0,0,QQQ5,,,,,,,,English,2020-07-02_11h00.15.020,Experiment_English,3.2.4,Win32,60,,,1,0,340,308,1,339,ratio51_10_12_9.png,,,,,,,,,,,,
,,,,,,,,,,,,Most,Some,Half,Many,All,More than half,None,Few,Less than half,0.483333354,0.28333333,1,0,0,QQQ1,,,,,,,,English,2020-07-02_11h00.15.020,Experiment_English,3.2.4,Win32,60,,,1,0,340,278,1,339,ratio41_16_20_9.png,,,,,,,,,,,,
,,,,,,,,,,,,Many,Most,Half,Some,Few,All,Less than half,None,More than half,-0.497777772,0.277777774,1,0,0,QQQ7,,,,,,,,English,2020-07-02_11h00.15.020,Experiment_English,3.2.4,Win32,60,,,1,0,340,195,1,339,ratio23_8_20_1.png,,,,,,,,,,,,
,,,,,,,,,,,,Many,Half,Some,None,Few,Less than half,More than half,All,Most,-0.364444437,0.282222219,1,0,0,QQQ7,,,,,,,,English,2020-07-02_11h00.15.020,Experiment_English,3.2.4,Win32,60,,,1,0,340,175,1,339,ratio21_10_15_2.png,,,,,,,,,,,,
,,,,,,,,,,,,Few,All,Less than half,More than half,Half,Most,None,Some,Many,-0.368888881,-0.311111123,1,0,0,QQQ9,,,,,,,,English,2020-07-02_11h00.15.020,Experiment_English,3.2.4,Win32,60,,,1,0,340,333,1,339,ratio91_18_20_6.png,,,,,,,,,,,,
,,,,,,,,,,,,More than half,Many,Less than half,Most,Half,Some,Few,None,All,0.037777792,0.04666666,1,0,0,QQQ5,,,,,,,,English,2020-07-02_11h00.15.020,Experiment_English,3.2.4,Win32,60,,,1,0,340,32,1,339,ratio11_7_14_5.png,,,,,,,,,,,,
,,,,,,,,,,,,Half,All,Few,Many,Most,Less than half,None,More than half,Some,-0.559999995,0.276666663,1,0,0,QQQ7,,,,,,,,English,2020-07-02_11h00.15.020,Experiment_English,3.2.4,Win32,60,,,1,0,340,77,1,339,ratio0Y_0_18_3.png,,,,,,,,,,,,
,,,,,,,,,,,,Few,More than half,Less than half,Many,None,Half,Some,Most,All,-0.473333327,0.017777771,1,0,0,QQQ8,,,,,,,,English,2020-07-02_11h00.15.020,Experiment_English,3.2.4,Win32,60,,,1,0,340,164,1,339,ratio21_4_6_6.png,,,,,,,,,,,,
,,,,,,,,,,,,Few,Many,None,Some,Most,Less than half,Half,All,More than half,0.101111126,-0.316666679,1,0,0,QQQ6,,,,,,,,English,2020-07-02_11h00.15.020,Experiment_English,3.2.4,Win32,60,,,1,0,340,92,1,339,ratio13_4_16_3.png,,,,,,,,,,,,
,,,,,,,,,,,,More than half,Many,Less than half,None,Most,Some,Few,Half,All,0.511111132,-0.331111123,1,0,0,QQQ3,,,,,,,,English,2020-07-02_11h00.15.020,Experiment_English,3.2.4,Win32,60,,,1,0,340,114,1,339,ratio14_3_15_10.png,,,,,,,,,,,,
,,,,,,,,,,,,Less than half,Half,All,None,Few,More than half,Some,Most,Many,0.532222243,0.244444441,1,0,0,QQQ1,,,,,,,,English,2020-07-02_11h00.15.020,Experiment_English,3.2.4,Win32,60,,,1,0,340,11,1,339,ratio12_4_12_7.png,,,,,,,,,,,,
,,,,,,,,,,,,None,More than half,All,Some,Less than half,Half,Few,Most,Many,0.046666748,-0.024444452,1,0,0,QQQ5,,,,,,,,English,2020-07-02_11h00.15.020,Experiment_English,3.2.4,Win32,60,,,1,0,340,12,1,339,ratio12_4_12_10.png,,,,,,,,,,,,
,,,,,,,,,,,,Most,Some,None,All,Many,More than half,Few,Half,Less than half,0.500000021,0.039999993,1,0,0,QQQ2,,,,,,,,English,2020-07-02_11h00.15.020,Experiment_English,3.2.4,Win32,60,,,1,0,340,297,1,339,ratio43_8_14_13.png,,,,,,,,,,,,
,,,,,,,,,,,,Most,Few,Less than half,All,Some,More than half,Half,Many,None,-0.015555543,-0.285555635,1,0,0,QQQ6,,,,,,,,English,2020-07-02_11h00.15.020,Experiment_English,3.2.4,Win32,60,,,1,0,340,9,1,339,ratio12_3_9_5.png,,,,,,,,,,,,
,,,,,,,,,,,,Many,None,Some,Half,Most,Less than half,More than half,All,Few,0.063333415,-0.260000011,1,0,0,QQQ6,,,,,,,,English,2020-07-02_11h00.15.020,Experiment_English,3.2.4,Win32,60,,,1,0,340,184,1,339,ratio23_2_5_10.png,,,,,,,,,,,,
,,,,,,,,,,,,Some,All,Many,Few,More than half,None,Most,Less than half,Half,-0.428888882,-0.294444456,1,0,0,QQQ9,,,,,,,,English,2020-07-02_11h00.15.020,Experiment_English,3.2.4,Win32,60,,,1,0,340,38,1,339,ratio11_10_20_5.png,,,,,,,,,,,,
,,,,,,,,,,,,Some,Half,Most,Many,Few,All,Less than half,None,More than half,0.028888903,0.297777775,1,0,0,QQQ4,,,,,,,,English,2020-07-02_11h00.15.020,Experiment_English,3.2.4,Win32,60,,,1,0,340,238,1,339,ratio32_12_20_9.png,,,,,,,,,,,,
,,,,,,,,,,,,Half,All,None,Few,Many,Some,Most,Less than half,More than half,0.07555557,0.008888882,1,0,0,QQQ5,,,,,,,,English,2020-07-02_11h00.15.020,Experiment_English,3.2.4,Win32,60,,,1,0,340,292,1,339,ratio43_8_14_6.png,,,,,,,,,,,,
,,,,,,,,,,,,More than half,Less than half,Many,Most,All,Few,None,Some,Half,-0.424444438,0.339999998,1,0,0,QQQ7,,,,,,,,English,2020-07-02_11h00.15.020,Experiment_English,3.2.4,Win32,60,,,1,0,340,69,1,339,ratio0Y_0_11_6.png,,,,,,,,,,,,
,,,,,,,,,,,,All,Many,Half,More than half,Some,Less than half,Few,None,Most,-0.408888882,-0.270000011,1,0,0,QQQ9,,,,,,,,English,2020-07-02_11h00.15.020,Experiment_English,3.2.4,Win32,60,,,1,0,340,294,1,339,ratio43_8_14_9.png,,,,,,,,,,,,
,,,,,,,,,,,,None,Most,All,Few,Less than half,Many,More than half,Half,Some,-0.42111107,0.023333326,1,0,0,QQQ8,,,,,,,,English,2020-07-02_11h00.15.020,Experiment_English,3.2.4,Win32,60,,,1,0,340,247,1,339,ratio34_3_7_12.png,,,,,,,,,,,,
,,,,,,,,,,,,Less than half,More than half,Half,None,Many,Few,All,Most,Some,0.603333356,-0.028888931,1,0,0,QQQ2,,,,,,,,English,2020-07-02_11h00.15.020,Experiment_English,3.2.4,Win32,60,,,1,0,340,172,1,339,ratio21_8_12_6.png,,,,,,,,,,,,
,,,,,,,,,,,,None,Many,Most,More than half,Few,Less than half,All,Half,Some,-0.437777737,0.298888886,1,0,0,QQQ7,,,,,,,,English,2020-07-02_11h00.15.020,Experiment_English,3.2.4,Win32,60,,,1,0,340,41,1,339,ratioX0_4_4_9.png,,,,,,,,,,,,
,,,,,,,,,,,,All,More than half,Many,Most,Few,None,Some,Less than half,Half,0.066666681,-0.040000042,1,0,0,QQQ5,,,,,,,,English,2020-07-02_11h00.15.020,Experiment_English,3.2.4,Win32,60,,,1,0,340,155,1,339,ratio19_2_20_13.png,,,,,,,,,,,,
,,,,,,,,,,,,Half,All,Less than half,Some,Most,More than half,Few,Many,None,-0.054444432,-0.050000008,1,0,0,QQQ5,,,,,,,,English,2020-07-02_11h00.15.020,Experiment_English,3.2.4,Win32,60,,,1,0,340,204,1,339,ratio31_6_8_1.png,0.331111129,-0.393333347,1,0,0,continue_button_pause,1,0,1,0,1,0
,,,,,,,,,,,,,,,,,,,,,,,,,,,,,,,,,,English,2020-07-02_11h00.15.020,Experiment_English,3.2.4,Win32,60,,,1,0,340,204,1,339,ratio31_6_8_1.png,,,,,,,,,,,,
,,,,,,,,,,,,More than half,All,None,Less than half,Few,Many,Half,Some,Most,0.002222303,0.269999997,1,0,0,QQQ4,,,,,,,,English,2020-07-02_11h00.15.020,Experiment_English,3.2.4,Win32,60,,,1,0,340,198,1,339,ratio23_8_20_7.png,,,,,,,,,,,,
,,,,,,,,,,,,Half,All,Some,Many,More than half,Most,Few,Less than half,None,0.02666668,0.033333326,1,0,0,QQQ5,,,,,,,,English,2020-07-02_11h00.15.020,Experiment_English,3.2.4,Win32,60,,,1,0,340,284,1,339,ratio43_4_7_11.png,,,,,,,,,,,,
,,,,,,,,,,,,Some,Many,Most,All,Half,Less than half,More than half,None,Few,-0.512222217,0.316666664,1,0,0,QQQ7,,,,,,,,English,2020-07-02_11h00.15.020,Experiment_English,3.2.4,Win32,60,,,1,0,340,296,1,339,ratio43_8_14_12.png,,,,,,,,,,,,
,,,,,,,,,,,,All,Half,Less than half,Most,Few,Many,Some,More than half,None,-0.012222209,0.288888886,1,0,0,QQQ4,,,,,,,,English,2020-07-02_11h00.15.020,Experiment_English,3.2.4,Win32,60,,,1,0,340,179,1,339,ratio21_12_18_8.png,,,,,,,,,,,,
,,,,,,,,,,,,Few,None,Many,Most,All,Less than half,Half,More than half,Some,0.540000021,0.25333333,1,0,0,QQQ1,,,,,,,,English,2020-07-02_11h00.15.020,Experiment_English,3.2.4,Win32,60,,,1,0,340,85,1,339,ratio13_2_8_5.png,,,,,,,,,,,,
,,,,,,,,,,,,Half,Most,All,None,Some,Many,Less than half,More than half,Few,-0.425555549,0.061111105,1,0,0,QQQ8,,,,,,,,English,2020-07-02_11h00.15.020,Experiment_English,3.2.4,Win32,60,,,1,0,340,299,1,339,ratio43_8_14_17.png,,,,,,,,,,,,
,,,,,,,,,,,,Half,None,More than half,All,Many,Less than half,Most,Some,Few,0.461111131,0.321111108,1,0,0,QQQ1,,,,,,,,English,2020-07-02_11h00.15.020,Experiment_English,3.2.4,Win32,60,,,1,0,340,23,1,339,ratio11_3_6_9.png,,,,,,,,,,,,
,,,,,,,,,,,,Most,Less than half,Half,None,All,Some,Few,Many,More than half,0.471111131,0.316666664,1,0,0,QQQ1,,,,,,,,English,2020-07-02_11h00.15.020,Experiment_English,3.2.4,Win32,60,,,1,0,340,304,1,339,ratio51_5_6_13.png,,,,,,,,,,,,
,,,,,,,,,,,,More than half,Less than half,None,Most,Some,All,Many,Few,Half,0.090000015,0.28333333,1,0,0,QQQ4,,,,,,,,English,2020-07-02_11h00.15.020,Experiment_English,3.2.4,Win32,60,,,1,0,340,260,1,339,ratio41_4_5_2.png,,,,,,,,,,,,
,,,,,,,,,,,,Few,Some,Many,Half,Less than half,More than half,Most,All,None,-0.041111098,-0.306666679,1,0,0,QQQ6,,,,,,,,English,2020-07-02_11h00.15.020,Experiment_English,3.2.4,Win32,60,,,1,0,340,235,1,339,ratio32_12_20_1.png,,,,,,,,,,,,
,,,,,,,,,,,,Half,None,Many,Some,Most,More than half,Less than half,All,Few,-0.015555543,-0.035555564,1,0,0,QQQ5,,,,,,,,English,2020-07-02_11h00.15.020,Experiment_English,3.2.4,Win32,60,,,1,0,340,339,1,339,ratio91_18_20_19.png,,,,,,,,,,,,
,,,,,,,,,,,,Most,Less than half,Many,All,None,Some,Few,More than half,Half,0.590000022,0.263333313,1,0,0,QQQ1,,,,,,,,English,2020-07-02_11h00.15.020,Experiment_English,3.2.4,Win32,60,,,1,0,340,166,1,339,ratio21_6_9_1.png,,,,,,,,,,,,
,,,,,,,,,,,,Most,All,Half,Many,Less than half,None,Some,Few,More than half,-0.437777737,-0.290000012,1,0,0,QQQ9,,,,,,,,English,2020-07-02_11h00.15.020,Experiment_English,3.2.4,Win32,60,,,1,0,340,258,1,339,ratio34_6_14_14.png,,,,,,,,,,,,
,,,,,,,,,,,,Few,Most,None,Some,More than half,Less than half,Many,All,Half,-0.438888882,-0.045555598,1,0,0,QQQ8,,,,,,,,English,2020-07-02_11h00.15.020,Experiment_English,3.2.4,Win32,60,,,1,0,340,57,1,339,ratioX0_18_18_1.png,,,,,,,,,,,,
,,,,,,,,,,,,None,Some,More than half,Few,Less than half,Most,All,Many,Half,-0.431111104,-0.051111153,1,0,0,QQQ8,,,,,,,,English,2020-07-02_11h00.15.020,Experiment_English,3.2.4,Win32,60,,,1,0,340,177,1,339,ratio21_12_18_1.png,,,,,,,,,,,,
,,,,,,,,,,,,Most,None,Some,Few,All,Many,More than half,Half,Less than half,-0.454444404,-0.272222234,1,0,0,QQQ9,,,,,,,,English,2020-07-02_11h00.15.020,Experiment_English,3.2.4,Win32,60,,,1,0,340,244,1,339,ratio34_3_7_9.png,,,,,,,,,,,,
,,,,,,,,,,,,Some,Most,Few,Half,All,Less than half,More than half,Many,None,0.635555578,-0.335555636,1,0,0,QQQ3,,,,,,,,English,2020-07-02_11h00.15.020,Experiment_English,3.2.4,Win32,60,,,1,0,340,81,1,339,ratio13_1_4_5.png,,,,,,,,,,,,
,,,,,,,,,,,,More than half,Less than half,Most,Many,None,Some,Half,All,Few,0.435555575,-0.02222223,1,0,0,QQQ2,,,,,,,,English,2020-07-02_11h00.15.020,Experiment_English,3.2.4,Win32,60,,,1,0,340,197,1,339,ratio23_8_20_6.png,,,,,,,,,,,,
,,,,,,,,,,,,More than half,None,Less than half,Most,All,Many,Few,Some,Half,-0.433333327,-0.308888901,1,0,0,QQQ9,,,,,,,,English,2020-07-02_11h00.15.020,Experiment_English,3.2.4,Win32,60,,,1,0,340,22,1,339,ratio11_3_6_6.png,,,,,,,,,,,,
,,,,,,,,,,,,Half,Few,Most,Many,Some,None,More than half,Less than half,All,0.432222242,0.027777771,1,0,0,QQQ2,,,,,,,,English,2020-07-02_11h00.15.020,Experiment_English,3.2.4,Win32,60,,,1,0,340,103,1,339,ratio14_1_5_9.png,,,,,,,,,,,,
,,,,,,,,,,,,More than half,Some,Most,Less than half,All,Many,Few,Half,None,-0.401111104,0.016666659,1,0,0,QQQ8,,,,,,,,English,2020-07-02_11h00.15.020,Experiment_English,3.2.4,Win32,60,,,1,0,340,39,1,339,ratio11_10_20_6.png,,,,,,,,,,,,
,,,,,,,,,,,,Most,More than half,Less than half,Many,All,Few,None,Some,Half,-0.106666655,0.229999979,1,0,0,QQQ4,,,,,,,,English,2020-07-02_11h00.15.020,Experiment_English,3.2.4,Win32,60,,,1,0,340,300,1,339,ratio51_5_6_1.png,,,,,,,,,,,,
,,,,,,,,,,,,Many,Few,More than half,Half,All,Some,Most,Less than half,None,0.496666687,-0.318888969,1,0,0,QQQ3,,,,,,,,English,2020-07-02_11h00.15.020,Experiment_English,3.2.4,Win32,60,,,1,0,340,298,1,339,ratio43_8_14_14.png,,,,,,,,,,,,
,,,,,,,,,,,,All,Few,Some,Half,Less than half,More than half,Most,None,Many,0.523333354,-0.064444453,1,0,0,QQQ2,,,,,,,,English,2020-07-02_11h00.15.020,Experiment_English,3.2.4,Win32,60,,,1,0,340,80,1,339,ratio13_1_4_3.png,,,,,,,,,,,,
,,,,,,,,,,,,None,More than half,Most,Many,Less than half,Half,All,Few,Some,0.012222236,0.245555552,1,0,0,QQQ4,,,,,,,,English,2020-07-02_11h00.15.020,Experiment_English,3.2.4,Win32,60,,,1,0,340,210,1,339,ratio31_9_12_9.png,,,,,,,,,,,,
,,,,,,,,,,,,Some,Less than half,Many,More than half,Few,None,Most,All,Half,0.481111132,-0.030000008,1,0,0,QQQ2,,,,,,,,English,2020-07-02_11h00.15.020,Experiment_English,3.2.4,Win32,60,,,1,0,340,8,1,339,ratio12_3_9_4.png,,,,,,,,,,,,
,,,,,,,,,,,,All,None,Some,Half,More than half,Most,Less than half,Few,Many,-0.381111104,0.266666663,1,0,0,QQQ7,,,,,,,,English,2020-07-02_11h00.15.020,Experiment_English,3.2.4,Win32,60,,,1,0,340,97,1,339,ratio13_5_20_2.png,,,,,,,,,,,,
,,,,,,,,,,,,Half,More than half,All,Some,Many,Few,Less than half,Most,None,-0.463333327,-0.268888968,1,0,0,QQQ9,,,,,,,,English,2020-07-02_11h00.15.020,Experiment_English,3.2.4,Win32,60,,,1,0,340,75,1,339,ratio0Y_0_16_10.png,,,,,,,,,,,,
,,,,,,,,,,,,Most,Few,None,More than half,All,Many,Less than half,Half,Some,0.448888909,-0.028888931,1,0,0,QQQ2,,,,,,,,English,2020-07-02_11h00.15.020,Experiment_English,3.2.4,Win32,60,,,1,0,340,139,1,339,ratio15_3_18_20.png,,,,,,,,,,,,
,,,,,,,,,,,,Many,Less than half,All,None,Most,Some,Few,Half,More than half,-0.45666666,0.318888869,1,0,0,QQQ7,,,,,,,,English,2020-07-02_11h00.15.020,Experiment_English,3.2.4,Win32,60,,,1,0,340,151,1,339,ratio19_2_20_4.png,,,,,,,,,,,,
,,,,,,,,,,,,All,Less than half,More than half,Most,Some,Many,Half,Few,None,0.50888891,0.024444437,1,0,0,QQQ2,,,,,,,,English,2020-07-02_11h00.15.020,Experiment_English,3.2.4,Win32,60,,,1,0,340,241,1,339,ratio34_3_7_5.png,,,,,,,,,,,,
,,,,,,,,,,,,Half,Many,Less than half,None,Few,More than half,All,Some,Most,0.357777796,-0.300000012,1,0,0,QQQ3,,,,,,,,English,2020-07-02_11h00.15.020,Experiment_English,3.2.4,Win32,60,,,1,0,340,199,1,339,ratio23_8_20_8.png,,,,,,,,,,,,
,,,,,,,,,,,,None,Some,Less than half,All,Most,More than half,Few,Many,Half,-0.057777765,0.298888886,1,0,0,QQQ4,,,,,,,,English,2020-07-02_11h00.15.020,Experiment_English,3.2.4,Win32,60,,,1,0,340,48,1,339,ratioX0_10_10_1.png,,,,,,,,,,,,
,,,,,,,,,,,,None,All,Few,More than half,Some,Many,Less than half,Most,Half,-0.403333326,0.286666663,1,0,0,QQQ7,,,,,,,,English,2020-07-02_11h00.15.020,Experiment_English,3.2.4,Win32,60,,,1,0,340,119,1,339,ratio14_4_20_10.png,0.283333351,-0.420000014,1,0,0,continue_button_pause,1,0,1,0,1,0
,,,,,,,,,,,,,,,,,,,,,,,,,,,,,,,,,,English,2020-07-02_11h00.15.020,Experiment_English,3.2.4,Win32,60,,,1,0,340,119,1,339,ratio14_4_20_10.png,,,,,,,,,,,,
,,,,,,,,,,,,Half,Some,Less than half,All,Most,More than half,Many,Few,None,-0.048888876,-0.095555564,1,0,0,QQQ5,,,,,,,,English,2020-07-02_11h00.15.020,Experiment_English,3.2.4,Win32,60,,,1,0,340,312,1,339,ratio51_10_12_16.png,,,,,,,,,,,,
,,,,,,,,,,,,Some,Few,Many,Less than half,Most,More than half,All,Half,None,-0.518888883,0.023333326,1,0,0,QQQ8,,,,,,,,English,2020-07-02_11h00.15.020,Experiment_English,3.2.4,Win32,60,,,1,0,340,20,1,339,ratio11_2_4_3.png,,,,,,,,,,,,
,,,,,,,,,,,,Half,Some,Less than half,None,Many,Most,More than half,Few,All,-0.453333327,-0.044444453,1,0,0,QQQ8,,,,,,,,English,2020-07-02_11h00.15.020,Experiment_English,3.2.4,Win32,60,,,1,0,340,0,1,339,ratio12_1_3_3.png,,,,,,,,,,,,
,,,,,,,,,,,,Half,Few,Some,More than half,All,None,Many,Less than half,Most,-0.373333326,-0.020000008,1,0,0,QQQ8,,,,,,,,English,2020-07-02_11h00.15.020,Experiment_English,3.2.4,Win32,60,,,1,0,340,136,1,339,ratio15_3_18_8.png,,,,,,,,,,,,
,,,,,,,,,,,,Few,Many,Some,Less than half,More than half,All,Most,Half,None,0.014444458,0.307777758,1,0,0,QQQ4,,,,,,,,English,2020-07-02_11h00.15.020,Experiment_English,3.2.4,Win32,60,,,1,0,340,96,1,339,ratio13_5_20_1.png,,,,,,,,,,,,
,,,,,,,,,,,,Most,More than half,All,Some,None,Less than half,Many,Few,Half,0.046666748,-0.328888901,1,0,0,QQQ6,,,,,,,,English,2020-07-02_11h00.15.020,Experiment_English,3.2.4,Win32,60,,,1,0,340,94,1,339,ratio13_4_16_8.png,,,,,,,,,,,,
,,,,,,,,,,,,Few,Half,Less than half,More than half,Some,Most,Many,None,All,0.431111131,0.291111091,1,0,0,QQQ1,,,,,,,,English,2020-07-02_11h00.15.020,Experiment_English,3.2.4,Win32,60,,,1,0,340,101,1,339,ratio14_1_5_7.png,,,,,,,,,,,,
,,,,,,,,,,,,Some,Less than half,Most,All,Half,None,More than half,Many,Few,-0.051111099,-0.036666675,1,0,0,QQQ5,,,,,,,,English,2020-07-02_11h00.15.020,Experiment_English,3.2.4,Win32,60,,,1,0,340,227,1,339,ratio32_6_10_6.png,,,,,,,,,,,,
,,,,,,,,,,,,Few,More than half,Most,All,Some,Many,Half,None,Less than half,0.35111113,-0.011111119,1,0,0,QQQ2,,,,,,,,English,2020-07-02_11h00.15.020,Experiment_English,3.2.4,Win32,60,,,1,0,340,178,1,339,ratio21_12_18_2.png,,,,,,,,,,,,
,,,,,,,,,,,,Most,All,More than half,Half,Some,None,Less than half,Many,Few,-0.458888882,-0.24111119,1,0,0,QQQ9,,,,,,,,English,2020-07-02_11h00.15.020,Experiment_English,3.2.4,Win32,60,,,1,0,340,2,1,339,ratio12_1_3_10.png,,,,,,,,,,,,
,,,,,,,,,,,,More than half,Few,Most,Many,All,Less than half,Some,Half,None,0.505555576,-0.31777779,1,0,0,QQQ3,,,,,,,,English,2020-07-02_11h00.15.020,Experiment_English,3.2.4,Win32,60,,,1,0,340,316,1,339,ratio51_15_18_11.png,,,,,,,,,,,,
,,,,,,,,,,,,Most,More than half,Many,All,None,Less than half,Some,Half,Few,0.080000082,-0.286666678,1,0,0,QQQ6,,,,,,,,English,2020-07-02_11h00.15.020,Experiment_English,3.2.4,Win32,60,,,1,0,340,192,1,339,ratio23_6_15_8.png,,,,,,,,,,,,
,,,,,,,,,,,,Some,Most,Half,Less than half,All,Few,None,More than half,Many,0.086666681,0.339999998,1,0,0,QQQ4,,,,,,,,English,2020-07-02_11h00.15.020,Experiment_English,3.2.4,Win32,60,,,1,0,340,4,1,339,ratio12_2_6_5.png,,,,,,,,,,,,
,,,,,,,,,,,,None,Most,Some,All,Few,Half,Many,More than half,Less than half,0.581111133,0.317777775,1,0,0,QQQ1,,,,,,,,English,2020-07-02_11h00.15.020,Experiment_English,3.2.4,Win32,60,,,1,0,340,64,1,339,ratio0Y_0_7_1.png,,,,,,,,,,,,
,,,,,,,,,,,,All,Many,None,Some,Less than half,Few,Half,More than half,Most,-0.045555543,-0.267777789,1,0,0,QQQ6,,,,,,,,English,2020-07-02_11h00.15.020,Experiment_English,3.2.4,Win32,60,,,1,0,340,138,1,339,ratio15_3_18_17.png,,,,,,,,,,,,
,,,,,,,,,,,,Few,Some,More than half,Half,Most,Less than half,None,All,Many,0.010000013,-0.035555564,1,0,0,QQQ5,,,,,,,,English,2020-07-02_11h00.15.020,Experiment_English,3.2.4,Win32,60,,,1,0,340,327,1,339,ratio91_9_10_11.png,,,,,,,,,,,,
,,,,,,,,,,,,Some,Many,All,Most,Half,None,Few,More than half,Less than half,-0.362222214,0.275555552,1,0,0,QQQ7,,,,,,,,English,2020-07-02_11h00.15.020,Experiment_English,3.2.4,Win32,60,,,1,0,340,144,1,339,ratio19_1_10_11.png,,,,,,,,,,,,
,,,,,,,,,,,,More than half,Few,Less than half,All,None,Most,Many,Some,Half,-0.045555543,-0.05222223,1,0,0,QQQ5,,,,,,,,English,2020-07-02_11h00.15.020,Experiment_English,3.2.4,Win32,60,,,1,0,340,71,1,339,ratio0Y_0_12_10.png,,,,,,,,,,,,
,,,,,,,,,,,,None,Few,Half,Most,All,Many,More than half,Less than half,Some,0.02666668,0.304444442,1,0,0,QQQ4,,,,,,,,English,2020-07-02_11h00.15.020,Experiment_English,3.2.4,Win32,60,,,1,0,340,318,1,339,ratio51_15_18_18.png,,,,,,,,,,,,
,,,,,,,,,,,,Most,None,Many,Less than half,Half,Some,Few,All,More than half,-0.432222182,-0.025555563,1,0,0,QQQ8,,,,,,,,English,2020-07-02_11h00.15.020,Experiment_English,3.2.4,Win32,60,,,1,0,340,53,1,339,ratioX0_14_14_8.png,,,,,,,,,,,,
,,,,,,,,,,,,Most,Few,More than half,All,Less than half,Half,None,Many,Some,0.408888908,-0.266666678,1,0,0,QQQ3,,,,,,,,English,2020-07-02_11h00.15.020,Experiment_English,3.2.4,Win32,60,,,1,0,340,31,1,339,ratio11_6_12_9.png,,,,,,,,,,,,
,,,,,,,,,,,,Some,None,Most,Half,Less than half,More than half,Few,All,Many,0.034444458,-0.017777819,1,0,0,QQQ5,,,,,,,,English,2020-07-02_11h00.15.020,Experiment_English,3.2.4,Win32,60,,,1,0,340,248,1,339,ratio34_3_7_19.png,,,,,,,,,,,,
,,,,,,,,,,,,Less than half,All,Many,Most,More than half,Few,None,Some,Half,-0.018888876,-0.280000079,1,0,0,QQQ6,,,,,,,,English,2020-07-02_11h00.15.020,Experiment_English,3.2.4,Win32,60,,,1,0,340,133,1,339,ratio15_3_18_3.png,,,,,,,,,,,,
,,,,,,,,,,,,Many,Half,All,Most,More than half,Less than half,Few,None,Some,0.024444526,0.269999997,1,0,0,QQQ4,,,,,,,,English,2020-07-02_11h00.15.020,Experiment_English,3.2.4,Win32,60,,,1,0,340,324,1,339,ratio91_9_10_7.png,,,,,,,,,,,,
,,,,,,,,,,,,Most,More than half,None,Many,Half,Less than half,Few,All,Some,0.484444465,0.015555514,1,0,0,QQQ2,,,,,,,,English,2020-07-02_11h00.15.020,Experiment_English,3.2.4,Win32,60,,,1,0,340,167,1,339,ratio21_6_9_2.png,,,,,,,,,,,,
,,,,,,,,,,,,All,Some,Few,Most,Less than half,None,Many,Half,More than half,-0.003333252,-0.054444453,1,0,0,QQQ5,,,,,,,,English,2020-07-02_11h00.15.020,Experiment_English,3.2.4,Win32,60,,,1,0,340,5,1,339,ratio12_2_6_9.png,,,,,,,,,,,,
,,,,,,,,,,,,Most,More than half,All,Some,Less than half,Few,None,Many,Half,0.527777799,-0.02222223,1,0,0,QQQ2,,,,,,,,English,2020-07-02_11h00.15.020,Experiment_English,3.2.4,Win32,60,,,1,0,340,309,1,339,ratio51_10_12_10.png,,,,,,,,,,,,
,,,,,,,,,,,,Some,More than half,Less than half,Half,None,Most,Few,All,Many,-0.043333321,-0.286666678,1,0,0,QQQ6,,,,,,,,English,2020-07-02_11h00.15.020,Experiment_English,3.2.4,Win32,60,,,1,0,340,315,1,339,ratio51_15_18_10.png,,,,,,,,,,,,
,,,,,,,,,,,,All,None,Few,Many,Some,Half,Most,Less than half,More than half,-0.524444439,-0.312222234,1,0,0,QQQ9,,,,,,,,English,2020-07-02_11h00.15.020,Experiment_English,3.2.4,Win32,60,,,1,0,340,230,1,339,ratio32_9_15_1.png,,,,,,,,,,,,
,,,,,,,,,,,,Many,None,Few,All,Less than half,Half,Most,More than half,Some,-0.399999993,0.282222219,1,0,0,QQQ7,,,,,,,,English,2020-07-02_11h00.15.020,Experiment_English,3.2.4,Win32,60,,,1,0,340,169,1,339,ratio21_6_9_7.png,,,,,,,,,,,,
,,,,,,,,,,,,All,None,Many,Half,More than half,Most,Some,Few,Less than half,0.563333355,0.296666647,1,0,0,QQQ1,,,,,,,,English,2020-07-02_11h00.15.020,Experiment_English,3.2.4,Win32,60,,,1,0,340,55,1,339,ratioX0_16_16_3.png,,,,,,,,,,,,
,,,,,,,,,,,,Less than half,All,Some,Few,More than half,Half,Many,None,Most,-0.442222216,0.27999998,1,0,0,QQQ7,,,,,,,,English,2020-07-02_11h00.15.020,Experiment_English,3.2.4,Win32,60,,,1,0,340,110,1,339,ratio14_3_15_2.png,,,,,,,,,,,,
,,,,,,,,,,,,More than half,Some,Most,Many,Few,Half,None,Less than half,All,0.041111193,-0.292222234,1,0,0,QQQ6,,,,,,,,English,2020-07-02_11h00.15.020,Experiment_English,3.2.4,Win32,60,,,1,0,340,161,1,339,ratio21_2_3_8.png,,,,,,,,,,,,
,,,,,,,,,,,,More than half,Many,None,Some,Few,Half,All,Most,Less than half,-0.387777736,-0.018888897,1,0,0,QQQ8,,,,,,,,English,2020-07-02_11h00.15.020,Experiment_English,3.2.4,Win32,60,,,1,0,340,263,1,339,ratio41_4_5_5.png,0.284444462,-0.394444458,1,0,0,continue_button_pause,1,0,1,0,1,0
,,,,,,,,,,,,,,,,,,,,,,,,,,,,,,,,,,English,2020-07-02_11h00.15.020,Experiment_English,3.2.4,Win32,60,,,1,0,340,263,1,339,ratio41_4_5_5.png,,,,,,,,,,,,
,,,,,,,,,,,,None,Some,Many,Most,Less than half,All,More than half,Half,Few,0.458888909,-0.273333345,1,0,0,QQQ3,,,,,,,,English,2020-07-02_11h00.15.020,Experiment_English,3.2.4,Win32,60,,,1,0,340,334,1,339,ratio91_18_20_9.png,,,,,,,,,,,,
,,,,,,,,,,,,More than half,Most,Few,Many,Less than half,Half,None,All,Some,0.067777792,0.252222202,1,0,0,QQQ4,,,,,,,,English,2020-07-02_11h00.15.020,Experiment_English,3.2.4,Win32,60,,,1,0,340,149,1,339,ratio19_1_10_20.png,,,,,,,,,,,,
,,,,,,,,,,,,More than half,None,Less than half,Most,All,Some,Few,Many,Half,-0.386666659,0.247777774,1,0,0,QQQ7,,,,,,,,English,2020-07-02_11h00.15.020,Experiment_English,3.2.4,Win32,60,,,1,0,340,125,1,339,ratio15_1_6_19.png,,,,,,,,,,,,
,,,,,,,,,,,,Many,Less than half,Most,More than half,None,Few,All,Half,Some,-0.463333327,0.05666666,1,0,0,QQQ8,,,,,,,,English,2020-07-02_11h00.15.020,Experiment_English,3.2.4,Win32,60,,,1,0,340,27,1,339,ratio11_5_10_7.png,,,,,,,,,,,,
,,,,,,,,,,,,All,None,Most,Few,Some,Half,Many,More than half,Less than half,-0.52555555,-0.232222233,1,0,0,QQQ9,,,,,,,,English,2020-07-02_11h00.15.020,Experiment_English,3.2.4,Win32,60,,,1,0,340,13,1,339,ratio12_5_15_3.png,,,,,,,,,,,,
,,,,,,,,,,,,Few,Many,Some,Less than half,More than half,Most,Half,None,All,-0.002222209,0.271111108,1,0,0,QQQ4,,,,,,,,English,2020-07-02_11h00.15.020,Experiment_English,3.2.4,Win32,60,,,1,0,340,98,1,339,ratio13_5_20_3.png,,,,,,,,,,,,
,,,,,,,,,,,,None,More than half,Less than half,Many,Half,Few,All,Most,Some,-0.037777765,0.022222215,1,0,0,QQQ5,,,,,,,,English,2020-07-02_11h00.15.020,Experiment_English,3.2.4,Win32,60,,,1,0,340,249,1,339,ratio34_3_7_20.png,,,,,,,,,,,,
,,,,,,,,,,,,More than half,Most,All,Some,Many,Half,Few,Less than half,None,-0.37777777,0.02111107,1,0,0,QQQ8,,,,,,,,English,2020-07-02_11h00.15.020,Experiment_English,3.2.4,Win32,60,,,1,0,340,134,1,339,ratio15_3_18_5.png,,,,,,,,,,,,
,,,,,,,,,,,,Many,None,More than half,Less than half,Some,All,Half,Most,Few,0.408888908,0.249999996,1,0,0,QQQ1,,,,,,,,English,2020-07-02_11h00.15.020,Experiment_English,3.2.4,Win32,60,,,1,0,340,295,1,339,ratio43_8_14_11.png,,,,,,,,,,,,
,,,,,,,,,,,,More than half,All,Most,Few,None,Many,Half,Less than half,Some,0.487777798,0.265555552,1,0,0,QQQ1,,,,,,,,English,2020-07-02_11h00.15.020,Experiment_English,3.2.4,Win32,60,,,1,0,340,173,1,339,ratio21_8_12_9.png,,,,,,,,,,,,
,,,,,,,,,,,,Most,Many,Some,More than half,None,Few,Less than half,All,Half,0.54333349,-0.040000042,1,0,0,QQQ2,,,,,,,,English,2020-07-02_11h00.15.020,Experiment_English,3.2.4,Win32,60,,,1,0,340,319,1,339,ratio51_15_18_20.png,,,,,,,,,,,,
,,,,,,,,,,,,Many,Most,More than half,Few,All,Less than half,None,Half,Some,-0.403333326,0.326666664,1,0,0,QQQ7,,,,,,,,English,2020-07-02_11h00.15.020,Experiment_English,3.2.4,Win32,60,,,1,0,340,74,1,339,ratio0Y_0_15_10.png,,,,,,,,,,,,
,,,,,,,,,,,,Most,None,Half,All,More than half,Some,Many,Less than half,Few,0.484444465,0.307777758,1,0,0,QQQ1,,,,,,,,English,2020-07-02_11h00.15.020,Experiment_English,3.2.4,Win32,60,,,1,0,340,216,1,339,ratio31_15_20_3.png,,,,,,,,,,,,
,,,,,,,,,,,,Half,Some,Few,More than half,Less than half,Many,None,Most,All,-0.391111104,0.286666663,1,0,0,QQQ7,,,,,,,,English,2020-07-02_11h00.15.020,Experiment_English,3.2.4,Win32,60,,,1,0,340,322,1,339,ratio91_9_10_3.png,,,,,,,,,,,,
,,,,,,,,,,,,Half,None,Few,Some,More than half,Less than half,Many,All,Most,-0.055555543,-0.283333345,1,0,0,QQQ6,,,,,,,,English,2020-07-02_11h00.15.020,Experiment_English,3.2.4,Win32,60,,,1,0,340,7,1,339,ratio12_3_9_2.png,,,,,,,,,,,,
,,,,,,,,,,,,Many,Some,Less than half,More than half,Most,Half,None,All,Few,0.535555577,-0.32777779,1,0,0,QQQ3,,,,,,,,English,2020-07-02_11h00.15.020,Experiment_English,3.2.4,Win32,60,,,1,0,340,291,1,339,ratio43_8_14_5.png,,,,,,,,,,,,
,,,,,,,,,,,,Some,Most,Less than half,None,Few,Half,Many,More than half,All,0.544444466,-0.025555563,1,0,0,QQQ2,,,,,,,,English,2020-07-02_11h00.15.020,Experiment_English,3.2.4,Win32,60,,,1,0,340,262,1,339,ratio41_4_5_4.png,,,,,,,,,,,,
,,,,,,,,,,,,Half,More than half,Some,Less than half,Many,None,Most,All,Few,-0.528888884,0.326666664,1,0,0,QQQ7,,,,,,,,English,2020-07-02_11h00.15.020,Experiment_English,3.2.4,Win32,60,,,1,0,340,307,1,339,ratio51_10_12_1.png,,,,,,,,,,,,
,,,,,,,,,,,,Less than half,More than half,Most,Half,All,None,Many,Few,Some,0.560000157,-0.312222234,1,0,0,QQQ3,,,,,,,,English,2020-07-02_11h00.15.020,Experiment_English,3.2.4,Win32,60,,,1,0,340,274,1,339,ratio41_12_15_9.png,,,,,,,,,,,,
,,,,,,,,,,,,Few,Many,More than half,All,Half,Less than half,Some,Most,None,-0.053333253,-0.025555563,1,0,0,QQQ5,,,,,,,,English,2020-07-02_11h00.15.020,Experiment_English,3.2.4,Win32,60,,,1,0,340,191,1,339,ratio23_6_15_7.png,,,,,,,,,,,,
,,,,,,,,,,,,Most,All,More than half,Half,Many,None,Some,Less than half,Few,-0.473333327,0.023333326,1,0,0,QQQ8,,,,,,,,English,2020-07-02_11h00.15.020,Experiment_English,3.2.4,Win32,60,,,1,0,340,106,1,339,ratio14_2_10_2.png,,,,,,,,,,,,
,,,,,,,,,,,,More than half,Half,Some,All,Few,Less than half,None,Most,Many,-0.007777765,-0.063333342,1,0,0,QQQ5,,,,,,,,English,2020-07-02_11h00.15.020,Experiment_English,3.2.4,Win32,60,,,1,0,340,82,1,339,ratio13_1_4_7.png,,,,,,,,,,,,
,,,,,,,,,,,,Few,Most,Half,More than half,None,All,Less than half,Many,Some,0.531111132,0.25333333,1,0,0,QQQ1,,,,,,,,English,2020-07-02_11h00.15.020,Experiment_English,3.2.4,Win32,60,,,1,0,340,3,1,339,ratio12_2_6_3.png,,,,,,,,,,,,
,,,,,,,,,,,,Less than half,Many,Some,Few,More than half,Most,None,All,Half,0.008888902,-0.280000079,1,0,0,QQQ6,,,,,,,,English,2020-07-02_11h00.15.020,Experiment_English,3.2.4,Win32,60,,,1,0,340,213,1,339,ratio31_12_16_2.png,,,,,,,,,,,,
,,,,,,,,,,,,All,Some,Many,Few,None,Half,More than half,Less than half,Most,-0.432222182,0.031111104,1,0,0,QQQ8,,,,,,,,English,2020-07-02_11h00.15.020,Experiment_English,3.2.4,Win32,60,,,1,0,340,19,1,339,ratio12_6_18_9.png,,,,,,,,,,,,
,,,,,,,,,,,,All,More than half,Few,Some,Half,Many,Less than half,Most,None,-0.463333327,0.016666659,1,0,0,QQQ8,,,,,,,,English,2020-07-02_11h00.15.020,Experiment_English,3.2.4,Win32,60,,,1,0,340,337,1,339,ratio91_18_20_16.png,,,,,,,,,,,,
,,,,,,,,,,,,More than half,All,Less than half,Few,None,Half,Most,Some,Many,0.017777791,-0.272222234,1,0,0,QQQ6,,,,,,,,English,2020-07-02_11h00.15.020,Experiment_English,3.2.4,Win32,60,,,1,0,340,257,1,339,ratio34_6_14_12.png,,,,,,,,,,,,
,,,,,,,,,,,,More than half,Less than half,Half,None,Many,Some,Few,All,Most,0.444444464,-0.028888931,1,0,0,QQQ2,,,,,,,,English,2020-07-02_11h00.15.020,Experiment_English,3.2.4,Win32,60,,,1,0,340,118,1,339,ratio14_4_20_8.png,,,,,,,,,,,,
,,,,,,,,,,,,None,Many,Few,Most,More than half,Half,Less than half,All,Some,0.047777792,-0.290000012,1,0,0,QQQ6,,,,,,,,English,2020-07-02_11h00.15.020,Experiment_English,3.2.4,Win32,60,,,1,0,340,194,1,339,ratio23_6_15_10.png,,,,,,,,,,,,
,,,,,,,,,,,,Most,None,Many,Half,Few,Less than half,Some,All,More than half,0.504444465,0.03666666,1,0,0,QQQ2,,,,,,,,English,2020-07-02_11h00.15.020,Experiment_English,3.2.4,Win32,60,,,1,0,340,78,1,339,ratio0Y_0_19_1.png,,,,,,,,,,,,
,,,,,,,,,,,,Less than half,More than half,None,Many,Some,Half,Few,All,Most,0.534444466,0.057777771,1,0,0,QQQ2,,,,,,,,English,2020-07-02_11h00.15.020,Experiment_English,3.2.4,Win32,60,,,1,0,340,168,1,339,ratio21_6_9_3.png,,,,,,,,,,,,
,,,,,,,,,,,,More than half,Many,None,Less than half,Few,Some,Most,All,Half,0.135555639,0.268888868,1,0,0,QQQ4,,,,,,,,English,2020-07-02_11h00.15.020,Experiment_English,3.2.4,Win32,60,,,1,0,340,183,1,339,ratio23_2_5_9.png,,,,,,,,,,,,
,,,,,,,,,,,,Many,Half,All,Less than half,Some,More than half,None,Most,Few,0.044444458,-0.37666668,1,0,0,QQQ6,,,,,,,,English,2020-07-02_11h00.15.020,Experiment_English,3.2.4,Win32,60,,,1,0,340,265,1,339,ratio41_8_10_1.png,,,,,,,,,,,,
,,,,,,,,,,,,Half,Few,All,Most,None,More than half,Some,Less than half,Many,0.10555557,0.018888882,1,0,0,QQQ5,,,,,,,,English,2020-07-02_11h00.15.020,Experiment_English,3.2.4,Win32,60,,,1,0,340,73,1,339,ratio0Y_0_14_7.png,0.313333351,-0.394444458,1,0,0,continue_button_pause,1,0,1,0,1,0
,,,,,,,,,,,,,,,,,,,,,,,,,,,,,,,,,,English,2020-07-02_11h00.15.020,Experiment_English,3.2.4,Win32,60,,,1,0,340,73,1,339,ratio0Y_0_14_7.png,,,,,,,,,,,,
,,,,,,,,,,,,All,Few,Half,Some,Less than half,More than half,Most,Many,None,0.037777792,-0.026666675,1,0,0,QQQ5,,,,,,,,English,2020-07-02_11h00.15.020,Experiment_English,3.2.4,Win32,60,,,1,0,340,188,1,339,ratio23_4_10_6.png,,,,,,,,,,,,
,,,,,,,,,,,,Most,Few,Some,All,Half,More than half,None,Less than half,Many,0.533333355,0.308888886,1,0,0,QQQ1,,,,,,,,English,2020-07-02_11h00.15.020,Experiment_English,3.2.4,Win32,60,,,1,0,340,323,1,339,ratio91_9_10_5.png,,,,,,,,,,,,
,,,,,,,,,,,,Most,Half,All,Few,Some,None,Many,More than half,Less than half,-0.018888876,0.269999997,1,0,0,QQQ4,,,,,,,,English,2020-07-02_11h00.15.020,Experiment_English,3.2.4,Win32,60,,,1,0,340,146,1,339,ratio19_1_10_17.png,,,,,,,,,,,,
,,,,,,,,,,,,Some,Many,Half,None,Most,Less than half,Few,More than half,All,-0.105555544,-0.04222223,1,0,0,QQQ5,,,,,,,,English,2020-07-02_11h00.15.020,Experiment_English,3.2.4,Win32,60,,,1,0,340,332,1,339,ratio91_18_20_4.png,,,,,,,,,,,,
,,,,,,,,,,,,Most,All,Many,Few,More than half,Half,Less than half,None,Some,0.503333354,0.267777774,1,0,0,QQQ1,,,,,,,,English,2020-07-02_11h00.15.020,Experiment_English,3.2.4,Win32,60,,,1,0,340,310,1,339,ratio51_10_12_12.png,,,,,,,,,,,,
,,,,,,,,,,,,Most,Many,Half,More than half,Some,All,None,Few,Less than half,0.091111194,-0.260000011,1,0,0,QQQ6,,,,,,,,English,2020-07-02_11h00.15.020,Experiment_English,3.2.4,Win32,60,,,1,0,340,45,1,339,ratioX0_8_8_3.png,,,,,,,,,,,,
,,,,,,,,,,,,Few,Less than half,Some,Many,All,Half,None,More than half,Most,-0.412222215,0.012222215,1,0,0,QQQ8,,,,,,,,English,2020-07-02_11h00.15.020,Experiment_English,3.2.4,Win32,60,,,1,0,340,283,1,339,ratio43_4_7_8.png,,,,,,,,,,,,
,,,,,,,,,,,,Less than half,Some,Half,None,Few,Many,All,Most,More than half,0.464444465,0.278888886,1,0,0,QQQ1,,,,,,,,English,2020-07-02_11h00.15.020,Experiment_English,3.2.4,Win32,60,,,1,0,340,99,1,339,ratio13_5_20_4.png,,,,,,,,,,,,
,,,,,,,,,,,,Half,Less than half,None,Many,Few,Most,Some,More than half,All,0.14666675,-0.014444452,1,0,0,QQQ5,,,,,,,,English,2020-07-02_11h00.15.020,Experiment_English,3.2.4,Win32,60,,,1,0,340,240,1,339,ratio34_3_7_4.png,,,,,,,,,,,,
,,,,,,,,,,,,Some,All,Few,Most,Many,Less than half,Half,More than half,None,-0.373333326,-7.4558E-09,1,0,0,QQQ8,,,,,,,,English,2020-07-02_11h00.15.020,Experiment_English,3.2.4,Win32,60,,,1,0,340,202,1,339,ratio31_3_4_8.png,,,,,,,,,,,,
,,,,,,,,,,,,Many,Some,Most,Less than half,Half,None,More than half,Few,All,0.46000002,-0.262222234,1,0,0,QQQ3,,,,,,,,English,2020-07-02_11h00.15.020,Experiment_English,3.2.4,Win32,60,,,1,0,340,328,1,339,ratio91_9_10_15.png,,,,,,,,,,,,
,,,,,,,,,,,,More than half,None,Less than half,All,Few,Most,Many,Half,Some,0.566666688,-0.260000011,1,0,0,QQQ3,,,,,,,,English,2020-07-02_11h00.15.020,Experiment_English,3.2.4,Win32,60,,,1,0,340,253,1,339,ratio34_6_14_5.png,,,,,,,,,,,,
,,,,,,,,,,,,More than half,All,Less than half,Most,Half,None,Some,Few,Many,0.606666689,0.043333293,1,0,0,QQQ2,,,,,,,,English,2020-07-02_11h00.15.020,Experiment_English,3.2.4,Win32,60,,,1,0,340,43,1,339,ratioX0_6_6_9.png,,,,,,,,,,,,
,,,,,,,,,,,,Half,Many,Few,Some,Less than half,Most,All,None,More than half,-0.401111104,-0.288888901,1,0,0,QQQ9,,,,,,,,English,2020-07-02_11h00.15.020,Experiment_English,3.2.4,Win32,60,,,1,0,340,229,1,339,ratio32_6_10_9.png,,,,,,,,,,,,
,,,,,,,,,,,,More than half,Some,Few,None,Half,All,Many,Most,Less than half,-0.454444404,0.252222202,1,0,0,QQQ7,,,,,,,,English,2020-07-02_11h00.15.020,Experiment_English,3.2.4,Win32,60,,,1,0,340,279,1,339,ratio41_16_20_10.png,,,,,,,,,,,,
,,,,,,,,,,,,Some,Many,None,Most,Few,More than half,Half,Less than half,All,0.003333347,-0.044444453,1,0,0,QQQ5,,,,,,,,English,2020-07-02_11h00.15.020,Experiment_English,3.2.4,Win32,60,,,1,0,340,152,1,339,ratio19_2_20_6.png,,,,,,,,,,,,
,,,,,,,,,,,,More than half,Less than half,Most,Many,Some,Few,None,All,Half,0.651111134,-0.005555563,1,0,0,QQQ2,,,,,,,,English,2020-07-02_11h00.15.020,Experiment_English,3.2.4,Win32,60,,,1,0,340,93,1,339,ratio13_4_16_7.png,,,,,,,,,,,,
,,,,,,,,,,,,None,Less than half,Some,Most,Half,More than half,Few,All,Many,0.487777798,-0.018888897,1,0,0,QQQ2,,,,,,,,English,2020-07-02_11h00.15.020,Experiment_English,3.2.4,Win32,60,,,1,0,340,89,1,339,ratio13_3_12_6.png,,,,,,,,,,,,
,,,,,,,,,,,,None,Few,Many,Half,More than half,All,Less than half,Most,Some,0.484444465,0.263333313,1,0,0,QQQ1,,,,,,,,English,2020-07-02_11h00.15.020,Experiment_English,3.2.4,Win32,60,,,1,0,340,60,1,339,ratio0Y_0_3_5.png,,,,,,,,,,,,
,,,,,,,,,,,,Many,Less than half,None,Half,Few,All,Some,More than half,Most,-0.395555548,-0.006666708,1,0,0,QQQ8,,,,,,,,English,2020-07-02_11h00.15.020,Experiment_English,3.2.4,Win32,60,,,1,0,340,174,1,339,ratio21_10_15_1.png,,,,,,,,,,,,
,,,,,,,,,,,,Most,None,More than half,Half,All,Few,Less than half,Some,Many,0.407777797,0.282222219,1,0,0,QQQ1,,,,,,,,English,2020-07-02_11h00.15.020,Experiment_English,3.2.4,Win32,60,,,1,0,340,330,1,339,ratio91_18_20_2.png,,,,,,,,,,,,
,,,,,,,,,,,,Few,None,Half,Many,Some,Less than half,Most,More than half,All,-0.473333327,-0.015555563,1,0,0,QQQ8,,,,,,,,English,2020-07-02_11h00.15.020,Experiment_English,3.2.4,Win32,60,,,1,0,340,171,1,339,ratio21_8_12_4.png,,,,,,,,,,,,
,,,,,,,,,,,,None,Less than half,More than half,All,Some,Half,Many,Most,Few,-0.016666654,-0.383333346,1,0,0,QQQ6,,,,,,,,English,2020-07-02_11h00.15.020,Experiment_English,3.2.4,Win32,60,,,1,0,340,251,1,339,ratio34_6_14_2.png,,,,,,,,,,,,
,,,,,,,,,,,,Some,None,Half,Few,All,Less than half,Many,More than half,Most,-0.438888882,-0.034444486,1,0,0,QQQ8,,,,,,,,English,2020-07-02_11h00.15.020,Experiment_English,3.2.4,Win32,60,,,1,0,340,269,1,339,ratio41_8_10_6.png,,,,,,,,,,,,
,,,,,,,,,,,,Many,Most,Few,More than half,Some,None,Half,Less than half,All,0.418888908,-0.037777786,1,0,0,QQQ2,,,,,,,,English,2020-07-02_11h00.15.020,Experiment_English,3.2.4,Win32,60,,,1,0,340,261,1,339,ratio41_4_5_3.png,,,,,,,,,,,,
,,,,,,,,,,,,Some,More than half,All,Most,None,Few,Half,Less than half,Many,0.060000014,0.347777776,1,0,0,QQQ4,,,,,,,,English,2020-07-02_11h00.15.020,Experiment_English,3.2.4,Win32,60,,,1,0,340,267,1,339,ratio41_8_10_4.png,,,,,,,,,,,,
,,,,,,,,,,,,Many,Most,Few,None,More than half,Less than half,Half,All,Some,0.027777791,0.288888886,1,0,0,QQQ4,,,,,,,,English,2020-07-02_11h00.15.020,Experiment_English,3.2.4,Win32,60,,,1,0,340,67,1,339,ratio0Y_0_10_10.png,,,,,,,,,,,,
,,,,,,,,,,,,Few,Half,Some,More than half,Less than half,None,Most,Many,All,-0.368888881,0.25333333,1,0,0,QQQ7,,,,,,,,English,2020-07-02_11h00.15.020,Experiment_English,3.2.4,Win32,60,,,1,0,340,325,1,339,ratio91_9_10_8.png,,,,,,,,,,,,
,,,,,,,,,,,,More than half,None,Some,Half,All,Most,Less than half,Few,Many,0.51888891,0.248888885,1,0,0,QQQ1,,,,,,,,English,2020-07-02_11h00.15.020,Experiment_English,3.2.4,Win32,60,,,1,0,340,239,1,339,ratio32_12_20_10.png,,,,,,,,,,,,
,,,,,,,,,,,,More than half,Most,All,Half,Some,Many,Few,None,Less than half,-0.026666654,0.287777775,1,0,0,QQQ4,,,,,,,,English,2020-07-02_11h00.15.020,Experiment_English,3.2.4,Win32,60,,,1,0,340,226,1,339,ratio32_6_10_5.png,,,,,,,,,,,,
,,,,,,,,,,,,Some,Few,Many,Less than half,None,Most,Half,More than half,All,-0.057777765,0.318888869,1,0,0,QQQ4,,,,,,,,English,2020-07-02_11h00.15.020,Experiment_English,3.2.4,Win32,60,,,1,0,340,128,1,339,ratio15_2_12_8.png,,,,,,,,,,,,
,,,,,,,,,,,,Most,Some,Few,Less than half,More than half,All,Many,Half,None,-0.027777765,-0.28777779,1,0,0,QQQ6,,,,,,,,English,2020-07-02_11h00.15.020,Experiment_English,3.2.4,Win32,60,,,1,0,340,47,1,339,ratioX0_9_9_4.png,,,,,,,,,,,,
,,,,,,,,,,,,All,None,Some,Half,Few,Many,More than half,Less than half,Most,-0.455555549,-0.010000008,1,0,0,QQQ8,,,,,,,,English,2020-07-02_11h00.15.020,Experiment_English,3.2.4,Win32,60,,,1,0,340,181,1,339,ratio23_2_5_6.png,,,,,,,,,,,,
,,,,,,,,,,,,Most,Few,Less than half,Half,All,None,More than half,Many,Some,-0.389999993,0.331111109,1,0,0,QQQ7,,,,,,,,English,2020-07-02_11h00.15.020,Experiment_English,3.2.4,Win32,60,,,1,0,340,212,1,339,ratio31_12_16_1.png,0.333333352,-0.397777791,1,0,0,continue_button_pause,1,0,1,0,1,0
,,,,,,,,,,,,,,,,,,,,,,,,,,,,,,,,,,English,2020-07-02_11h00.15.020,Experiment_English,3.2.4,Win32,60,,,1,0,340,212,1,339,ratio31_12_16_1.png,,,,,,,,,,,,
,,,,,,,,,,,,Less than half,None,More than half,Few,Many,Some,All,Most,Half,0.432222242,0.356666665,1,0,0,QQQ1,,,,,,,,English,2020-07-02_11h00.15.020,Experiment_English,3.2.4,Win32,60,,,1,0,340,109,1,339,ratio14_2_10_9.png,,,,,,,,,,,,
,,,,,,,,,,,,Many,Few,More than half,All,None,Half,Most,Some,Less than half,0.396666686,0.278888886,1,0,0,QQQ1,,,,,,,,English,2020-07-02_11h00.15.020,Experiment_English,3.2.4,Win32,60,,,1,0,340,219,1,339,ratio31_15_20_10.png,,,,,,,,,,,,
,,,,,,,,,,,,Half,Many,Some,Less than half,All,Most,More than half,Few,None,0.00666668,0.29333333,1,0,0,QQQ4,,,,,,,,English,2020-07-02_11h00.15.020,Experiment_English,3.2.4,Win32,60,,,1,0,340,17,1,339,ratio12_6_18_5.png,,,,,,,,,,,,
,,,,,,,,,,,,More than half,Most,Less than half,None,Few,Some,Half,All,Many,0.455555576,-0.334444457,1,0,0,QQQ3,,,,,,,,English,2020-07-02_11h00.15.020,Experiment_English,3.2.4,Win32,60,,,1,0,340,187,1,339,ratio23_4_10_5.png,,,,,,,,,,,,
,,,,,,,,,,,,Half,More than half,Few,Most,All,Some,Many,None,Less than half,0.576666824,-0.013333341,1,0,0,QQQ2,,,,,,,,English,2020-07-02_11h00.15.020,Experiment_English,3.2.4,Win32,60,,,1,0,340,223,1,339,ratio32_3_5_5.png,,,,,,,,,,,,
,,,,,,,,,,,,None,Some,Few,More than half,Most,Many,Less than half,All,Half,-0.075555476,0.287777775,1,0,0,QQQ4,,,,,,,,English,2020-07-02_11h00.15.020,Experiment_English,3.2.4,Win32,60,,,1,0,340,163,1,339,ratio21_4_6_1.png,,,,,,,,,,,,
,,,,,,,,,,,,Most,More than half,None,Half,Less than half,Some,All,Few,Many,-0.355555548,0.006666659,1,0,0,QQQ8,,,,,,,,English,2020-07-02_11h00.15.020,Experiment_English,3.2.4,Win32,60,,,1,0,340,150,1,339,ratio19_2_20_1.png,,,,,,,,,,,,
,,,,,,,,,,,,Most,Some,Less than half,More than half,Half,Few,All,None,Many,0.475555576,0.282222219,1,0,0,QQQ1,,,,,,,,English,2020-07-02_11h00.15.020,Experiment_English,3.2.4,Win32,60,,,1,0,340,335,1,339,ratio91_18_20_11.png,,,,,,,,,,,,
,,,,,,,,,,,,Most,Many,More than half,Less than half,Half,Some,None,All,Few,-0.012222209,0.228888885,1,0,0,QQQ4,,,,,,,,English,2020-07-02_11h00.15.020,Experiment_English,3.2.4,Win32,60,,,1,0,340,137,1,339,ratio15_3_18_16.png,,,,,,,,,,,,
,,,,,,,,,,,,Most,Less than half,All,Many,Few,None,Some,More than half,Half,0.01888897,-0.308888901,1,0,0,QQQ6,,,,,,,,English,2020-07-02_11h00.15.020,Experiment_English,3.2.4,Win32,60,,,1,0,340,76,1,339,ratio0Y_0_17_10.png,,,,,,,,,,,,
,,,,,,,,,,,,All,More than half,Some,None,Half,Most,Less than half,Few,Many,-0.553333328,-0.324444525,1,0,0,QQQ9,,,,,,,,English,2020-07-02_11h00.15.020,Experiment_English,3.2.4,Win32,60,,,1,0,340,321,1,339,ratio91_9_10_2.png,,,,,,,,,,,,
,,,,,,,,,,,,Some,Many,Less than half,Most,All,None,Half,Few,More than half,0.47000002,-0.034444486,1,0,0,QQQ2,,,,,,,,English,2020-07-02_11h00.15.020,Experiment_English,3.2.4,Win32,60,,,1,0,340,336,1,339,ratio91_18_20_12.png,,,,,,,,,,,,
,,,,,,,,,,,,Less than half,Few,Most,Many,Half,All,Some,None,More than half,-0.387777736,-0.275555567,1,0,0,QQQ9,,,,,,,,English,2020-07-02_11h00.15.020,Experiment_English,3.2.4,Win32,60,,,1,0,340,234,1,339,ratio32_9_15_10.png,,,,,,,,,,,,
,,,,,,,,,,,,All,More than half,None,Half,Few,Many,Some,Less than half,Most,0.516666688,-0.314444457,1,0,0,QQQ3,,,,,,,,English,2020-07-02_11h00.15.020,Experiment_English,3.2.4,Win32,60,,,1,0,340,61,1,339,ratio0Y_0_4_7.png,,,,,,,,,,,,
,,,,,,,,,,,,Half,Less than half,Some,None,Most,More than half,Many,Few,All,-0.387777736,-0.244444456,1,0,0,QQQ9,,,,,,,,English,2020-07-02_11h00.15.020,Experiment_English,3.2.4,Win32,60,,,1,0,340,42,1,339,ratioX0_5_5_5.png,,,,,,,,,,,,
,,,,,,,,,,,,More than half,Many,All,Few,Half,None,Most,Less than half,Some,0.01666668,-0.291111191,1,0,0,QQQ6,,,,,,,,English,2020-07-02_11h00.15.020,Experiment_English,3.2.4,Win32,60,,,1,0,340,70,1,339,ratio0Y_0_12_5.png,,,,,,,,,,,,
,,,,,,,,,,,,Most,Few,Many,Less than half,All,More than half,Some,Half,None,0.377777797,0.30333333,1,0,0,QQQ1,,,,,,,,English,2020-07-02_11h00.15.020,Experiment_English,3.2.4,Win32,60,,,1,0,340,145,1,339,ratio19_1_10_15.png,,,,,,,,,,,,
,,,,,,,,,,,,Most,More than half,None,Less than half,Half,Some,All,Few,Many,-0.396666659,0.301111108,1,0,0,QQQ7,,,,,,,,English,2020-07-02_11h00.15.020,Experiment_English,3.2.4,Win32,60,,,1,0,340,54,1,339,ratioX0_15_15_5.png,,,,,,,,,,,,
,,,,,,,,,,,,Few,None,Some,All,Many,More than half,Half,Most,Less than half,0.051111125,-0.281111123,1,0,0,QQQ6,,,,,,,,English,2020-07-02_11h00.15.020,Experiment_English,3.2.4,Win32,60,,,1,0,340,26,1,339,ratio11_5_10_4.png,,,,,,,,,,,,
,,,,,,,,,,,,More than half,Few,Many,All,Most,None,Less than half,Half,Some,0.574444466,0.233333329,1,0,0,QQQ1,,,,,,,,English,2020-07-02_11h00.15.020,Experiment_English,3.2.4,Win32,60,,,1,0,340,207,1,339,ratio31_6_8_9.png,,,,,,,,,,,,
,,,,,,,,,,,,Many,Less than half,Some,None,All,Few,Half,Most,More than half,-0.353333325,0.291111091,1,0,0,QQQ7,,,,,,,,English,2020-07-02_11h00.15.020,Experiment_English,3.2.4,Win32,60,,,1,0,340,25,1,339,ratio11_4_8_10.png,,,,,,,,,,,,
,,,,,,,,,,,,More than half,Some,Half,Most,All,None,Less than half,Few,Many,0.557777799,0.272222219,1,0,0,QQQ1,,,,,,,,English,2020-07-02_11h00.15.020,Experiment_English,3.2.4,Win32,60,,,1,0,340,221,1,339,ratio32_3_5_3.png,,,,,,,,,,,,
,,,,,,,,,,,,Some,Half,Most,Less than half,All,None,Few,More than half,Many,0.004444458,-0.274444524,1,0,0,QQQ6,,,,,,,,English,2020-07-02_11h00.15.020,Experiment_English,3.2.4,Win32,60,,,1,0,340,66,1,339,ratio0Y_0_9_8.png,,,,,,,,,,,,
,,,,,,,,,,,,Some,None,Few,Half,Less than half,Most,More than half,All,Many,0.066666681,0.305555553,1,0,0,QQQ4,,,,,,,,English,2020-07-02_11h00.15.020,Experiment_English,3.2.4,Win32,60,,,1,0,340,196,1,339,ratio23_8_20_5.png,,,,,,,,,,,,
,,,,,,,,,,,,More than half,None,Most,Half,All,Many,Some,Less than half,Few,-0.424444438,0.084444438,1,0,0,QQQ8,,,,,,,,English,2020-07-02_11h00.15.020,Experiment_English,3.2.4,Win32,60,,,1,0,340,185,1,339,ratio23_4_10_1.png,,,,,,,,,,,,
,,,,,,,,,,,,More than half,Half,Less than half,Some,Many,All,Few,Most,None,0.388888908,-0.267777789,1,0,0,QQQ3,,,,,,,,English,2020-07-02_11h00.15.020,Experiment_English,3.2.4,Win32,60,,,1,0,340,242,1,339,ratio34_3_7_6.png,,,,,,,,,,,,
,,,,,,,,,,,,Less than half,All,Few,Half,None,Many,More than half,Some,Most,-0.44666666,0.328888886,1,0,0,QQQ7,,,,,,,,English,2020-07-02_11h00.15.020,Experiment_English,3.2.4,Win32,60,,,1,0,340,208,1,339,ratio31_9_12_3.png,,,,,,,,,,,,
,,,,,,,,,,,,Some,Half,Few,None,All,More than half,Many,Less than half,Most,0.108888904,-0.29777779,1,0,0,QQQ6,,,,,,,,English,2020-07-02_11h00.15.020,Experiment_English,3.2.4,Win32,60,,,1,0,340,30,1,339,ratio11_6_12_6.png,,,,,,,,,,,,
,,,,,,,,,,,,All,Some,Most,Half,Few,None,More than half,Many,Less than half,-0.358888881,0.246666646,1,0,0,QQQ7,,,,,,,,English,2020-07-02_11h00.15.020,Experiment_English,3.2.4,Win32,60,,,1,0,340,232,1,339,ratio32_9_15_8.png,,,,,,,,,,,,
,,,,,,,,,,,,Half,All,More than half,None,Few,Many,Most,Some,Less than half,0.552222244,-0.340000013,1,0,0,QQQ3,,,,,,,,English,2020-07-02_11h00.15.020,Experiment_English,3.2.4,Win32,60,,,1,0,340,160,1,339,ratio21_2_3_2.png,,,,,,,,,,,,
,,,,,,,,,,,,All,Some,Less than half,More than half,Few,Half,Many,Most,None,-0.413333326,0.233333329,1,0,0,QQQ7,,,,,,,,English,2020-07-02_11h00.15.020,Experiment_English,3.2.4,Win32,60,,,1,0,340,302,1,339,ratio51_5_6_5.png,,,,,,,,,,,,
,,,,,,,,,,,,Most,None,All,Half,Some,Less than half,Few,More than half,Many,-0.384444437,0.28333333,1,0,0,QQQ7,,,,,,,,English,2020-07-02_11h00.15.020,Experiment_English,3.2.4,Win32,60,,,1,0,340,143,1,339,ratio19_1_10_9.png,,,,,,,,,,,,
,,,,,,,,,,,,Few,None,Less than half,Many,Some,Half,All,More than half,Most,-0.437777737,-0.342222235,1,0,0,QQQ9,,,,,,,,English,2020-07-02_11h00.15.020,Experiment_English,3.2.4,Win32,60,,,1,0,340,205,1,339,ratio31_6_8_2.png,,,,,,,,,,,,
,,,,,,,,,,,,None,Most,Less than half,Half,Some,Many,Few,All,More than half,0.493333354,-0.008888896,1,0,0,QQQ2,,,,,,,,English,2020-07-02_11h00.15.020,Experiment_English,3.2.4,Win32,60,,,1,0,340,176,1,339,ratio21_10_15_3.png,0.415555575,-0.387777791,1,0,0,continue_button_pause,1,0,1,0,1,0
,,,,,,,,,,,,,,,,,,,,,,,,,,,,,,,,,,English,2020-07-02_11h00.15.020,Experiment_English,3.2.4,Win32,60,,,1,0,340,176,1,339,ratio21_10_15_3.png,,,,,,,,,,,,
,,,,,,,,,,,,Less than half,None,More than half,Half,Many,All,Most,Some,Few,-0.103333254,0.301111108,1,0,0,QQQ4,,,,,,,,English,2020-07-02_11h00.15.020,Experiment_English,3.2.4,Win32,60,,,1,0,340,252,1,339,ratio34_6_14_3.png,,,,,,,,,,,,
,,,,,,,,,,,,Some,None,Less than half,Most,Half,More than half,All,Few,Many,-0.368888881,0.002222215,1,0,0,QQQ8,,,,,,,,English,2020-07-02_11h00.15.020,Experiment_English,3.2.4,Win32,60,,,1,0,340,148,1,339,ratio19_1_10_19.png,,,,,,,,,,,,
,,,,,,,,,,,,Half,All,None,More than half,Less than half,Few,Most,Some,Many,0.136666682,-0.275555567,1,0,0,QQQ6,,,,,,,,English,2020-07-02_11h00.15.020,Experiment_English,3.2.4,Win32,60,,,1,0,340,108,1,339,ratio14_2_10_6.png,,,,,,,,,,,,
,,,,,,,,,,,,Half,Few,None,Most,Some,Many,More than half,All,Less than half,-0.393333292,-0.031111119,1,0,0,QQQ8,,,,,,,,English,2020-07-02_11h00.15.020,Experiment_English,3.2.4,Win32,60,,,1,0,340,40,1,339,ratioX0_3_3_5.png,,,,,,,,,,,,
,,,,,,,,,,,,All,None,Half,Most,Few,Many,Some,Less than half,More than half,-0.41666666,-0.262222234,1,0,0,QQQ9,,,,,,,,English,2020-07-02_11h00.15.020,Experiment_English,3.2.4,Win32,60,,,1,0,340,33,1,339,ratio11_7_14_8.png,,,,,,,,,,,,
,,,,,,,,,,,,More than half,Less than half,Some,Many,Half,Most,Few,None,All,0.495555576,0.033333326,1,0,0,QQQ2,,,,,,,,English,2020-07-02_11h00.15.020,Experiment_English,3.2.4,Win32,60,,,1,0,340,6,1,339,ratio12_3_9_1.png,,,,,,,,,,,,
,,,,,,,,,,,,Most,All,Half,More than half,Many,Less than half,None,Few,Some,-0.076666655,0.263333313,1,0,0,QQQ4,,,,,,,,English,2020-07-02_11h00.15.020,Experiment_English,3.2.4,Win32,60,,,1,0,340,165,1,339,ratio21_4_6_10.png,,,,,,,,,,,,
,,,,,,,,,,,,Most,Few,Many,Half,Some,All,None,More than half,Less than half,-0.498888849,-0.031111119,1,0,0,QQQ8,,,,,,,,English,2020-07-02_11h00.15.020,Experiment_English,3.2.4,Win32,60,,,1,0,340,224,1,339,ratio32_3_5_10.png,,,,,,,,,,,,
,,,,,,,,,,,,Half,More than half,None,Most,Few,Some,All,Many,Less than half,0.376666686,0.03666666,1,0,0,QQQ2,,,,,,,,English,2020-07-02_11h00.15.020,Experiment_English,3.2.4,Win32,60,,,1,0,340,228,1,339,ratio32_6_10_7.png,,,,,,,,,,,,
,,,,,,,,,,,,Few,Half,Less than half,None,More than half,Many,All,Most,Some,-0.008888808,-0.29777779,1,0,0,QQQ6,,,,,,,,English,2020-07-02_11h00.15.020,Experiment_English,3.2.4,Win32,60,,,1,0,340,217,1,339,ratio31_15_20_5.png,,,,,,,,,,,,
,,,,,,,,,,,,Few,Less than half,Some,Many,All,Most,None,Half,More than half,-0.458888882,-0.303333345,1,0,0,QQQ9,,,,,,,,English,2020-07-02_11h00.15.020,Experiment_English,3.2.4,Win32,60,,,1,0,340,222,1,339,ratio32_3_5_4.png,,,,,,,,,,,,
,,,,,,,,,,,,Some,More than half,Half,Many,All,None,Less than half,Few,Most,-0.44666666,-0.011111119,1,0,0,QQQ8,,,,,,,,English,2020-07-02_11h00.15.020,Experiment_English,3.2.4,Win32,60,,,1,0,340,121,1,339,ratio15_1_6_4.png,,,,,,,,,,,,
,,,,,,,,,,,,Few,Many,All,Less than half,Some,Half,More than half,None,Most,-0.465555515,-0.220000011,1,0,0,QQQ9,,,,,,,,English,2020-07-02_11h00.15.020,Experiment_English,3.2.4,Win32,60,,,1,0,340,200,1,339,ratio31_3_4_4.png,,,,,,,,,,,,
,,,,,,,,,,,,More than half,Most,None,All,Some,Many,Half,Few,Less than half,0.453333353,0.003333326,1,0,0,QQQ2,,,,,,,,English,2020-07-02_11h00.15.020,Experiment_English,3.2.4,Win32,60,,,1,0,340,293,1,339,ratio43_8_14_7.png,,,,,,,,,,,,
,,,,,,,,,,,,Half,Some,All,Few,Most,Less than half,More than half,None,Many,-0.076666655,-0.331111123,1,0,0,QQQ6,,,,,,,,English,2020-07-02_11h00.15.020,Experiment_English,3.2.4,Win32,60,,,1,0,340,243,1,339,ratio34_3_7_8.png,,,,,,,,,,,,
,,,,,,,,,,,,Some,Half,More than half,Few,Many,All,None,Less than half,Most,-0.415555515,-0.284444456,1,0,0,QQQ9,,,,,,,,English,2020-07-02_11h00.15.020,Experiment_English,3.2.4,Win32,60,,,1,0,340,320,1,339,ratio91_9_10_1.png,,,,,,,,,,,,
,,,,,,,,,,,,Many,None,Few,Some,Less than half,Most,More than half,All,Half,-0.435555549,-0.272222234,1,0,0,QQQ9,,,,,,,,English,2020-07-02_11h00.15.020,Experiment_English,3.2.4,Win32,60,,,1,0,340,264,1,339,ratio41_4_5_6.png,,,,,,,,,,,,
,,,,,,,,,,,,Some,Less than half,Most,Many,All,None,Few,Half,More than half,0.122222237,0.264444441,1,0,0,QQQ4,,,,,,,,English,2020-07-02_11h00.15.020,Experiment_English,3.2.4,Win32,60,,,1,0,340,237,1,339,ratio32_12_20_5.png,,,,,,,,,,,,
,,,,,,,,,,,,All,Most,More than half,Few,Half,Less than half,Many,None,Some,0.078888903,-0.293333345,1,0,0,QQQ6,,,,,,,,English,2020-07-02_11h00.15.020,Experiment_English,3.2.4,Win32,60,,,1,0,340,256,1,339,ratio34_6_14_11.png,,,,,,,,,,,,
,,,,,,,,,,,,Many,Half,More than half,All,Few,Some,None,Most,Less than half,0.015555569,0.255555552,1,0,0,QQQ4,,,,,,,,English,2020-07-02_11h00.15.020,Experiment_English,3.2.4,Win32,60,,,1,0,340,44,1,339,ratioX0_7_7_5.png,,,,,,,,,,,,
,,,,,,,,,,,,Less than half,All,Few,Some,None,Most,Half,More than half,Many,0.375555574,-0.02222223,1,0,0,QQQ2,,,,,,,,English,2020-07-02_11h00.15.020,Experiment_English,3.2.4,Win32,60,,,1,0,340,56,1,339,ratioX0_17_17_10.png,,,,,,,,,,,,
,,,,,,,,,,,,Most,Less than half,None,Many,Some,Half,All,More than half,Few,0.464444465,0.068888882,1,0,0,QQQ2,,,,,,,,English,2020-07-02_11h00.15.020,Experiment_English,3.2.4,Win32,60,,,1,0,340,90,1,339,ratio13_3_12_7.png,,,,,,,,,,,,
,,,,,,,,,,,,Most,Less than half,Some,Few,More than half,Many,None,All,Half,0.46000002,0.005555548,1,0,0,QQQ2,,,,,,,,English,2020-07-02_11h00.15.020,Experiment_English,3.2.4,Win32,60,,,1,0,340,154,1,339,ratio19_2_20_11.png,,,,,,,,,,,,
,,,,,,,,,,,,All,Few,Some,Less than half,Most,None,Many,More than half,Half,0.024444526,0.334444442,1,0,0,QQQ4,,,,,,,,English,2020-07-02_11h00.15.020,Experiment_English,3.2.4,Win32,60,,,1,0,340,14,1,339,ratio12_5_15_4.png,,,,,,,,,,,,
,,,,,,,,,,,,Most,More than half,Some,None,Less than half,Many,Few,Half,All,-0.441111104,0.27999998,1,0,0,QQQ7,,,,,,,,English,2020-07-02_11h00.15.020,Experiment_English,3.2.4,Win32,60,,,1,0,340,129,1,339,ratio15_2_12_9.png,,,,,,,,,,,,
,,,,,,,,,,,,Few,Many,Less than half,None,All,More than half,Half,Most,Some,-0.027777765,-0.318888969,1,0,0,QQQ6,,,,,,,,English,2020-07-02_11h00.15.020,Experiment_English,3.2.4,Win32,60,,,1,0,340,289,1,339,ratio43_4_7_20.png,,,,,,,,,,,,
,,,,,,,,,,,,All,Many,Some,Less than half,Most,Half,None,More than half,Few,-0.481111105,0.298888886,1,0,0,QQQ7,,,,,,,,English,2020-07-02_11h00.15.020,Experiment_English,3.2.4,Win32,60,,,1,0,340,65,1,339,ratio0Y_0_8_4.png,,,,,,,,,,,,
,,,,,,,,,,,,Few,None,Less than half,More than half,Half,Many,All,Some,Most,-0.45666666,0.281111108,1,0,0,QQQ7,,,,,,,,English,2020-07-02_11h00.15.020,Experiment_English,3.2.4,Win32,60,,,1,0,340,50,1,339,ratioX0_12_12_3.png,,,,,,,,,,,,
,,,,,,,,,,,,Less than half,Few,All,None,Some,Many,Most,More than half,Half,-0.453333327,0.004444403,1,0,0,QQQ8,,,,,,,,English,2020-07-02_11h00.15.020,Experiment_English,3.2.4,Win32,60,,,1,0,340,162,1,339,ratio21_2_3_9.png,,,,,,,,,,,,
,,,,,,,,,,,,All,None,More than half,Few,Most,Half,Less than half,Some,Many,0.447777798,-0.251111122,1,0,0,QQQ3,,,,,,,,English,2020-07-02_11h00.15.020,Experiment_English,3.2.4,Win32,60,,,1,0,340,214,1,339,ratio31_12_16_5.png,,,,,,,,,,,,
,,,,,,,,,,,,All,Most,Some,Less than half,Many,More than half,Half,None,Few,-0.389999993,-0.290000012,1,0,0,QQQ9,,,,,,,,English,2020-07-02_11h00.15.020,Experiment_English,3.2.4,Win32,60,,,1,0,340,141,1,339,ratio19_1_10_2.png,,,,,,,,,,,,
,,,,,,,,,,,,Few,Many,All,Some,More than half,Less than half,Half,None,Most,0.488888909,0.326666664,1,0,0,QQQ1,,,,,,,,English,2020-07-02_11h00.15.020,Experiment_English,3.2.4,Win32,60,,,1,0,340,1,1,339,ratio12_1_3_7.png,,,,,,,,,,,,
,,,,,,,,,,,,Some,Many,Most,Less than half,None,More than half,Few,All,Half,0.032222236,0.312222219,1,0,0,QQQ4,,,,,,,,English,2020-07-02_11h00.15.020,Experiment_English,3.2.4,Win32,60,,,1,0,340,15,1,339,ratio12_5_15_5.png,,,,,,,,,,,,
,,,,,,,,,,,,Many,Less than half,None,Some,Half,More than half,All,Most,Few,0.132222237,-0.224444523,1,0,0,QQQ6,,,,,,,,English,2020-07-02_11h00.15.020,Experiment_English,3.2.4,Win32,60,,,1,0,340,277,1,339,ratio41_16_20_8.png,0.40111113,-0.403333347,1,0,0,continue_button_pause,1,0,1,0,1,0
,,,,,,,,,,,,,,,,,,,,,,,,,,,,,,,,,,English,2020-07-02_11h00.15.020,Experiment_English,3.2.4,Win32,60,,,1,0,340,277,1,339,ratio41_16_20_8.png,,,,,,,,,,,,
,,,,,,,,,,,,Less than half,Most,None,Many,Few,Half,Some,More than half,All,-0.455555549,-0.003333341,1,0,0,QQQ8,,,,,,,,English,2020-07-02_11h00.15.020,Experiment_English,3.2.4,Win32,60,,,1,0,340,170,1,339,ratio21_6_9_8.png,,,,,,,,,,,,
,,,,,,,,,,,,Most,None,All,Few,Half,More than half,Less than half,Many,Some,-0.142222143,-0.24111119,1,0,0,QQQ6,,,,,,,,English,2020-07-02_11h00.15.020,Experiment_English,3.2.4,Win32,60,,,1,0,340,215,1,339,ratio31_12_16_8.png,,,,,,,,,,,,
,,,,,,,,,,,,Few,More than half,Half,Many,None,Most,All,Some,Less than half,0.375555574,0.006666659,1,0,0,QQQ2,,,,,,,,English,2020-07-02_11h00.15.020,Experiment_English,3.2.4,Win32,60,,,1,0,340,211,1,339,ratio31_9_12_10.png,,,,,,,,,,,,
,,,,,,,,,,,,None,Less than half,All,Some,Few,More than half,Half,Most,Many,-0.492222216,-0.276666678,1,0,0,QQQ9,,,,,,,,English,2020-07-02_11h00.15.020,Experiment_English,3.2.4,Win32,60,,,1,0,340,305,1,339,ratio51_5_6_14.png,,,,,,,,,,,,
,,,,,,,,,,,,Some,Few,Half,Less than half,Many,Most,More than half,All,None,0.376666686,0.022222215,1,0,0,QQQ2,,,,,,,,English,2020-07-02_11h00.15.020,Experiment_English,3.2.4,Win32,60,,,1,0,340,127,1,339,ratio15_2_12_2.png,,,,,,,,,,,,
,,,,,,,,,,,,None,Half,Most,Few,Some,More than half,All,Many,Less than half,-0.496666661,-0.32777779,1,0,0,QQQ9,,,,,,,,English,2020-07-02_11h00.15.020,Experiment_English,3.2.4,Win32,60,,,1,0,340,116,1,339,ratio14_4_20_3.png,,,,,,,,,,,,
,,,,,,,,,,,,Many,Few,More than half,All,Half,None,Less than half,Most,Some,-0.089999988,-0.047777786,1,0,0,QQQ5,,,,,,,,English,2020-07-02_11h00.15.020,Experiment_English,3.2.4,Win32,60,,,1,0,340,21,1,339,ratio11_2_4_10.png,,,,,,,,,,,,
,,,,,,,,,,,,Most,Many,Some,All,Half,None,More than half,Less than half,Few,-0.424444438,-0.028888931,1,0,0,QQQ8,,,,,,,,English,2020-07-02_11h00.15.020,Experiment_English,3.2.4,Win32,60,,,1,0,340,86,1,339,ratio13_2_8_6.png,,,,,,,,,,,,
,,,,,,,,,,,,Some,None,Many,Most,All,Less than half,More than half,Half,Few,-0.465555515,-0.324444525,1,0,0,QQQ9,,,,,,,,English,2020-07-02_11h00.15.020,Experiment_English,3.2.4,Win32,60,,,1,0,340,123,1,339,ratio15_1_6_12.png,,,,,,,,,,,,
,,,,,,,,,,,,Most,All,Some,Many,Half,Few,Less than half,More than half,None,-0.503333328,0.005555548,1,0,0,QQQ8,,,,,,,,English,2020-07-02_11h00.15.020,Experiment_English,3.2.4,Win32,60,,,1,0,340,34,1,339,ratio11_8_16_8.png,,,,,,,,,,,,
,,,,,,,,,,,,Few,All,Half,Less than half,None,Many,Some,Most,More than half,0.081111126,0.258888885,1,0,0,QQQ4,,,,,,,,English,2020-07-02_11h00.15.020,Experiment_English,3.2.4,Win32,60,,,1,0,340,107,1,339,ratio14_2_10_5.png,,,,,,,,,,,,
,,,,,,,,,,,,Half,None,More than half,Less than half,Many,Few,Some,Most,All,0.387777797,-0.268888968,1,0,0,QQQ3,,,,,,,,English,2020-07-02_11h00.15.020,Experiment_English,3.2.4,Win32,60,,,1,0,340,329,1,339,ratio91_9_10_20.png,,,,,,,,,,,,
,,,,,,,,,,,,Less than half,Some,Many,Most,All,Few,Half,More than half,None,-0.499999994,0.041111104,1,0,0,QQQ8,,,,,,,,English,2020-07-02_11h00.15.020,Experiment_English,3.2.4,Win32,60,,,1,0,340,220,1,339,ratio32_3_5_1.png,,,,,,,,,,,,
,,,,,,,,,,,,Half,Most,More than half,Less than half,None,Many,Some,All,Few,0.014444458,0.028888882,1,0,0,QQQ5,,,,,,,,English,2020-07-02_11h00.15.020,Experiment_English,3.2.4,Win32,60,,,1,0,340,62,1,339,ratio0Y_0_5_4.png,,,,,,,,,,,,
,,,,,,,,,,,,Some,More than half,None,Less than half,Most,Half,All,Many,Few,0.077777792,0.292222219,1,0,0,QQQ4,,,,,,,,English,2020-07-02_11h00.15.020,Experiment_English,3.2.4,Win32,60,,,1,0,340,180,1,339,ratio23_2_5_4.png,,,,,,,,,,,,
,,,,,,,,,,,,Many,Most,None,Few,More than half,Less than half,Some,All,Half,0.01888897,-0.030000008,1,0,0,QQQ5,,,,,,,,English,2020-07-02_11h00.15.020,Experiment_English,3.2.4,Win32,60,,,1,0,340,281,1,339,ratio43_4_7_4.png,,,,,,,,,,,,
,,,,,,,,,,,,Half,Many,Most,More than half,All,Few,None,Some,Less than half,0.003333347,-0.28777779,1,0,0,QQQ6,,,,,,,,English,2020-07-02_11h00.15.020,Experiment_English,3.2.4,Win32,60,,,1,0,340,122,1,339,ratio15_1_6_7.png,,,,,,,,,,,,
,,,,,,,,,,,,Few,Most,All,More than half,None,Half,Less than half,Some,Many,0.42000002,0.016666659,1,0,0,QQQ2,,,,,,,,English,2020-07-02_11h00.15.020,Experiment_English,3.2.4,Win32,60,,,1,0,340,301,1,339,ratio51_5_6_4.png,,,,,,,,,,,,
,,,,,,,,,,,,Many,Some,More than half,All,Less than half,Most,Half,None,Few,0.01666668,-0.282222234,1,0,0,QQQ6,,,,,,,,English,2020-07-02_11h00.15.020,Experiment_English,3.2.4,Win32,60,,,1,0,340,209,1,339,ratio31_9_12_6.png,,,,,,,,,,,,
,,,,,,,,,,,,All,Less than half,Some,None,Half,Most,More than half,Few,Many,0.020000014,-0.275555567,1,0,0,QQQ6,,,,,,,,English,2020-07-02_11h00.15.020,Experiment_English,3.2.4,Win32,60,,,1,0,340,236,1,339,ratio32_12_20_2.png,,,,,,,,,,,,
,,,,,,,,,,,,Many,All,Some,More than half,Few,Half,Less than half,None,Most,-0.016666654,-0.025555563,1,0,0,QQQ5,,,,,,,,English,2020-07-02_11h00.15.020,Experiment_English,3.2.4,Win32,60,,,1,0,340,84,1,339,ratio13_2_8_1.png,,,,,,,,,,,,
,,,,,,,,,,,,Most,More than half,Many,Half,All,Some,None,Few,Less than half,-0.454444404,-0.268888968,1,0,0,QQQ9,,,,,,,,English,2020-07-02_11h00.15.020,Experiment_English,3.2.4,Win32,60,,,1,0,340,255,1,339,ratio34_6_14_10.png,,,,,,,,,,,,
,,,,,,,,,,,,None,Half,Most,Less than half,All,Some,Few,Many,More than half,0.094444459,0.295555553,1,0,0,QQQ4,,,,,,,,English,2020-07-02_11h00.15.020,Experiment_English,3.2.4,Win32,60,,,1,0,340,18,1,339,ratio12_6_18_7.png,,,,,,,,,,,,
,,,,,,,,,,,,Half,Less than half,All,More than half,Few,Some,Most,None,Many,0.050000014,0.221111107,1,0,0,QQQ4,,,,,,,,English,2020-07-02_11h00.15.020,Experiment_English,3.2.4,Win32,60,,,1,0,340,225,1,339,ratio32_6_10_4.png,,,,,,,,,,,,
,,,,,,,,,,,,Few,Many,All,Some,Most,None,More than half,Half,Less than half,-0.383333326,-0.285555635,1,0,0,QQQ9,,,,,,,,English,2020-07-02_11h00.15.020,Experiment_English,3.2.4,Win32,60,,,1,0,340,105,1,339,ratio14_2_10_1.png,,,,,,,,,,,,
,,,,,,,,,,,,Some,Many,None,Less than half,More than half,Few,Most,Half,All,0.090000015,0.325555553,1,0,0,QQQ4,,,,,,,,English,2020-07-02_11h00.15.020,Experiment_English,3.2.4,Win32,60,,,1,0,340,111,1,339,ratio14_3_15_3.png,,,,,,,,,,,,
,,,,,,,,,,,,Less than half,More than half,Half,Few,Most,All,Many,Some,None,0.551111133,-0.001111152,1,0,0,QQQ2,,,,,,,,English,2020-07-02_11h00.15.020,Experiment_English,3.2.4,Win32,60,,,1,0,340,275,1,339,ratio41_16_20_2.png,,,,,,,,,,,,
,,,,,,,,,,,,All,Most,Half,Few,None,Some,More than half,Many,Less than half,0.557777799,0.294444441,1,0,0,QQQ1,,,,,,,,English,2020-07-02_11h00.15.020,Experiment_English,3.2.4,Win32,60,,,1,0,340,49,1,339,ratioX0_11_11_2.png,,,,,,,,,,,,
,,,,,,,,,,,,Less than half,Half,All,More than half,None,Some,Few,Many,Most,-0.507777772,-0.2588889,1,0,0,QQQ9,,,,,,,,English,2020-07-02_11h00.15.020,Experiment_English,3.2.4,Win32,60,,,1,0,340,276,1,339,ratio41_16_20_4.png,,,,,,,,,,,,
,,,,,,,,,,,,Less than half,Many,Half,None,Some,Few,Most,More than half,All,-0.458888882,0.275555552,1,0,0,QQQ7,,,,,,,,English,2020-07-02_11h00.15.020,Experiment_English,3.2.4,Win32,60,,,1,0,340,266,1,339,ratio41_8_10_2.png,,,,,,,,,,,,
,,,,,,,,,,,,Few,Less than half,None,Some,More than half,Half,Most,Many,All,-0.46666666,-0.24111119,1,0,0,QQQ9,,,,,,,,English,2020-07-02_11h00.15.020,Experiment_English,3.2.4,Win32,60,,,1,0,340,51,1,339,ratioX0_12_12_9.png,,,,,,,,,,,,
,,,,,,,,,,,,Most,Less than half,Half,Many,More than half,All,Some,Few,None,-0.449999993,0.002222215,1,0,0,QQQ8,,,,,,,,English,2020-07-02_11h00.15.020,Experiment_English,3.2.4,Win32,60,,,1,0,340,83,1,339,ratio13_1_4_10.png,,,,,,,,,,,,
,,,,,,,,,,,,Most,Few,Less than half,Half,All,More than half,None,Some,Many,0.402222241,0.022222215,1,0,0,QQQ2,,,,,,,,English,2020-07-02_11h00.15.020,Experiment_English,3.2.4,Win32,60,,,1,0,340,153,1,339,ratio19_2_20_8.png,,,,,,,,,,,,
,,,,,,,,,,,,Many,Most,Few,Half,Less than half,More than half,None,All,Some,-0.032222209,0.259999996,1,0,0,QQQ4,,,,,,,,English,2020-07-02_11h00.15.020,Experiment_English,3.2.4,Win32,60,,,1,0,340,28,1,339,ratio11_5_10_9.png,,,,,,,,,,,,
