continue_mouse.x,continue_mouse.y,continue_mouse.leftButton,continue_mouse.midButton,continue_mouse.rightButton,continue_mouse.clicked_name,continue_mouse_2.x,continue_mouse_2.y,continue_mouse_2.leftButton,continue_mouse_2.midButton,continue_mouse_2.rightButton,continue_mouse_2.clicked_name,Q1,Q2,Q3,Q4,Q5,Q6,Q7,Q8,Q9,select_answer.x,select_answer.y,select_answer.leftButton,select_answer.midButton,select_answer.rightButton,select_answer.clicked_name,trial.thisRepN,trial.thisTrialN,trial.thisN,trial.thisIndex,trial.ran,trial.order,trials,Native tongue*,date,expName,psychopyVersion,OS,frameRate,key_resp.keys,key_resp.rt,Actual_Experiment.thisRepN,Actual_Experiment.thisTrialN,Actual_Experiment.thisN,Actual_Experiment.thisIndex,Actual_Experiment.ran,Actual_Experiment.order,Pic,mouse_pause.x,mouse_pause.y,mouse_pause.leftButton,mouse_pause.midButton,mouse_pause.rightButton,mouse_pause.clicked_name,pause.thisRepN,pause.thisTrialN,pause.thisN,pause.thisIndex,pause.ran,pause.order
0.363194444,-0.428472222,1,0,0,continue_button,0.346527778,-0.429861111,1,0,0,continue_button_2,All,Few,More than half,None,Many,Most,Some,Less than half,Half,0.022222222,0.307638889,1,0,0,QQQ4,1,0,16,15,1,15,ratio0Y_0_14_10.png,English,2020-07-02_11h01.10.739,Experiment_English,3.2.4,Win32,60,,,,,,,,,,,,,,,,,,,,,
,,,,,,,,,,,,Few,Many,Less than half,Most,Half,All,More than half,None,Some,0.525,0.322222222,1,0,0,QQQ1,1,0,16,12,1,15,ratio13_3_12_3.png,English,2020-07-02_11h01.10.739,Experiment_English,3.2.4,Win32,60,,,,,,,,,,,,,,,,,,,,,
,,,,,,,,,,,,All,Most,Some,Few,Less than half,More than half,Many,Half,None,-0.040277778,-0.000694444,1,0,0,QQQ5,1,0,16,10,1,15,ratio15_2_12_4.png,English,2020-07-02_11h01.10.739,Experiment_English,3.2.4,Win32,60,,,,,,,,,,,,,,,,,,,,,
,,,,,,,,,,,,Some,None,All,Most,More than half,Half,Few,Many,Less than half,-0.475,-0.061805556,1,0,0,QQQ8,1,0,16,3,1,15,ratio41_8_10_8.png,English,2020-07-02_11h01.10.739,Experiment_English,3.2.4,Win32,60,,,,,,,,,,,,,,,,,,,,,
,,,,,,,,,,,,Most,Half,All,Many,None,More than half,Few,Less than half,Some,0.031944444,-0.313888889,1,0,0,QQQ6,1,0,16,1,1,15,ratio51_5_6_8.png,English,2020-07-02_11h01.10.739,Experiment_English,3.2.4,Win32,60,,,,,,,,,,,,,,,,,,,,,
,,,,,,,,,,,,Few,Some,All,Half,None,Most,Many,Less than half,More than half,0.064583333,0.279166667,1,0,0,QQQ4,,,,,,,,English,2020-07-02_11h01.10.739,Experiment_English,3.2.4,Win32,60,b,46.14299989,1,0,340,259,1,339,ratio34_6_14_19.png,,,,,,,,,,,,
,,,,,,,,,,,,Few,More than half,None,Many,All,Most,Half,Some,Less than half,0.024305556,-0.322222222,1,0,0,QQQ6,,,,,,,,English,2020-07-02_11h01.10.739,Experiment_English,3.2.4,Win32,60,,,1,0,340,333,1,339,ratio91_18_20_6.png,,,,,,,,,,,,
,,,,,,,,,,,,More than half,Few,Some,Half,Most,None,All,Many,Less than half,-0.411111111,-0.266666667,1,0,0,QQQ9,,,,,,,,English,2020-07-02_11h01.10.739,Experiment_English,3.2.4,Win32,60,,,1,0,340,11,1,339,ratio12_4_12_7.png,,,,,,,,,,,,
,,,,,,,,,,,,Many,All,Half,Most,Few,More than half,None,Some,Less than half,-0.459027778,-0.026388889,1,0,0,QQQ8,,,,,,,,English,2020-07-02_11h01.10.739,Experiment_English,3.2.4,Win32,60,,,1,0,340,14,1,339,ratio12_5_15_4.png,,,,,,,,,,,,
,,,,,,,,,,,,Most,Half,More than half,Many,Few,Some,Less than half,All,None,0.05625,0.29375,1,0,0,QQQ4,,,,,,,,English,2020-07-02_11h01.10.739,Experiment_English,3.2.4,Win32,60,,,1,0,340,234,1,339,ratio32_9_15_10.png,,,,,,,,,,,,
,,,,,,,,,,,,More than half,None,Few,Most,Half,All,Some,Less than half,Many,-0.004166667,-0.035416667,1,0,0,QQQ5,,,,,,,,English,2020-07-02_11h01.10.739,Experiment_English,3.2.4,Win32,60,,,1,0,340,167,1,339,ratio21_6_9_2.png,,,,,,,,,,,,
,,,,,,,,,,,,More than half,Half,Few,All,None,Most,Less than half,Some,Many,-0.425694444,0.2125,1,0,0,QQQ7,,,,,,,,English,2020-07-02_11h01.10.739,Experiment_English,3.2.4,Win32,60,,,1,0,340,80,1,339,ratio13_1_4_3.png,,,,,,,,,,,,
,,,,,,,,,,,,More than half,All,None,Less than half,Half,Many,Few,Some,Most,-0.084722222,0.278472222,1,0,0,QQQ4,,,,,,,,English,2020-07-02_11h01.10.739,Experiment_English,3.2.4,Win32,60,,,1,0,340,115,1,339,ratio14_4_20_1.png,,,,,,,,,,,,
,,,,,,,,,,,,More than half,All,Some,Less than half,Most,Few,Many,Half,None,0.020833333,0.286805556,1,0,0,QQQ4,,,,,,,,English,2020-07-02_11h01.10.739,Experiment_English,3.2.4,Win32,60,,,1,0,340,185,1,339,ratio23_4_10_1.png,,,,,,,,,,,,
,,,,,,,,,,,,Less than half,Most,Half,Many,All,Some,More than half,Few,None,0.049305556,0.277777778,1,0,0,QQQ4,,,,,,,,English,2020-07-02_11h01.10.739,Experiment_English,3.2.4,Win32,60,,,1,0,340,230,1,339,ratio32_9_15_1.png,,,,,,,,,,,,
,,,,,,,,,,,,None,Many,All,Some,Most,Half,More than half,Few,Less than half,-0.429861111,0.027777778,1,0,0,QQQ8,,,,,,,,English,2020-07-02_11h01.10.739,Experiment_English,3.2.4,Win32,60,,,1,0,340,158,1,339,ratio19_2_20_17.png,,,,,,,,,,,,
,,,,,,,,,,,,Less than half,Many,More than half,All,Few,Some,Most,None,Half,-0.055555556,-0.000694444,1,0,0,QQQ5,,,,,,,,English,2020-07-02_11h01.10.739,Experiment_English,3.2.4,Win32,60,,,1,0,340,111,1,339,ratio14_3_15_3.png,,,,,,,,,,,,
,,,,,,,,,,,,Few,Most,Half,Less than half,None,More than half,All,Many,Some,-0.433333333,0.00625,1,0,0,QQQ8,,,,,,,,English,2020-07-02_11h01.10.739,Experiment_English,3.2.4,Win32,60,,,1,0,340,336,1,339,ratio91_18_20_12.png,,,,,,,,,,,,
,,,,,,,,,,,,All,Half,Some,Most,Few,More than half,Less than half,None,Many,-0.472916667,-0.034027778,1,0,0,QQQ8,,,,,,,,English,2020-07-02_11h01.10.739,Experiment_English,3.2.4,Win32,60,,,1,0,340,75,1,339,ratio0Y_0_16_10.png,,,,,,,,,,,,
,,,,,,,,,,,,Some,None,Less than half,More than half,Half,All,Many,Few,Most,-0.411111111,0.290972222,1,0,0,QQQ7,,,,,,,,English,2020-07-02_11h01.10.739,Experiment_English,3.2.4,Win32,60,,,1,0,340,273,1,339,ratio41_12_15_8.png,,,,,,,,,,,,
,,,,,,,,,,,,All,Less than half,None,More than half,Most,Few,Some,Many,Half,-0.459027778,-0.029861111,1,0,0,QQQ8,,,,,,,,English,2020-07-02_11h01.10.739,Experiment_English,3.2.4,Win32,60,,,1,0,340,175,1,339,ratio21_10_15_2.png,,,,,,,,,,,,
,,,,,,,,,,,,Many,Some,All,Half,None,Few,Most,More than half,Less than half,-0.442361111,0.302777778,1,0,0,QQQ7,,,,,,,,English,2020-07-02_11h01.10.739,Experiment_English,3.2.4,Win32,60,,,1,0,340,279,1,339,ratio41_16_20_10.png,,,,,,,,,,,,
,,,,,,,,,,,,Few,Half,Most,Less than half,None,Many,More than half,Some,All,0.021527778,0.272222222,1,0,0,QQQ4,,,,,,,,English,2020-07-02_11h01.10.739,Experiment_English,3.2.4,Win32,60,,,1,0,340,252,1,339,ratio34_6_14_3.png,,,,,,,,,,,,
,,,,,,,,,,,,Half,None,Many,Few,Most,More than half,Less than half,Some,All,0.502777778,-0.316666667,1,0,0,QQQ3,,,,,,,,English,2020-07-02_11h01.10.739,Experiment_English,3.2.4,Win32,60,,,1,0,340,325,1,339,ratio91_9_10_8.png,,,,,,,,,,,,
,,,,,,,,,,,,Most,More than half,Some,Half,Few,Many,None,All,Less than half,0.120833333,-0.061111111,1,0,0,QQQ5,,,,,,,,English,2020-07-02_11h01.10.739,Experiment_English,3.2.4,Win32,60,,,1,0,340,240,1,339,ratio34_3_7_4.png,,,,,,,,,,,,
,,,,,,,,,,,,All,Few,Some,None,Half,Less than half,More than half,Most,Many,-0.4375,-0.270833333,1,0,0,QQQ9,,,,,,,,English,2020-07-02_11h01.10.739,Experiment_English,3.2.4,Win32,60,,,1,0,340,265,1,339,ratio41_8_10_1.png,,,,,,,,,,,,
,,,,,,,,,,,,All,None,Most,Half,Some,Many,More than half,Few,Less than half,-0.461111111,0.2625,1,0,0,QQQ7,,,,,,,,English,2020-07-02_11h01.10.739,Experiment_English,3.2.4,Win32,60,,,1,0,340,160,1,339,ratio21_2_3_2.png,,,,,,,,,,,,
,,,,,,,,,,,,Some,Less than half,Many,All,Few,None,More than half,Most,Half,-0.038194444,0.013194444,1,0,0,QQQ5,,,,,,,,English,2020-07-02_11h01.10.739,Experiment_English,3.2.4,Win32,60,,,1,0,340,117,1,339,ratio14_4_20_6.png,,,,,,,,,,,,
,,,,,,,,,,,,Half,Some,Few,Most,Less than half,Many,None,All,More than half,-0.035416667,-0.302777778,1,0,0,QQQ6,,,,,,,,English,2020-07-02_11h01.10.739,Experiment_English,3.2.4,Win32,60,,,1,0,340,165,1,339,ratio21_4_6_10.png,,,,,,,,,,,,
,,,,,,,,,,,,All,Some,Less than half,More than half,Most,Many,Half,None,Few,-0.479861111,-0.303472222,1,0,0,QQQ9,,,,,,,,English,2020-07-02_11h01.10.739,Experiment_English,3.2.4,Win32,60,,,1,0,340,145,1,339,ratio19_1_10_15.png,,,,,,,,,,,,
,,,,,,,,,,,,All,More than half,Some,Most,Many,None,Less than half,Few,Half,0.470833333,-0.027083333,1,0,0,QQQ2,,,,,,,,English,2020-07-02_11h01.10.739,Experiment_English,3.2.4,Win32,60,,,1,0,340,231,1,339,ratio32_9_15_2.png,,,,,,,,,,,,
,,,,,,,,,,,,Half,Many,More than half,Most,None,Less than half,Few,Some,All,-0.459027778,0.320138889,1,0,0,QQQ7,,,,,,,,English,2020-07-02_11h01.10.739,Experiment_English,3.2.4,Win32,60,,,1,0,340,182,1,339,ratio23_2_5_7.png,,,,,,,,,,,,
,,,,,,,,,,,,Less than half,None,More than half,Half,Many,Some,All,Few,Most,-0.074305556,-0.015972222,1,0,0,QQQ5,,,,,,,,English,2020-07-02_11h01.10.739,Experiment_English,3.2.4,Win32,60,,,1,0,340,237,1,339,ratio32_12_20_5.png,,,,,,,,,,,,
,,,,,,,,,,,,Many,Some,All,Less than half,Few,More than half,None,Half,Most,-0.384722222,0.248611111,1,0,0,QQQ7,,,,,,,,English,2020-07-02_11h01.10.739,Experiment_English,3.2.4,Win32,60,,,1,0,340,338,1,339,ratio91_18_20_18.png,,,,,,,,,,,,
,,,,,,,,,,,,None,Half,Most,All,Less than half,Many,More than half,Some,Few,-0.455555556,-0.266666667,1,0,0,QQQ9,,,,,,,,English,2020-07-02_11h01.10.739,Experiment_English,3.2.4,Win32,60,,,1,0,340,121,1,339,ratio15_1_6_4.png,,,,,,,,,,,,
,,,,,,,,,,,,Some,None,Few,Less than half,All,Many,More than half,Half,Most,0.582638889,-0.325694444,1,0,0,QQQ3,,,,,,,,English,2020-07-02_11h01.10.739,Experiment_English,3.2.4,Win32,60,,,1,0,340,127,1,339,ratio15_2_12_2.png,,,,,,,,,,,,
,,,,,,,,,,,,Half,Most,All,Many,Few,More than half,Some,None,Less than half,-0.006944444,0.013194444,1,0,0,QQQ5,,,,,,,,English,2020-07-02_11h01.10.739,Experiment_English,3.2.4,Win32,60,,,1,0,340,8,1,339,ratio12_3_9_4.png,,,,,,,,,,,,
,,,,,,,,,,,,Many,All,Few,None,Half,Less than half,Most,Some,More than half,0.015972222,-0.282638889,1,0,0,QQQ6,,,,,,,,English,2020-07-02_11h01.10.739,Experiment_English,3.2.4,Win32,60,,,1,0,340,99,1,339,ratio13_5_20_4.png,,,,,,,,,,,,
,,,,,,,,,,,,More than half,Few,All,Less than half,Some,Many,Most,None,Half,-0.438888889,-0.297222222,1,0,0,QQQ9,,,,,,,,English,2020-07-02_11h01.10.739,Experiment_English,3.2.4,Win32,60,,,1,0,340,21,1,339,ratio11_2_4_10.png,0.354861111,-0.416666667,1,0,0,continue_button_pause,1,0,1,0,1,0
,,,,,,,,,,,,,,,,,,,,,,,,,,,,,,,,,,English,2020-07-02_11h01.10.739,Experiment_English,3.2.4,Win32,60,,,1,0,340,21,1,339,ratio11_2_4_10.png,,,,,,,,,,,,
,,,,,,,,,,,,Half,All,Many,Most,None,Few,More than half,Some,Less than half,0.49375,0.269444444,1,0,0,QQQ1,,,,,,,,English,2020-07-02_11h01.10.739,Experiment_English,3.2.4,Win32,60,,,1,0,340,164,1,339,ratio21_4_6_6.png,,,,,,,,,,,,
,,,,,,,,,,,,Half,Most,Less than half,None,Many,Some,Few,All,More than half,-0.507638889,0.233333333,1,0,0,QQQ7,,,,,,,,English,2020-07-02_11h01.10.739,Experiment_English,3.2.4,Win32,60,,,1,0,340,94,1,339,ratio13_4_16_8.png,,,,,,,,,,,,
,,,,,,,,,,,,Few,Most,Many,All,More than half,Half,Less than half,Some,None,-0.027777778,-0.004166667,1,0,0,QQQ5,,,,,,,,English,2020-07-02_11h01.10.739,Experiment_English,3.2.4,Win32,60,,,1,0,340,169,1,339,ratio21_6_9_7.png,,,,,,,,,,,,
,,,,,,,,,,,,Few,All,Most,Half,None,Some,Many,More than half,Less than half,0.034027778,-0.320138889,1,0,0,QQQ6,,,,,,,,English,2020-07-02_11h01.10.739,Experiment_English,3.2.4,Win32,60,,,1,0,340,140,1,339,ratio19_1_10_1.png,,,,,,,,,,,,
,,,,,,,,,,,,More than half,All,Many,Most,None,Half,Some,Few,Less than half,-0.454166667,0.311805556,1,0,0,QQQ7,,,,,,,,English,2020-07-02_11h01.10.739,Experiment_English,3.2.4,Win32,60,,,1,0,340,134,1,339,ratio15_3_18_5.png,,,,,,,,,,,,
,,,,,,,,,,,,All,Most,More than half,Half,Less than half,None,Few,Many,Some,0.001388889,0.35,1,0,0,QQQ4,,,,,,,,English,2020-07-02_11h01.10.739,Experiment_English,3.2.4,Win32,60,,,1,0,340,283,1,339,ratio43_4_7_8.png,,,,,,,,,,,,
,,,,,,,,,,,,None,Few,Many,Less than half,More than half,Most,All,Some,Half,0.477083333,0.327777778,1,0,0,QQQ1,,,,,,,,English,2020-07-02_11h01.10.739,Experiment_English,3.2.4,Win32,60,,,1,0,340,66,1,339,ratio0Y_0_9_8.png,,,,,,,,,,,,
,,,,,,,,,,,,Many,Few,Some,All,More than half,Half,Less than half,None,Most,0.079861111,0.305555556,1,0,0,QQQ4,,,,,,,,English,2020-07-02_11h01.10.739,Experiment_English,3.2.4,Win32,60,,,1,0,340,51,1,339,ratioX0_12_12_9.png,,,,,,,,,,,,
,,,,,,,,,,,,All,More than half,None,Many,Less than half,Most,Few,Half,Some,0.470138889,-0.3,1,0,0,QQQ3,,,,,,,,English,2020-07-02_11h01.10.739,Experiment_English,3.2.4,Win32,60,,,1,0,340,67,1,339,ratio0Y_0_10_10.png,,,,,,,,,,,,
,,,,,,,,,,,,Half,None,Most,Some,Less than half,Many,All,More than half,Few,-0.051388889,-0.275694444,1,0,0,QQQ6,,,,,,,,English,2020-07-02_11h01.10.739,Experiment_English,3.2.4,Win32,60,,,1,0,340,205,1,339,ratio31_6_8_2.png,,,,,,,,,,,,
,,,,,,,,,,,,Some,All,None,Most,More than half,Many,Few,Half,Less than half,-0.004166667,-0.04375,1,0,0,QQQ5,,,,,,,,English,2020-07-02_11h01.10.739,Experiment_English,3.2.4,Win32,60,,,1,0,340,297,1,339,ratio43_8_14_13.png,,,,,,,,,,,,
,,,,,,,,,,,,Less than half,None,Few,Some,All,Half,More than half,Many,Most,-0.418055556,-0.008333333,1,0,0,QQQ8,,,,,,,,English,2020-07-02_11h01.10.739,Experiment_English,3.2.4,Win32,60,,,1,0,340,172,1,339,ratio21_8_12_6.png,,,,,,,,,,,,
,,,,,,,,,,,,Half,Many,Most,Some,More than half,All,None,Few,Less than half,0.022222222,-0.027083333,1,0,0,QQQ5,,,,,,,,English,2020-07-02_11h01.10.739,Experiment_English,3.2.4,Win32,60,,,1,0,340,307,1,339,ratio51_10_12_1.png,,,,,,,,,,,,
,,,,,,,,,,,,Half,All,Few,None,Many,More than half,Most,Less than half,Some,0.006944444,0.302777778,1,0,0,QQQ4,,,,,,,,English,2020-07-02_11h01.10.739,Experiment_English,3.2.4,Win32,60,,,1,0,340,72,1,339,ratio0Y_0_13_4.png,,,,,,,,,,,,
,,,,,,,,,,,,Many,Half,Most,Some,All,More than half,None,Less than half,Few,-0.404166667,0.015277778,1,0,0,QQQ8,,,,,,,,English,2020-07-02_11h01.10.739,Experiment_English,3.2.4,Win32,60,,,1,0,340,188,1,339,ratio23_4_10_6.png,,,,,,,,,,,,
,,,,,,,,,,,,None,Less than half,Few,Many,Some,Most,All,Half,More than half,0.484722222,-0.288194444,1,0,0,QQQ3,,,,,,,,English,2020-07-02_11h01.10.739,Experiment_English,3.2.4,Win32,60,,,1,0,340,156,1,339,ratio19_2_20_14.png,,,,,,,,,,,,
,,,,,,,,,,,,More than half,Many,All,Half,Less than half,Some,None,Few,Most,0.486111111,0.250694444,1,0,0,QQQ1,,,,,,,,English,2020-07-02_11h01.10.739,Experiment_English,3.2.4,Win32,60,,,1,0,340,311,1,339,ratio51_10_12_14.png,,,,,,,,,,,,
,,,,,,,,,,,,Many,Less than half,More than half,None,Most,Half,Some,Few,All,0.465972222,0.004166667,1,0,0,QQQ2,,,,,,,,English,2020-07-02_11h01.10.739,Experiment_English,3.2.4,Win32,60,,,1,0,340,187,1,339,ratio23_4_10_5.png,,,,,,,,,,,,
,,,,,,,,,,,,Some,Less than half,Many,Most,Few,Half,More than half,All,None,-0.089583333,-0.036111111,1,0,0,QQQ5,,,,,,,,English,2020-07-02_11h01.10.739,Experiment_English,3.2.4,Win32,60,,,1,0,340,3,1,339,ratio12_2_6_3.png,,,,,,,,,,,,
,,,,,,,,,,,,Some,Few,More than half,Many,None,All,Most,Less than half,Half,-0.380555556,0.254861111,1,0,0,QQQ7,,,,,,,,English,2020-07-02_11h01.10.739,Experiment_English,3.2.4,Win32,60,,,1,0,340,178,1,339,ratio21_12_18_2.png,,,,,,,,,,,,
,,,,,,,,,,,,Most,Half,Many,Less than half,None,More than half,All,Few,Some,-0.438194444,-0.045138889,1,0,0,QQQ8,,,,,,,,English,2020-07-02_11h01.10.739,Experiment_English,3.2.4,Win32,60,,,1,0,340,88,1,339,ratio13_3_12_5.png,,,,,,,,,,,,
,,,,,,,,,,,,Some,Most,Many,None,Half,Less than half,Few,All,More than half,0.498611111,0.317361111,1,0,0,QQQ1,,,,,,,,English,2020-07-02_11h01.10.739,Experiment_English,3.2.4,Win32,60,,,1,0,340,131,1,339,ratio15_2_12_14.png,,,,,,,,,,,,
,,,,,,,,,,,,More than half,Some,Many,Half,All,Most,None,Less than half,Few,0.477777778,-0.276388889,1,0,0,QQQ3,,,,,,,,English,2020-07-02_11h01.10.739,Experiment_English,3.2.4,Win32,60,,,1,0,340,312,1,339,ratio51_10_12_16.png,,,,,,,,,,,,
,,,,,,,,,,,,Less than half,Many,None,Some,Half,All,Most,More than half,Few,0.009722222,-0.302777778,1,0,0,QQQ6,,,,,,,,English,2020-07-02_11h01.10.739,Experiment_English,3.2.4,Win32,60,,,1,0,340,56,1,339,ratioX0_17_17_10.png,,,,,,,,,,,,
,,,,,,,,,,,,Many,Half,Few,All,More than half,None,Some,Most,Less than half,-0.427777778,0.007638889,1,0,0,QQQ8,,,,,,,,English,2020-07-02_11h01.10.739,Experiment_English,3.2.4,Win32,60,,,1,0,340,320,1,339,ratio91_9_10_1.png,,,,,,,,,,,,
,,,,,,,,,,,,All,Many,Some,Half,Most,Few,Less than half,More than half,None,0.029861111,0.369444444,1,0,0,QQQ4,,,,,,,,English,2020-07-02_11h01.10.739,Experiment_English,3.2.4,Win32,60,,,1,0,340,20,1,339,ratio11_2_4_3.png,,,,,,,,,,,,
,,,,,,,,,,,,All,Many,Half,Some,Few,None,Less than half,More than half,Most,-0.415972222,-0.001388889,1,0,0,QQQ8,,,,,,,,English,2020-07-02_11h01.10.739,Experiment_English,3.2.4,Win32,60,,,1,0,340,166,1,339,ratio21_6_9_1.png,,,,,,,,,,,,
,,,,,,,,,,,,Half,All,Some,Less than half,More than half,Most,Many,Few,None,-0.039583333,-0.00625,1,0,0,QQQ5,,,,,,,,English,2020-07-02_11h01.10.739,Experiment_English,3.2.4,Win32,60,,,1,0,340,289,1,339,ratio43_4_7_20.png,,,,,,,,,,,,
,,,,,,,,,,,,Many,Some,All,Less than half,Few,Most,None,Half,More than half,0.508333333,0.265972222,1,0,0,QQQ1,,,,,,,,English,2020-07-02_11h01.10.739,Experiment_English,3.2.4,Win32,60,,,1,0,340,229,1,339,ratio32_6_10_9.png,,,,,,,,,,,,
,,,,,,,,,,,,Some,Half,Most,More than half,Few,None,All,Less than half,Many,0.4875,0.0125,1,0,0,QQQ2,,,,,,,,English,2020-07-02_11h01.10.739,Experiment_English,3.2.4,Win32,60,,,1,0,340,291,1,339,ratio43_8_14_5.png,,,,,,,,,,,,
,,,,,,,,,,,,Some,None,More than half,Many,Few,Half,All,Less than half,Most,0.05,-0.004166667,1,0,0,QQQ5,,,,,,,,English,2020-07-02_11h01.10.739,Experiment_English,3.2.4,Win32,60,,,1,0,340,103,1,339,ratio14_1_5_9.png,,,,,,,,,,,,
,,,,,,,,,,,,None,Many,More than half,Most,Some,Few,Half,All,Less than half,0.44375,-0.025,1,0,0,QQQ2,,,,,,,,English,2020-07-02_11h01.10.739,Experiment_English,3.2.4,Win32,60,,,1,0,340,271,1,339,ratio41_12_15_6.png,,,,,,,,,,,,
,,,,,,,,,,,,None,Most,More than half,Some,Few,Many,All,Less than half,Half,-0.452083333,-0.281944444,1,0,0,QQQ9,,,,,,,,English,2020-07-02_11h01.10.739,Experiment_English,3.2.4,Win32,60,,,1,0,340,245,1,339,ratio34_3_7_10.png,,,,,,,,,,,,
,,,,,,,,,,,,Most,Few,Many,Some,More than half,Less than half,Half,All,None,0.441666667,-0.068055556,1,0,0,QQQ2,,,,,,,,English,2020-07-02_11h01.10.739,Experiment_English,3.2.4,Win32,60,,,1,0,340,123,1,339,ratio15_1_6_12.png,0.365277778,-0.407638889,1,0,0,continue_button_pause,1,0,1,0,1,0
,,,,,,,,,,,,,,,,,,,,,,,,,,,,,,,,,,English,2020-07-02_11h01.10.739,Experiment_English,3.2.4,Win32,60,,,1,0,340,123,1,339,ratio15_1_6_12.png,,,,,,,,,,,,
,,,,,,,,,,,,Half,Many,All,Few,Most,More than half,Some,None,Less than half,0.531944444,0.313888889,1,0,0,QQQ1,,,,,,,,English,2020-07-02_11h01.10.739,Experiment_English,3.2.4,Win32,60,,,1,0,340,286,1,339,ratio43_4_7_15.png,,,,,,,,,,,,
,,,,,,,,,,,,None,Half,More than half,Many,Most,Some,Less than half,All,Few,0.531944444,0.313888889,1,0,0,QQQ1,,,,,,,,English,2020-07-02_11h01.10.739,Experiment_English,3.2.4,Win32,60,,,1,0,340,78,1,339,ratio0Y_0_19_1.png,,,,,,,,,,,,
,,,,,,,,,,,,Half,Less than half,More than half,None,Most,All,Few,Some,Many,-0.484027778,-0.309027778,1,0,0,QQQ9,,,,,,,,English,2020-07-02_11h01.10.739,Experiment_English,3.2.4,Win32,60,,,1,0,340,179,1,339,ratio21_12_18_8.png,,,,,,,,,,,,
,,,,,,,,,,,,Less than half,All,More than half,None,Few,Many,Most,Some,Half,-0.015972222,-0.354166667,1,0,0,QQQ6,,,,,,,,English,2020-07-02_11h01.10.739,Experiment_English,3.2.4,Win32,60,,,1,0,340,204,1,339,ratio31_6_8_1.png,,,,,,,,,,,,
,,,,,,,,,,,,All,Few,None,Some,Most,More than half,Half,Less than half,Many,-0.525,-0.299305556,1,0,0,QQQ9,,,,,,,,English,2020-07-02_11h01.10.739,Experiment_English,3.2.4,Win32,60,,,1,0,340,321,1,339,ratio91_9_10_2.png,,,,,,,,,,,,
,,,,,,,,,,,,Less than half,Some,More than half,All,Many,Few,None,Half,Most,0.013888889,0.254861111,1,0,0,QQQ4,,,,,,,,English,2020-07-02_11h01.10.739,Experiment_English,3.2.4,Win32,60,,,1,0,340,47,1,339,ratioX0_9_9_4.png,,,,,,,,,,,,
,,,,,,,,,,,,All,None,More than half,Half,Some,Many,Few,Less than half,Most,0.015972222,-0.259722222,1,0,0,QQQ6,,,,,,,,English,2020-07-02_11h01.10.739,Experiment_English,3.2.4,Win32,60,,,1,0,340,330,1,339,ratio91_18_20_2.png,,,,,,,,,,,,
,,,,,,,,,,,,More than half,None,Less than half,Few,Many,Some,Most,All,Half,0.011805556,-0.039583333,1,0,0,QQQ5,,,,,,,,English,2020-07-02_11h01.10.739,Experiment_English,3.2.4,Win32,60,,,1,0,340,213,1,339,ratio31_12_16_2.png,,,,,,,,,,,,
,,,,,,,,,,,,Less than half,Many,Few,Some,More than half,Most,All,Half,None,0.463194444,-0.296527778,1,0,0,QQQ3,,,,,,,,English,2020-07-02_11h01.10.739,Experiment_English,3.2.4,Win32,60,,,1,0,340,125,1,339,ratio15_1_6_19.png,,,,,,,,,,,,
,,,,,,,,,,,,None,Most,Few,More than half,Some,Less than half,All,Many,Half,0.003472222,-0.288194444,1,0,0,QQQ6,,,,,,,,English,2020-07-02_11h01.10.739,Experiment_English,3.2.4,Win32,60,,,1,0,340,250,1,339,ratio34_6_14_1.png,,,,,,,,,,,,
,,,,,,,,,,,,All,Less than half,Few,Some,None,Many,Most,Half,More than half,-0.011111111,-0.336805556,1,0,0,QQQ6,,,,,,,,English,2020-07-02_11h01.10.739,Experiment_English,3.2.4,Win32,60,,,1,0,340,266,1,339,ratio41_8_10_2.png,,,,,,,,,,,,
,,,,,,,,,,,,Few,Half,All,Most,Many,Less than half,None,Some,More than half,0.477083333,0.004861111,1,0,0,QQQ2,,,,,,,,English,2020-07-02_11h01.10.739,Experiment_English,3.2.4,Win32,60,,,1,0,340,287,1,339,ratio43_4_7_17.png,,,,,,,,,,,,
,,,,,,,,,,,,More than half,Many,Some,Few,Less than half,None,All,Most,Half,0.08125,-0.311805556,1,0,0,QQQ6,,,,,,,,English,2020-07-02_11h01.10.739,Experiment_English,3.2.4,Win32,60,,,1,0,340,77,1,339,ratio0Y_0_18_3.png,,,,,,,,,,,,
,,,,,,,,,,,,Most,More than half,Few,Some,None,All,Many,Half,Less than half,0.477777778,-0.274305556,1,0,0,QQQ3,,,,,,,,English,2020-07-02_11h01.10.739,Experiment_English,3.2.4,Win32,60,,,1,0,340,1,1,339,ratio12_1_3_7.png,,,,,,,,,,,,
,,,,,,,,,,,,Half,Most,Some,Many,Less than half,None,Few,More than half,All,-0.03125,-0.01875,1,0,0,QQQ5,,,,,,,,English,2020-07-02_11h01.10.739,Experiment_English,3.2.4,Win32,60,,,1,0,340,33,1,339,ratio11_7_14_8.png,,,,,,,,,,,,
,,,,,,,,,,,,All,More than half,Some,Less than half,Half,Most,None,Few,Many,0.434027778,-0.010416667,1,0,0,QQQ2,,,,,,,,English,2020-07-02_11h01.10.739,Experiment_English,3.2.4,Win32,60,,,1,0,340,37,1,339,ratio11_9_18_8.png,,,,,,,,,,,,
,,,,,,,,,,,,More than half,All,Many,Some,None,Half,Most,Less than half,Few,0.554166667,0.288888889,1,0,0,QQQ1,,,,,,,,English,2020-07-02_11h01.10.739,Experiment_English,3.2.4,Win32,60,,,1,0,340,251,1,339,ratio34_6_14_2.png,,,,,,,,,,,,
,,,,,,,,,,,,Most,More than half,All,Less than half,Half,Few,None,Some,Many,-0.496527778,0.00625,1,0,0,QQQ8,,,,,,,,English,2020-07-02_11h01.10.739,Experiment_English,3.2.4,Win32,60,,,1,0,340,0,1,339,ratio12_1_3_3.png,,,,,,,,,,,,
,,,,,,,,,,,,Most,Few,More than half,Many,Some,Half,Less than half,None,All,0.423611111,0.036111111,1,0,0,QQQ2,,,,,,,,English,2020-07-02_11h01.10.739,Experiment_English,3.2.4,Win32,60,,,1,0,340,142,1,339,ratio19_1_10_6.png,,,,,,,,,,,,
,,,,,,,,,,,,Few,All,Some,None,More than half,Most,Half,Less than half,Many,-0.452777778,0.278472222,1,0,0,QQQ7,,,,,,,,English,2020-07-02_11h01.10.739,Experiment_English,3.2.4,Win32,60,,,1,0,340,280,1,339,ratio43_4_7_2.png,,,,,,,,,,,,
,,,,,,,,,,,,Many,More than half,Half,None,Less than half,Few,Some,All,Most,0.002777778,-0.015972222,1,0,0,QQQ5,,,,,,,,English,2020-07-02_11h01.10.739,Experiment_English,3.2.4,Win32,60,,,1,0,340,15,1,339,ratio12_5_15_5.png,,,,,,,,,,,,
,,,,,,,,,,,,Less than half,More than half,Few,Many,None,Half,Most,All,Some,0.445138889,0.009027778,1,0,0,QQQ2,,,,,,,,English,2020-07-02_11h01.10.739,Experiment_English,3.2.4,Win32,60,,,1,0,340,176,1,339,ratio21_10_15_3.png,,,,,,,,,,,,
,,,,,,,,,,,,Few,Half,Most,All,Many,More than half,None,Less than half,Some,0.506944444,0.298611111,1,0,0,QQQ1,,,,,,,,English,2020-07-02_11h01.10.739,Experiment_English,3.2.4,Win32,60,,,1,0,340,2,1,339,ratio12_1_3_10.png,,,,,,,,,,,,
,,,,,,,,,,,,Half,Less than half,Most,All,Many,More than half,None,Some,Few,-0.472222222,-0.283333333,1,0,0,QQQ9,,,,,,,,English,2020-07-02_11h01.10.739,Experiment_English,3.2.4,Win32,60,,,1,0,340,120,1,339,ratio15_1_6_1.png,,,,,,,,,,,,
,,,,,,,,,,,,Less than half,More than half,Some,Few,None,Most,All,Many,Half,0.434027778,0.247916667,1,0,0,QQQ1,,,,,,,,English,2020-07-02_11h01.10.739,Experiment_English,3.2.4,Win32,60,,,1,0,340,191,1,339,ratio23_6_15_7.png,,,,,,,,,,,,
,,,,,,,,,,,,Most,Less than half,Some,Few,None,Half,Many,All,More than half,0.059027778,0.302083333,1,0,0,QQQ4,,,,,,,,English,2020-07-02_11h01.10.739,Experiment_English,3.2.4,Win32,60,,,1,0,340,92,1,339,ratio13_4_16_3.png,,,,,,,,,,,,
,,,,,,,,,,,,All,Less than half,Many,Some,Most,More than half,Few,Half,None,-0.011111111,0.260416667,1,0,0,QQQ4,,,,,,,,English,2020-07-02_11h01.10.739,Experiment_English,3.2.4,Win32,60,,,1,0,340,133,1,339,ratio15_3_18_3.png,,,,,,,,,,,,
,,,,,,,,,,,,Few,Many,Some,Most,All,More than half,None,Less than half,Half,-0.492361111,0.316666667,1,0,0,QQQ7,,,,,,,,English,2020-07-02_11h01.10.739,Experiment_English,3.2.4,Win32,60,,,1,0,340,61,1,339,ratio0Y_0_4_7.png,,,,,,,,,,,,
,,,,,,,,,,,,More than half,All,Less than half,Many,Half,None,Few,Most,Some,-0.406944444,0.273611111,1,0,0,QQQ7,,,,,,,,English,2020-07-02_11h01.10.739,Experiment_English,3.2.4,Win32,60,,,1,0,340,152,1,339,ratio19_2_20_6.png,,,,,,,,,,,,
,,,,,,,,,,,,Some,Half,Most,None,Less than half,All,More than half,Many,Few,-0.033333333,-0.263888889,1,0,0,QQQ6,,,,,,,,English,2020-07-02_11h01.10.739,Experiment_English,3.2.4,Win32,60,,,1,0,340,41,1,339,ratioX0_4_4_9.png,,,,,,,,,,,,
,,,,,,,,,,,,None,Some,More than half,Many,All,Less than half,Half,Few,Most,0.045138889,0.313888889,1,0,0,QQQ4,,,,,,,,English,2020-07-02_11h01.10.739,Experiment_English,3.2.4,Win32,60,,,1,0,340,272,1,339,ratio41_12_15_7.png,,,,,,,,,,,,
,,,,,,,,,,,,Less than half,Many,Few,Half,Most,More than half,All,Some,None,0.488194444,-0.305555556,1,0,0,QQQ3,,,,,,,,English,2020-07-02_11h01.10.739,Experiment_English,3.2.4,Win32,60,,,1,0,340,85,1,339,ratio13_2_8_5.png,,,,,,,,,,,,
,,,,,,,,,,,,Few,Half,More than half,All,Many,Some,Most,Less than half,None,0.440277778,0.246527778,1,0,0,QQQ1,,,,,,,,English,2020-07-02_11h01.10.739,Experiment_English,3.2.4,Win32,60,,,1,0,340,90,1,339,ratio13_3_12_7.png,,,,,,,,,,,,
,,,,,,,,,,,,Half,Many,None,Some,All,Most,Few,More than half,Less than half,0.442361111,-0.002777778,1,0,0,QQQ2,,,,,,,,English,2020-07-02_11h01.10.739,Experiment_English,3.2.4,Win32,60,,,1,0,340,275,1,339,ratio41_16_20_2.png,0.368055556,-0.402083333,1,0,0,continue_button_pause,1,0,1,0,1,0
,,,,,,,,,,,,,,,,,,,,,,,,,,,,,,,,,,English,2020-07-02_11h01.10.739,Experiment_English,3.2.4,Win32,60,,,1,0,340,275,1,339,ratio41_16_20_2.png,,,,,,,,,,,,
,,,,,,,,,,,,Many,Few,Less than half,Most,None,All,Some,Half,More than half,0.458333333,-0.330555556,1,0,0,QQQ3,,,,,,,,English,2020-07-02_11h01.10.739,Experiment_English,3.2.4,Win32,60,,,1,0,340,197,1,339,ratio23_8_20_6.png,,,,,,,,,,,,
,,,,,,,,,,,,More than half,Less than half,Most,Few,Some,Half,Many,None,All,-0.013888889,0.016666667,1,0,0,QQQ5,,,,,,,,English,2020-07-02_11h01.10.739,Experiment_English,3.2.4,Win32,60,,,1,0,340,5,1,339,ratio12_2_6_9.png,,,,,,,,,,,,
,,,,,,,,,,,,None,More than half,All,Less than half,Half,Most,Some,Few,Many,-0.013888889,0.016666667,1,0,0,QQQ5,,,,,,,,English,2020-07-02_11h01.10.739,Experiment_English,3.2.4,Win32,60,,,1,0,340,264,1,339,ratio41_4_5_6.png,,,,,,,,,,,,
,,,,,,,,,,,,None,Some,More than half,Half,Less than half,Few,All,Most,Many,-0.423611111,-0.2875,1,0,0,QQQ9,,,,,,,,English,2020-07-02_11h01.10.739,Experiment_English,3.2.4,Win32,60,,,1,0,340,288,1,339,ratio43_4_7_18.png,,,,,,,,,,,,
,,,,,,,,,,,,Some,Few,All,Half,Many,More than half,Most,None,Less than half,-0.40625,0.284027778,1,0,0,QQQ7,,,,,,,,English,2020-07-02_11h01.10.739,Experiment_English,3.2.4,Win32,60,,,1,0,340,303,1,339,ratio51_5_6_6.png,,,,,,,,,,,,
,,,,,,,,,,,,Few,Less than half,Half,More than half,All,None,Some,Many,Most,0.409027778,0.016666667,1,0,0,QQQ2,,,,,,,,English,2020-07-02_11h01.10.739,Experiment_English,3.2.4,Win32,60,,,1,0,340,257,1,339,ratio34_6_14_12.png,,,,,,,,,,,,
,,,,,,,,,,,,All,Some,Most,None,Half,Few,Less than half,Many,More than half,-0.436805556,0.263888889,1,0,0,QQQ7,,,,,,,,English,2020-07-02_11h01.10.739,Experiment_English,3.2.4,Win32,60,,,1,0,340,255,1,339,ratio34_6_14_10.png,,,,,,,,,,,,
,,,,,,,,,,,,None,More than half,Some,Less than half,All,Many,Half,Few,Most,0.427777778,0.264583333,1,0,0,QQQ1,,,,,,,,English,2020-07-02_11h01.10.739,Experiment_English,3.2.4,Win32,60,,,1,0,340,64,1,339,ratio0Y_0_7_1.png,,,,,,,,,,,,
,,,,,,,,,,,,All,Few,Most,Half,None,Some,More than half,Less than half,Many,0.492361111,-0.305555556,1,0,0,QQQ3,,,,,,,,English,2020-07-02_11h01.10.739,Experiment_English,3.2.4,Win32,60,,,1,0,340,215,1,339,ratio31_12_16_8.png,,,,,,,,,,,,
,,,,,,,,,,,,Most,All,Some,Less than half,More than half,Half,Few,Many,None,-0.427777778,0.249305556,1,0,0,QQQ7,,,,,,,,English,2020-07-02_11h01.10.739,Experiment_English,3.2.4,Win32,60,,,1,0,340,137,1,339,ratio15_3_18_16.png,,,,,,,,,,,,
,,,,,,,,,,,,Less than half,All,Few,None,Some,Half,More than half,Most,Many,0.41875,0.279861111,1,0,0,QQQ1,,,,,,,,English,2020-07-02_11h01.10.739,Experiment_English,3.2.4,Win32,60,,,1,0,340,198,1,339,ratio23_8_20_7.png,,,,,,,,,,,,
,,,,,,,,,,,,All,Most,Many,Half,Some,Few,More than half,Less than half,None,0.46875,-0.28125,1,0,0,QQQ3,,,,,,,,English,2020-07-02_11h01.10.739,Experiment_English,3.2.4,Win32,60,,,1,0,340,323,1,339,ratio91_9_10_5.png,,,,,,,,,,,,
,,,,,,,,,,,,Less than half,All,None,Most,Few,Many,Some,Half,More than half,-0.4375,-0.025694444,1,0,0,QQQ8,,,,,,,,English,2020-07-02_11h01.10.739,Experiment_English,3.2.4,Win32,60,,,1,0,340,34,1,339,ratio11_8_16_8.png,,,,,,,,,,,,
,,,,,,,,,,,,Most,Half,Less than half,All,Many,None,Few,More than half,Some,0.442361111,0.307638889,1,0,0,QQQ1,,,,,,,,English,2020-07-02_11h01.10.739,Experiment_English,3.2.4,Win32,60,,,1,0,340,211,1,339,ratio31_9_12_10.png,,,,,,,,,,,,
,,,,,,,,,,,,More than half,Half,Most,Less than half,Few,All,None,Some,Many,-0.413194444,0.304166667,1,0,0,QQQ7,,,,,,,,English,2020-07-02_11h01.10.739,Experiment_English,3.2.4,Win32,60,,,1,0,340,65,1,339,ratio0Y_0_8_4.png,,,,,,,,,,,,
,,,,,,,,,,,,Half,More than half,Most,Less than half,All,Few,Some,Many,None,0.486111111,0.209027778,1,0,0,QQQ1,,,,,,,,English,2020-07-02_11h01.10.739,Experiment_English,3.2.4,Win32,60,,,1,0,340,32,1,339,ratio11_7_14_5.png,,,,,,,,,,,,
,,,,,,,,,,,,Some,Many,Most,Few,Less than half,All,More than half,None,Half,0.045833333,-0.020138889,1,0,0,QQQ5,,,,,,,,English,2020-07-02_11h01.10.739,Experiment_English,3.2.4,Win32,60,,,1,0,340,195,1,339,ratio23_8_20_1.png,,,,,,,,,,,,
,,,,,,,,,,,,None,Half,All,Less than half,Some,Few,More than half,Most,Many,-0.393055556,-0.011111111,1,0,0,QQQ8,,,,,,,,English,2020-07-02_11h01.10.739,Experiment_English,3.2.4,Win32,60,,,1,0,340,163,1,339,ratio21_4_6_1.png,,,,,,,,,,,,
,,,,,,,,,,,,Most,Many,Some,More than half,Less than half,Half,Few,None,All,-0.061111111,-0.002083333,1,0,0,QQQ5,,,,,,,,English,2020-07-02_11h01.10.739,Experiment_English,3.2.4,Win32,60,,,1,0,340,19,1,339,ratio12_6_18_9.png,,,,,,,,,,,,
,,,,,,,,,,,,Less than half,None,All,More than half,Few,Most,Half,Some,Many,0.023611111,0.286111111,1,0,0,QQQ4,,,,,,,,English,2020-07-02_11h01.10.739,Experiment_English,3.2.4,Win32,60,,,1,0,340,170,1,339,ratio21_6_9_8.png,,,,,,,,,,,,
,,,,,,,,,,,,Few,None,Half,Some,Less than half,All,Many,More than half,Most,0.011805556,-0.2625,1,0,0,QQQ6,,,,,,,,English,2020-07-02_11h01.10.739,Experiment_English,3.2.4,Win32,60,,,1,0,340,43,1,339,ratioX0_6_6_9.png,,,,,,,,,,,,
,,,,,,,,,,,,More than half,Less than half,Half,Few,None,Most,All,Some,Many,-0.004166667,-0.28125,1,0,0,QQQ6,,,,,,,,English,2020-07-02_11h01.10.739,Experiment_English,3.2.4,Win32,60,,,1,0,340,315,1,339,ratio51_15_18_10.png,,,,,,,,,,,,
,,,,,,,,,,,,Half,More than half,Few,Some,All,Less than half,None,Most,Many,-0.359722222,-0.040277778,1,0,0,QQQ8,,,,,,,,English,2020-07-02_11h01.10.739,Experiment_English,3.2.4,Win32,60,,,1,0,340,168,1,339,ratio21_6_9_3.png,,,,,,,,,,,,
,,,,,,,,,,,,None,Few,Some,All,Most,Half,Less than half,More than half,Many,0.011805556,0.00625,1,0,0,QQQ5,,,,,,,,English,2020-07-02_11h01.10.739,Experiment_English,3.2.4,Win32,60,,,1,0,340,208,1,339,ratio31_9_12_3.png,,,,,,,,,,,,
,,,,,,,,,,,,Some,All,Half,Many,More than half,None,Few,Less than half,Most,-0.482638889,0.321527778,1,0,0,QQQ7,,,,,,,,English,2020-07-02_11h01.10.739,Experiment_English,3.2.4,Win32,60,,,1,0,340,100,1,339,ratio14_1_5_3.png,,,,,,,,,,,,
,,,,,,,,,,,,Most,Few,Less than half,Half,None,Many,Some,More than half,All,-0.531944444,-0.035416667,1,0,0,QQQ8,,,,,,,,English,2020-07-02_11h01.10.739,Experiment_English,3.2.4,Win32,60,,,1,0,340,214,1,339,ratio31_12_16_5.png,,,,,,,,,,,,
,,,,,,,,,,,,All,More than half,Some,Many,Few,Half,None,Most,Less than half,0.00625,-0.2875,1,0,0,QQQ6,,,,,,,,English,2020-07-02_11h01.10.739,Experiment_English,3.2.4,Win32,60,,,1,0,340,189,1,339,ratio23_4_10_8.png,,,,,,,,,,,,
,,,,,,,,,,,,Some,All,None,Most,Few,More than half,Many,Half,Less than half,0.050694444,0.3,1,0,0,QQQ4,,,,,,,,English,2020-07-02_11h01.10.739,Experiment_English,3.2.4,Win32,60,,,1,0,340,332,1,339,ratio91_18_20_4.png,,,,,,,,,,,,
,,,,,,,,,,,,Few,Many,Most,Some,Less than half,None,More than half,Half,All,0.04375,-0.070833333,1,0,0,QQQ5,,,,,,,,English,2020-07-02_11h01.10.739,Experiment_English,3.2.4,Win32,60,,,1,0,340,247,1,339,ratio34_3_7_12.png,,,,,,,,,,,,
,,,,,,,,,,,,Many,Less than half,Few,All,None,Some,Most,Half,More than half,0.504166667,-0.292361111,1,0,0,QQQ3,,,,,,,,English,2020-07-02_11h01.10.739,Experiment_English,3.2.4,Win32,60,,,1,0,340,128,1,339,ratio15_2_12_8.png,,,,,,,,,,,,
,,,,,,,,,,,,Some,Most,Half,Few,Many,None,All,Less than half,More than half,0.560416667,0.015277778,1,0,0,QQQ2,,,,,,,,English,2020-07-02_11h01.10.739,Experiment_English,3.2.4,Win32,60,,,1,0,340,203,1,339,ratio31_3_4_9.png,,,,,,,,,,,,
,,,,,,,,,,,,More than half,None,Some,Many,Most,Few,All,Half,Less than half,0.465972222,-0.334722222,1,0,0,QQQ3,,,,,,,,English,2020-07-02_11h01.10.739,Experiment_English,3.2.4,Win32,60,,,1,0,340,146,1,339,ratio19_1_10_17.png,,,,,,,,,,,,
,,,,,,,,,,,,Most,None,Half,More than half,Less than half,Some,All,Few,Many,0.003472222,-0.2875,1,0,0,QQQ6,,,,,,,,English,2020-07-02_11h01.10.739,Experiment_English,3.2.4,Win32,60,,,1,0,340,122,1,339,ratio15_1_6_7.png,,,,,,,,,,,,
,,,,,,,,,,,,Some,Most,More than half,None,Less than half,Half,Many,Few,All,0.492361111,-0.298611111,1,0,0,QQQ3,,,,,,,,English,2020-07-02_11h01.10.739,Experiment_English,3.2.4,Win32,60,,,1,0,340,219,1,339,ratio31_15_20_10.png,0.325,-0.41875,1,0,0,continue_button_pause,1,0,1,0,1,0
,,,,,,,,,,,,,,,,,,,,,,,,,,,,,,,,,,English,2020-07-02_11h01.10.739,Experiment_English,3.2.4,Win32,60,,,1,0,340,219,1,339,ratio31_15_20_10.png,,,,,,,,,,,,
,,,,,,,,,,,,Few,Less than half,Most,Many,More than half,Half,All,None,Some,-0.384027778,-0.305555556,1,0,0,QQQ9,,,,,,,,English,2020-07-02_11h01.10.739,Experiment_English,3.2.4,Win32,60,,,1,0,340,82,1,339,ratio13_1_4_7.png,,,,,,,,,,,,
,,,,,,,,,,,,Most,Few,Some,All,Many,More than half,Half,None,Less than half,0.515277778,0.313194444,1,0,0,QQQ1,,,,,,,,English,2020-07-02_11h01.10.739,Experiment_English,3.2.4,Win32,60,,,1,0,340,162,1,339,ratio21_2_3_9.png,,,,,,,,,,,,
,,,,,,,,,,,,All,None,Many,Few,More than half,Most,Half,Less than half,Some,-0.415277778,-0.00625,1,0,0,QQQ8,,,,,,,,English,2020-07-02_11h01.10.739,Experiment_English,3.2.4,Win32,60,,,1,0,340,253,1,339,ratio34_6_14_5.png,,,,,,,,,,,,
,,,,,,,,,,,,More than half,Most,Some,Few,None,Less than half,Half,Many,All,-0.415277778,-0.00625,1,0,0,QQQ8,,,,,,,,English,2020-07-02_11h01.10.739,Experiment_English,3.2.4,Win32,60,,,1,0,340,46,1,339,ratioX0_9_9_3.png,,,,,,,,,,,,
,,,,,,,,,,,,Many,Most,Few,Half,Some,Less than half,All,More than half,None,-0.015972222,0.341666667,1,0,0,QQQ4,,,,,,,,English,2020-07-02_11h01.10.739,Experiment_English,3.2.4,Win32,60,,,1,0,340,29,1,339,ratio11_6_12_1.png,,,,,,,,,,,,
,,,,,,,,,,,,Few,All,Half,None,More than half,Many,Some,Less than half,Most,0.500694444,0.007638889,1,0,0,QQQ2,,,,,,,,English,2020-07-02_11h01.10.739,Experiment_English,3.2.4,Win32,60,,,1,0,340,55,1,339,ratioX0_16_16_3.png,,,,,,,,,,,,
,,,,,,,,,,,,Some,Few,Less than half,Many,All,Most,Half,More than half,None,0.522222222,0.017361111,1,0,0,QQQ2,,,,,,,,English,2020-07-02_11h01.10.739,Experiment_English,3.2.4,Win32,60,,,1,0,340,139,1,339,ratio15_3_18_20.png,,,,,,,,,,,,
,,,,,,,,,,,,All,Less than half,Some,None,Half,Many,Most,More than half,Few,0.082638889,-0.028472222,1,0,0,QQQ5,,,,,,,,English,2020-07-02_11h01.10.739,Experiment_English,3.2.4,Win32,60,,,1,0,340,38,1,339,ratio11_10_20_5.png,,,,,,,,,,,,
,,,,,,,,,,,,Half,Few,Some,None,Many,Less than half,All,Most,More than half,0.013888889,0.04375,1,0,0,QQQ5,,,,,,,,English,2020-07-02_11h01.10.739,Experiment_English,3.2.4,Win32,60,,,1,0,340,309,1,339,ratio51_10_12_10.png,,,,,,,,,,,,
,,,,,,,,,,,,Few,Half,Less than half,More than half,All,None,Some,Most,Many,-0.017361111,-0.290277778,1,0,0,QQQ6,,,,,,,,English,2020-07-02_11h01.10.739,Experiment_English,3.2.4,Win32,60,,,1,0,340,73,1,339,ratio0Y_0_14_7.png,,,,,,,,,,,,
,,,,,,,,,,,,None,Many,Few,Some,All,Half,Less than half,Most,More than half,-0.448611111,-0.272222222,1,0,0,QQQ9,,,,,,,,English,2020-07-02_11h01.10.739,Experiment_English,3.2.4,Win32,60,,,1,0,340,201,1,339,ratio31_3_4_7.png,,,,,,,,,,,,
,,,,,,,,,,,,Most,Few,Less than half,All,Some,Half,Many,More than half,None,-0.065277778,0.271527778,1,0,0,QQQ4,,,,,,,,English,2020-07-02_11h01.10.739,Experiment_English,3.2.4,Win32,60,,,1,0,340,45,1,339,ratioX0_8_8_3.png,,,,,,,,,,,,
,,,,,,,,,,,,More than half,Few,All,Less than half,None,Some,Many,Half,Most,0.513194444,0.334722222,1,0,0,QQQ1,,,,,,,,English,2020-07-02_11h01.10.739,Experiment_English,3.2.4,Win32,60,,,1,0,340,31,1,339,ratio11_6_12_9.png,,,,,,,,,,,,
,,,,,,,,,,,,None,Few,Many,All,Half,Most,Some,More than half,Less than half,0.425,-0.291666667,1,0,0,QQQ3,,,,,,,,English,2020-07-02_11h01.10.739,Experiment_English,3.2.4,Win32,60,,,1,0,340,216,1,339,ratio31_15_20_3.png,,,,,,,,,,,,
,,,,,,,,,,,,More than half,Some,Half,Many,None,Most,Less than half,Few,All,0.425,-0.291666667,1,0,0,QQQ3,,,,,,,,English,2020-07-02_11h01.10.739,Experiment_English,3.2.4,Win32,60,,,1,0,340,218,1,339,ratio31_15_20_7.png,,,,,,,,,,,,
,,,,,,,,,,,,None,More than half,Less than half,Some,Half,Many,Few,Most,All,0.434722222,0.002083333,1,0,0,QQQ2,,,,,,,,English,2020-07-02_11h01.10.739,Experiment_English,3.2.4,Win32,60,,,1,0,340,89,1,339,ratio13_3_12_6.png,,,,,,,,,,,,
,,,,,,,,,,,,All,More than half,Some,Half,Most,None,Few,Less than half,Many,0.434722222,0.002083333,1,0,0,QQQ2,,,,,,,,English,2020-07-02_11h01.10.739,Experiment_English,3.2.4,Win32,60,,,1,0,340,224,1,339,ratio32_3_5_10.png,,,,,,,,,,,,
,,,,,,,,,,,,Half,More than half,Most,Some,Less than half,Many,All,Few,None,0.042361111,-0.277083333,1,0,0,QQQ6,,,,,,,,English,2020-07-02_11h01.10.739,Experiment_English,3.2.4,Win32,60,,,1,0,340,87,1,339,ratio13_2_8_8.png,,,,,,,,,,,,
,,,,,,,,,,,,Few,All,More than half,Less than half,None,Many,Half,Some,Most,0.047916667,0.266666667,1,0,0,QQQ4,,,,,,,,English,2020-07-02_11h01.10.739,Experiment_English,3.2.4,Win32,60,,,1,0,340,17,1,339,ratio12_6_18_5.png,,,,,,,,,,,,
,,,,,,,,,,,,Many,More than half,Some,None,Few,Most,Less than half,Half,All,0.527083333,-0.355555556,1,0,0,QQQ3,,,,,,,,English,2020-07-02_11h01.10.739,Experiment_English,3.2.4,Win32,60,,,1,0,340,159,1,339,ratio19_2_20_20.png,,,,,,,,,,,,
,,,,,,,,,,,,Few,None,Many,Most,Some,Less than half,More than half,All,Half,0.578472222,-0.020833333,1,0,0,QQQ2,,,,,,,,English,2020-07-02_11h01.10.739,Experiment_English,3.2.4,Win32,60,,,1,0,340,63,1,339,ratio0Y_0_6_8.png,,,,,,,,,,,,
,,,,,,,,,,,,More than half,All,Few,None,Half,Many,Some,Less than half,Most,-0.4,0.295833333,1,0,0,QQQ7,,,,,,,,English,2020-07-02_11h01.10.739,Experiment_English,3.2.4,Win32,60,,,1,0,340,132,1,339,ratio15_2_12_16.png,,,,,,,,,,,,
,,,,,,,,,,,,More than half,All,Few,Some,Less than half,Many,None,Half,Most,-0.009722222,0.316666667,1,0,0,QQQ4,,,,,,,,English,2020-07-02_11h01.10.739,Experiment_English,3.2.4,Win32,60,,,1,0,340,136,1,339,ratio15_3_18_8.png,,,,,,,,,,,,
,,,,,,,,,,,,Half,Some,Few,More than half,None,All,Less than half,Most,Many,0.0125,-0.004166667,1,0,0,QQQ5,,,,,,,,English,2020-07-02_11h01.10.739,Experiment_English,3.2.4,Win32,60,,,1,0,340,74,1,339,ratio0Y_0_15_10.png,,,,,,,,,,,,
,,,,,,,,,,,,Half,More than half,All,Less than half,None,Most,Few,Some,Many,-0.078472222,-0.283333333,1,0,0,QQQ6,,,,,,,,English,2020-07-02_11h01.10.739,Experiment_English,3.2.4,Win32,60,,,1,0,340,306,1,339,ratio51_5_6_18.png,,,,,,,,,,,,
,,,,,,,,,,,,All,Many,Some,Most,Few,Less than half,None,More than half,Half,0.040277778,-0.020833333,1,0,0,QQQ5,,,,,,,,English,2020-07-02_11h01.10.739,Experiment_English,3.2.4,Win32,60,,,1,0,340,83,1,339,ratio13_1_4_10.png,,,,,,,,,,,,
,,,,,,,,,,,,Half,Most,Some,Less than half,Few,Many,More than half,All,None,0.0375,-0.279861111,1,0,0,QQQ6,,,,,,,,English,2020-07-02_11h01.10.739,Experiment_English,3.2.4,Win32,60,,,1,0,340,157,1,339,ratio19_2_20_16.png,,,,,,,,,,,,
,,,,,,,,,,,,More than half,Some,Less than half,Most,Many,None,All,Few,Half,0.025,-0.005555556,1,0,0,QQQ5,,,,,,,,English,2020-07-02_11h01.10.739,Experiment_English,3.2.4,Win32,60,,,1,0,340,337,1,339,ratio91_18_20_16.png,,,,,,,,,,,,
,,,,,,,,,,,,Few,Many,More than half,Less than half,Some,None,Half,Most,All,0.583333333,0.300694444,1,0,0,QQQ1,,,,,,,,English,2020-07-02_11h01.10.739,Experiment_English,3.2.4,Win32,60,,,1,0,340,192,1,339,ratio23_6_15_8.png,,,,,,,,,,,,
,,,,,,,,,,,,Half,Some,Many,All,More than half,None,Less than half,Few,Most,-0.454166667,-0.295138889,1,0,0,QQQ9,,,,,,,,English,2020-07-02_11h01.10.739,Experiment_English,3.2.4,Win32,60,,,1,0,340,331,1,339,ratio91_18_20_3.png,,,,,,,,,,,,
,,,,,,,,,,,,Few,Some,More than half,Less than half,Many,None,All,Most,Half,0.425694444,0.239583333,1,0,0,QQQ1,,,,,,,,English,2020-07-02_11h01.10.739,Experiment_English,3.2.4,Win32,60,,,1,0,340,130,1,339,ratio15_2_12_12.png,,,,,,,,,,,,
,,,,,,,,,,,,Few,Less than half,More than half,All,Half,None,Most,Many,Some,0.446527778,0.265972222,1,0,0,QQQ1,,,,,,,,English,2020-07-02_11h01.10.739,Experiment_English,3.2.4,Win32,60,,,1,0,340,106,1,339,ratio14_2_10_2.png,,,,,,,,,,,,
,,,,,,,,,,,,Many,Few,Most,More than half,None,Some,Less than half,All,Half,-0.440277778,0.311805556,1,0,0,QQQ7,,,,,,,,English,2020-07-02_11h01.10.739,Experiment_English,3.2.4,Win32,60,,,1,0,340,244,1,339,ratio34_3_7_9.png,,,,,,,,,,,,
,,,,,,,,,,,,More than half,Some,Many,Few,Most,Less than half,All,Half,None,-0.056944444,0.334722222,1,0,0,QQQ4,,,,,,,,English,2020-07-02_11h01.10.739,Experiment_English,3.2.4,Win32,60,,,1,0,340,124,1,339,ratio15_1_6_16.png,0.347222222,-0.404861111,1,0,0,continue_button_pause,1,0,1,0,1,0
,,,,,,,,,,,,,,,,,,,,,,,,,,,,,,,,,,English,2020-07-02_11h01.10.739,Experiment_English,3.2.4,Win32,60,,,1,0,340,124,1,339,ratio15_1_6_16.png,,,,,,,,,,,,
,,,,,,,,,,,,Less than half,Most,None,Half,More than half,All,Many,Some,Few,0.536805556,0.321527778,1,0,0,QQQ1,,,,,,,,English,2020-07-02_11h01.10.739,Experiment_English,3.2.4,Win32,60,,,1,0,340,4,1,339,ratio12_2_6_5.png,,,,,,,,,,,,
,,,,,,,,,,,,None,Many,Half,More than half,Few,Some,Most,Less than half,All,-0.4,0.270833333,1,0,0,QQQ7,,,,,,,,English,2020-07-02_11h01.10.739,Experiment_English,3.2.4,Win32,60,,,1,0,340,335,1,339,ratio91_18_20_11.png,,,,,,,,,,,,
,,,,,,,,,,,,Half,All,More than half,Many,Less than half,Most,Some,None,Few,-0.450694444,-0.238194444,1,0,0,QQQ9,,,,,,,,English,2020-07-02_11h01.10.739,Experiment_English,3.2.4,Win32,60,,,1,0,340,138,1,339,ratio15_3_18_17.png,,,,,,,,,,,,
,,,,,,,,,,,,Few,None,Less than half,Many,All,Half,Most,Some,More than half,0.472916667,-0.295138889,1,0,0,QQQ3,,,,,,,,English,2020-07-02_11h01.10.739,Experiment_English,3.2.4,Win32,60,,,1,0,340,249,1,339,ratio34_3_7_20.png,,,,,,,,,,,,
,,,,,,,,,,,,All,Most,Half,More than half,Some,None,Few,Less than half,Many,-0.366666667,0.30625,1,0,0,QQQ7,,,,,,,,English,2020-07-02_11h01.10.739,Experiment_English,3.2.4,Win32,60,,,1,0,340,143,1,339,ratio19_1_10_9.png,,,,,,,,,,,,
,,,,,,,,,,,,Some,None,Many,More than half,Few,Most,Half,All,Less than half,-0.024305556,0.0125,1,0,0,QQQ5,,,,,,,,English,2020-07-02_11h01.10.739,Experiment_English,3.2.4,Win32,60,,,1,0,340,232,1,339,ratio32_9_15_8.png,,,,,,,,,,,,
,,,,,,,,,,,,Few,More than half,Some,Half,Less than half,Most,Many,None,All,-0.004861111,-0.008333333,1,0,0,QQQ5,,,,,,,,English,2020-07-02_11h01.10.739,Experiment_English,3.2.4,Win32,60,,,1,0,340,10,1,339,ratio12_4_12_4.png,,,,,,,,,,,,
,,,,,,,,,,,,More than half,All,Most,Few,None,Some,Half,Less than half,Many,0.425694444,-0.272916667,1,0,0,QQQ3,,,,,,,,English,2020-07-02_11h01.10.739,Experiment_English,3.2.4,Win32,60,,,1,0,340,317,1,339,ratio51_15_18_13.png,,,,,,,,,,,,
,,,,,,,,,,,,None,All,Most,More than half,Many,Few,Less than half,Some,Half,0.492361111,-0.30625,1,0,0,QQQ3,,,,,,,,English,2020-07-02_11h01.10.739,Experiment_English,3.2.4,Win32,60,,,1,0,340,300,1,339,ratio51_5_6_1.png,,,,,,,,,,,,
,,,,,,,,,,,,Some,None,Half,Many,Less than half,Few,Most,All,More than half,-0.517361111,0.336805556,1,0,0,QQQ7,,,,,,,,English,2020-07-02_11h01.10.739,Experiment_English,3.2.4,Win32,60,,,1,0,340,270,1,339,ratio41_12_15_3.png,,,,,,,,,,,,
,,,,,,,,,,,,Less than half,Many,Half,More than half,None,Few,Some,Most,All,-0.485416667,-0.008333333,1,0,0,QQQ8,,,,,,,,English,2020-07-02_11h01.10.739,Experiment_English,3.2.4,Win32,60,,,1,0,340,225,1,339,ratio32_6_10_4.png,,,,,,,,,,,,
,,,,,,,,,,,,Half,Many,Some,All,Most,More than half,Less than half,Few,None,-0.524305556,0.361111111,1,0,0,QQQ7,,,,,,,,English,2020-07-02_11h01.10.739,Experiment_English,3.2.4,Win32,60,,,1,0,340,246,1,339,ratio34_3_7_11.png,,,,,,,,,,,,
,,,,,,,,,,,,More than half,Some,None,All,Half,Most,Many,Few,Less than half,-0.511805556,0.334027778,1,0,0,QQQ7,,,,,,,,English,2020-07-02_11h01.10.739,Experiment_English,3.2.4,Win32,60,,,1,0,340,212,1,339,ratio31_12_16_1.png,,,,,,,,,,,,
,,,,,,,,,,,,None,More than half,All,Many,Most,Few,Less than half,Half,Some,0.46875,0.021527778,1,0,0,QQQ2,,,,,,,,English,2020-07-02_11h01.10.739,Experiment_English,3.2.4,Win32,60,,,1,0,340,290,1,339,ratio43_8_14_3.png,,,,,,,,,,,,
,,,,,,,,,,,,Few,Less than half,All,Half,Some,More than half,Most,Many,None,0.538888889,-0.308333333,1,0,0,QQQ3,,,,,,,,English,2020-07-02_11h01.10.739,Experiment_English,3.2.4,Win32,60,,,1,0,340,40,1,339,ratioX0_3_3_5.png,,,,,,,,,,,,
,,,,,,,,,,,,None,Less than half,Some,Few,Many,Half,All,More than half,Most,0.53125,-0.013888889,1,0,0,QQQ2,,,,,,,,English,2020-07-02_11h01.10.739,Experiment_English,3.2.4,Win32,60,,,1,0,340,181,1,339,ratio23_2_5_6.png,,,,,,,,,,,,
,,,,,,,,,,,,Less than half,More than half,Many,Half,Most,Some,None,All,Few,0.521527778,-0.344444444,1,0,0,QQQ3,,,,,,,,English,2020-07-02_11h01.10.739,Experiment_English,3.2.4,Win32,60,,,1,0,340,268,1,339,ratio41_8_10_5.png,,,,,,,,,,,,
,,,,,,,,,,,,Less than half,None,More than half,Many,Most,Few,All,Half,Some,0.075694444,-0.290972222,1,0,0,QQQ6,,,,,,,,English,2020-07-02_11h01.10.739,Experiment_English,3.2.4,Win32,60,,,1,0,340,84,1,339,ratio13_2_8_1.png,,,,,,,,,,,,
,,,,,,,,,,,,Many,Most,Less than half,None,Some,Few,More than half,Half,All,-0.416666667,-0.043055556,1,0,0,QQQ8,,,,,,,,English,2020-07-02_11h01.10.739,Experiment_English,3.2.4,Win32,60,,,1,0,340,239,1,339,ratio32_12_20_10.png,,,,,,,,,,,,
,,,,,,,,,,,,Some,Many,None,Half,All,More than half,Most,Few,Less than half,-0.155555556,-0.271527778,1,0,0,QQQ6,,,,,,,,English,2020-07-02_11h01.10.739,Experiment_English,3.2.4,Win32,60,,,1,0,340,180,1,339,ratio23_2_5_4.png,,,,,,,,,,,,
,,,,,,,,,,,,Many,All,Some,More than half,Few,Less than half,None,Half,Most,-0.03125,-0.291666667,1,0,0,QQQ6,,,,,,,,English,2020-07-02_11h01.10.739,Experiment_English,3.2.4,Win32,60,,,1,0,340,9,1,339,ratio12_3_9_5.png,,,,,,,,,,,,
,,,,,,,,,,,,More than half,All,Many,Few,None,Most,Half,Less than half,Some,0.055555556,0.304861111,1,0,0,QQQ4,,,,,,,,English,2020-07-02_11h01.10.739,Experiment_English,3.2.4,Win32,60,,,1,0,340,153,1,339,ratio19_2_20_8.png,,,,,,,,,,,,
,,,,,,,,,,,,Most,All,None,More than half,Half,Many,Less than half,Few,Some,0.021527778,0.013194444,1,0,0,QQQ5,,,,,,,,English,2020-07-02_11h01.10.739,Experiment_English,3.2.4,Win32,60,,,1,0,340,194,1,339,ratio23_6_15_10.png,,,,,,,,,,,,
,,,,,,,,,,,,All,None,Most,Less than half,Half,Few,Many,Some,More than half,0.038888889,-0.30625,1,0,0,QQQ6,,,,,,,,English,2020-07-02_11h01.10.739,Experiment_English,3.2.4,Win32,60,,,1,0,340,135,1,339,ratio15_3_18_7.png,,,,,,,,,,,,
,,,,,,,,,,,,Less than half,Many,Half,All,Few,More than half,Some,None,Most,0.038888889,-0.30625,1,0,0,QQQ6,,,,,,,,English,2020-07-02_11h01.10.739,Experiment_English,3.2.4,Win32,60,,,1,0,340,261,1,339,ratio41_4_5_3.png,,,,,,,,,,,,
,,,,,,,,,,,,More than half,Few,All,Half,Less than half,Most,Some,Many,None,0.030555556,0.374305556,1,0,0,QQQ4,,,,,,,,English,2020-07-02_11h01.10.739,Experiment_English,3.2.4,Win32,60,,,1,0,340,23,1,339,ratio11_3_6_9.png,,,,,,,,,,,,
,,,,,,,,,,,,Most,Half,Some,Many,More than half,All,Few,None,Less than half,-0.438888889,0.016666667,1,0,0,QQQ8,,,,,,,,English,2020-07-02_11h01.10.739,Experiment_English,3.2.4,Win32,60,,,1,0,340,79,1,339,ratio0Y_0_20_4.png,,,,,,,,,,,,
,,,,,,,,,,,,Most,Less than half,None,Some,Half,More than half,Many,All,Few,0.00625,-0.316666667,1,0,0,QQQ6,,,,,,,,English,2020-07-02_11h01.10.739,Experiment_English,3.2.4,Win32,60,,,1,0,340,174,1,339,ratio21_10_15_1.png,,,,,,,,,,,,
,,,,,,,,,,,,Half,None,Most,More than half,Few,Less than half,Many,All,Some,0.018055556,-0.082638889,1,0,0,QQQ5,,,,,,,,English,2020-07-02_11h01.10.739,Experiment_English,3.2.4,Win32,60,,,1,0,340,116,1,339,ratio14_4_20_3.png,,,,,,,,,,,,
,,,,,,,,,,,,Most,Some,None,Few,Half,Less than half,Many,More than half,All,-0.371527778,0.275694444,1,0,0,QQQ7,,,,,,,,English,2020-07-02_11h01.10.739,Experiment_English,3.2.4,Win32,60,,,1,0,340,278,1,339,ratio41_16_20_9.png,,,,,,,,,,,,
,,,,,,,,,,,,Few,All,Less than half,Some,Most,Many,More than half,None,Half,0.001388889,-0.296527778,1,0,0,QQQ6,,,,,,,,English,2020-07-02_11h01.10.739,Experiment_English,3.2.4,Win32,60,,,1,0,340,318,1,339,ratio51_15_18_18.png,,,,,,,,,,,,
,,,,,,,,,,,,Few,All,Some,More than half,Many,Most,Less than half,None,Half,-0.451388889,0.30625,1,0,0,QQQ7,,,,,,,,English,2020-07-02_11h01.10.739,Experiment_English,3.2.4,Win32,60,,,1,0,340,184,1,339,ratio23_2_5_10.png,,,,,,,,,,,,
,,,,,,,,,,,,Most,All,Half,Some,Many,None,Less than half,Few,More than half,-0.44375,-0.272916667,1,0,0,QQQ9,,,,,,,,English,2020-07-02_11h01.10.739,Experiment_English,3.2.4,Win32,60,,,1,0,340,207,1,339,ratio31_6_8_9.png,,,,,,,,,,,,
,,,,,,,,,,,,Less than half,None,Half,Some,Many,Most,More than half,All,Few,-0.465972222,-0.063888889,1,0,0,QQQ8,,,,,,,,English,2020-07-02_11h01.10.739,Experiment_English,3.2.4,Win32,60,,,1,0,340,49,1,339,ratioX0_11_11_2.png,0.3125,-0.3875,1,0,0,continue_button_pause,1,0,1,0,1,0
,,,,,,,,,,,,,,,,,,,,,,,,,,,,,,,,,,English,2020-07-02_11h01.10.739,Experiment_English,3.2.4,Win32,60,,,1,0,340,49,1,339,ratioX0_11_11_2.png,,,,,,,,,,,,
,,,,,,,,,,,,None,Few,Less than half,All,Many,More than half,Some,Most,Half,-0.440277778,-0.016666667,1,0,0,QQQ8,,,,,,,,English,2020-07-02_11h01.10.739,Experiment_English,3.2.4,Win32,60,,,1,0,340,305,1,339,ratio51_5_6_14.png,,,,,,,,,,,,
,,,,,,,,,,,,Many,Less than half,Most,Some,Few,Half,None,All,More than half,-0.070833333,-0.011805556,1,0,0,QQQ5,,,,,,,,English,2020-07-02_11h01.10.739,Experiment_English,3.2.4,Win32,60,,,1,0,340,93,1,339,ratio13_4_16_7.png,,,,,,,,,,,,
,,,,,,,,,,,,None,More than half,Less than half,Most,All,Few,Some,Half,Many,-0.520833333,0.276388889,1,0,0,QQQ7,,,,,,,,English,2020-07-02_11h01.10.739,Experiment_English,3.2.4,Win32,60,,,1,0,340,126,1,339,ratio15_2_12_1.png,,,,,,,,,,,,
,,,,,,,,,,,,Most,All,Less than half,Few,None,Some,Half,Many,More than half,0.396527778,0.320833333,1,0,0,QQQ1,,,,,,,,English,2020-07-02_11h01.10.739,Experiment_English,3.2.4,Win32,60,,,1,0,340,200,1,339,ratio31_3_4_4.png,,,,,,,,,,,,
,,,,,,,,,,,,All,More than half,Some,None,Many,Most,Half,Few,Less than half,0.092361111,-0.256944444,1,0,0,QQQ6,,,,,,,,English,2020-07-02_11h01.10.739,Experiment_English,3.2.4,Win32,60,,,1,0,340,324,1,339,ratio91_9_10_7.png,,,,,,,,,,,,
,,,,,,,,,,,,More than half,Most,All,Some,Less than half,Few,Half,None,Many,0.482638889,-0.009722222,1,0,0,QQQ2,,,,,,,,English,2020-07-02_11h01.10.739,Experiment_English,3.2.4,Win32,60,,,1,0,340,267,1,339,ratio41_8_10_4.png,,,,,,,,,,,,
,,,,,,,,,,,,Less than half,Many,Half,Few,Some,Most,None,All,More than half,-0.002083333,0.266666667,1,0,0,QQQ4,,,,,,,,English,2020-07-02_11h01.10.739,Experiment_English,3.2.4,Win32,60,,,1,0,340,81,1,339,ratio13_1_4_5.png,,,,,,,,,,,,
,,,,,,,,,,,,Half,Few,Less than half,None,Many,Some,All,More than half,Most,0.494444444,-0.290972222,1,0,0,QQQ3,,,,,,,,English,2020-07-02_11h01.10.739,Experiment_English,3.2.4,Win32,60,,,1,0,340,6,1,339,ratio12_3_9_1.png,,,,,,,,,,,,
,,,,,,,,,,,,Some,Most,All,More than half,Many,Less than half,Few,None,Half,0.031944444,0.315972222,1,0,0,QQQ4,,,,,,,,English,2020-07-02_11h01.10.739,Experiment_English,3.2.4,Win32,60,,,1,0,340,206,1,339,ratio31_6_8_6.png,,,,,,,,,,,,
,,,,,,,,,,,,Less than half,Few,Most,Some,None,Many,More than half,All,Half,-0.443055556,0.289583333,1,0,0,QQQ7,,,,,,,,English,2020-07-02_11h01.10.739,Experiment_English,3.2.4,Win32,60,,,1,0,340,222,1,339,ratio32_3_5_4.png,,,,,,,,,,,,
,,,,,,,,,,,,Half,More than half,Few,Many,All,Most,Some,None,Less than half,0.006944444,0.279861111,1,0,0,QQQ4,,,,,,,,English,2020-07-02_11h01.10.739,Experiment_English,3.2.4,Win32,60,,,1,0,340,171,1,339,ratio21_8_12_4.png,,,,,,,,,,,,
,,,,,,,,,,,,Many,More than half,None,Half,Some,All,Most,Less than half,Few,-0.454861111,0.303472222,1,0,0,QQQ7,,,,,,,,English,2020-07-02_11h01.10.739,Experiment_English,3.2.4,Win32,60,,,1,0,340,328,1,339,ratio91_9_10_15.png,,,,,,,,,,,,
,,,,,,,,,,,,Many,Most,Half,Few,All,More than half,Less than half,None,Some,0.501388889,0.292361111,1,0,0,QQQ1,,,,,,,,English,2020-07-02_11h01.10.739,Experiment_English,3.2.4,Win32,60,,,1,0,340,177,1,339,ratio21_12_18_1.png,,,,,,,,,,,,
,,,,,,,,,,,,None,Few,Many,More than half,Less than half,Half,All,Some,Most,-0.006944444,-0.295138889,1,0,0,QQQ6,,,,,,,,English,2020-07-02_11h01.10.739,Experiment_English,3.2.4,Win32,60,,,1,0,340,24,1,339,ratio11_4_8_3.png,,,,,,,,,,,,
,,,,,,,,,,,,All,Half,Most,Few,None,Some,Many,Less than half,More than half,0.46875,0.302777778,1,0,0,QQQ1,,,,,,,,English,2020-07-02_11h01.10.739,Experiment_English,3.2.4,Win32,60,,,1,0,340,53,1,339,ratioX0_14_14_8.png,,,,,,,,,,,,
,,,,,,,,,,,,Many,None,Some,Most,More than half,Few,All,Half,Less than half,0.465277778,0.2625,1,0,0,QQQ1,,,,,,,,English,2020-07-02_11h01.10.739,Experiment_English,3.2.4,Win32,60,,,1,0,340,209,1,339,ratio31_9_12_6.png,,,,,,,,,,,,
,,,,,,,,,,,,Some,Less than half,Most,None,Half,More than half,Few,Many,All,0.052777778,-0.017361111,1,0,0,QQQ5,,,,,,,,English,2020-07-02_11h01.10.739,Experiment_English,3.2.4,Win32,60,,,1,0,340,22,1,339,ratio11_3_6_6.png,,,,,,,,,,,,
,,,,,,,,,,,,None,Some,More than half,Many,Half,Less than half,Most,All,Few,0.054861111,0.247222222,1,0,0,QQQ4,,,,,,,,English,2020-07-02_11h01.10.739,Experiment_English,3.2.4,Win32,60,,,1,0,340,310,1,339,ratio51_10_12_12.png,,,,,,,,,,,,
,,,,,,,,,,,,None,Some,All,Few,More than half,Most,Less than half,Many,Half,-0.475694444,0.000694444,1,0,0,QQQ8,,,,,,,,English,2020-07-02_11h01.10.739,Experiment_English,3.2.4,Win32,60,,,1,0,340,308,1,339,ratio51_10_12_9.png,,,,,,,,,,,,
,,,,,,,,,,,,Most,Less than half,Few,None,More than half,All,Some,Many,Half,0.424305556,0.003472222,1,0,0,QQQ2,,,,,,,,English,2020-07-02_11h01.10.739,Experiment_English,3.2.4,Win32,60,,,1,0,340,186,1,339,ratio23_4_10_2.png,,,,,,,,,,,,
,,,,,,,,,,,,Many,Some,All,More than half,Most,Half,Few,Less than half,None,0.526388889,0.322222222,1,0,0,QQQ1,,,,,,,,English,2020-07-02_11h01.10.739,Experiment_English,3.2.4,Win32,60,,,1,0,340,304,1,339,ratio51_5_6_13.png,,,,,,,,,,,,
,,,,,,,,,,,,More than half,Half,All,Few,Many,Some,None,Most,Less than half,-0.399305556,-0.0125,1,0,0,QQQ8,,,,,,,,English,2020-07-02_11h01.10.739,Experiment_English,3.2.4,Win32,60,,,1,0,340,263,1,339,ratio41_4_5_5.png,,,,,,,,,,,,
,,,,,,,,,,,,None,Most,Few,More than half,Many,Some,Less than half,Half,All,-0.04375,-0.023611111,1,0,0,QQQ5,,,,,,,,English,2020-07-02_11h01.10.739,Experiment_English,3.2.4,Win32,60,,,1,0,340,313,1,339,ratio51_15_18_2.png,,,,,,,,,,,,
,,,,,,,,,,,,Most,None,Half,Few,All,Many,Some,More than half,Less than half,-0.015277778,-0.274305556,1,0,0,QQQ6,,,,,,,,English,2020-07-02_11h01.10.739,Experiment_English,3.2.4,Win32,60,,,1,0,340,316,1,339,ratio51_15_18_11.png,,,,,,,,,,,,
,,,,,,,,,,,,Half,All,Few,Some,Most,Less than half,None,Many,More than half,-0.015277778,-0.274305556,1,0,0,QQQ6,,,,,,,,English,2020-07-02_11h01.10.739,Experiment_English,3.2.4,Win32,60,,,1,0,340,7,1,339,ratio12_3_9_2.png,,,,,,,,,,,,
,,,,,,,,,,,,None,Many,Half,Most,Some,Less than half,More than half,Few,All,-0.006944444,-0.303472222,1,0,0,QQQ6,,,,,,,,English,2020-07-02_11h01.10.739,Experiment_English,3.2.4,Win32,60,,,1,0,340,12,1,339,ratio12_4_12_10.png,,,,,,,,,,,,
,,,,,,,,,,,,All,Most,Half,More than half,Few,Many,Less than half,None,Some,0.035416667,-0.036111111,1,0,0,QQQ5,,,,,,,,English,2020-07-02_11h01.10.739,Experiment_English,3.2.4,Win32,60,,,1,0,340,129,1,339,ratio15_2_12_9.png,,,,,,,,,,,,
,,,,,,,,,,,,Some,None,All,Half,Few,Many,Less than half,Most,More than half,0.059027778,0.302777778,1,0,0,QQQ4,,,,,,,,English,2020-07-02_11h01.10.739,Experiment_English,3.2.4,Win32,60,,,1,0,340,258,1,339,ratio34_6_14_14.png,,,,,,,,,,,,
,,,,,,,,,,,,Some,Less than half,Half,More than half,Few,All,Most,Many,None,0.538194444,-0.00625,1,0,0,QQQ2,,,,,,,,English,2020-07-02_11h01.10.739,Experiment_English,3.2.4,Win32,60,,,1,0,340,199,1,339,ratio23_8_20_8.png,,,,,,,,,,,,
,,,,,,,,,,,,Many,Half,Some,None,Few,More than half,Less than half,Most,All,0.06875,0.001388889,1,0,0,QQQ5,,,,,,,,English,2020-07-02_11h01.10.739,Experiment_English,3.2.4,Win32,60,,,1,0,340,86,1,339,ratio13_2_8_6.png,,,,,,,,,,,,
,,,,,,,,,,,,Many,Half,None,More than half,Most,Few,Some,All,Less than half,0.060416667,-0.254166667,1,0,0,QQQ6,,,,,,,,English,2020-07-02_11h01.10.739,Experiment_English,3.2.4,Win32,60,,,1,0,340,102,1,339,ratio14_1_5_8.png,,,,,,,,,,,,
,,,,,,,,,,,,Half,More than half,Less than half,Some,None,All,Many,Most,Few,0.021527778,0.268055556,1,0,0,QQQ4,,,,,,,,English,2020-07-02_11h01.10.739,Experiment_English,3.2.4,Win32,60,,,1,0,340,193,1,339,ratio23_6_15_9.png,,,,,,,,,,,,
,,,,,,,,,,,,Some,More than half,All,Half,Many,Few,Most,Less than half,None,-0.475694444,0.323611111,1,0,0,QQQ7,,,,,,,,English,2020-07-02_11h01.10.739,Experiment_English,3.2.4,Win32,60,,,1,0,340,260,1,339,ratio41_4_5_2.png,,,,,,,,,,,,
,,,,,,,,,,,,Half,Less than half,Few,All,Some,Many,More than half,None,Most,-0.475,0.004166667,1,0,0,QQQ8,,,,,,,,English,2020-07-02_11h01.10.739,Experiment_English,3.2.4,Win32,60,,,1,0,340,69,1,339,ratio0Y_0_11_6.png,0.352777778,-0.372222222,1,0,0,continue_button_pause,1,0,1,0,1,0
,,,,,,,,,,,,,,,,,,,,,,,,,,,,,,,,,,English,2020-07-02_11h01.10.739,Experiment_English,3.2.4,Win32,60,,,1,0,340,69,1,339,ratio0Y_0_11_6.png,,,,,,,,,,,,
,,,,,,,,,,,,Some,Many,None,Most,Less than half,More than half,Half,Few,All,-0.365972222,0.279861111,1,0,0,QQQ7,,,,,,,,English,2020-07-02_11h01.10.739,Experiment_English,3.2.4,Win32,60,,,1,0,340,285,1,339,ratio43_4_7_14.png,,,,,,,,,,,,
,,,,,,,,,,,,Some,More than half,Less than half,Most,None,Few,All,Half,Many,-0.365972222,0.279861111,1,0,0,QQQ7,,,,,,,,English,2020-07-02_11h01.10.739,Experiment_English,3.2.4,Win32,60,,,1,0,340,254,1,339,ratio34_6_14_9.png,,,,,,,,,,,,
,,,,,,,,,,,,Less than half,More than half,None,All,Few,Half,Many,Most,Some,-0.058333333,-0.031944444,1,0,0,QQQ5,,,,,,,,English,2020-07-02_11h01.10.739,Experiment_English,3.2.4,Win32,60,,,1,0,340,141,1,339,ratio19_1_10_2.png,,,,,,,,,,,,
,,,,,,,,,,,,Few,All,Less than half,None,Half,More than half,Most,Many,Some,0.479166667,0.272916667,1,0,0,QQQ1,,,,,,,,English,2020-07-02_11h01.10.739,Experiment_English,3.2.4,Win32,60,,,1,0,340,16,1,339,ratio12_5_15_6.png,,,,,,,,,,,,
,,,,,,,,,,,,Most,All,More than half,Less than half,Half,None,Many,Few,Some,0.536111111,0.344444444,1,0,0,QQQ1,,,,,,,,English,2020-07-02_11h01.10.739,Experiment_English,3.2.4,Win32,60,,,1,0,340,329,1,339,ratio91_9_10_20.png,,,,,,,,,,,,
,,,,,,,,,,,,Less than half,Many,All,None,Some,Few,Half,More than half,Most,-0.451388889,-0.286805556,1,0,0,QQQ9,,,,,,,,English,2020-07-02_11h01.10.739,Experiment_English,3.2.4,Win32,60,,,1,0,340,326,1,339,ratio91_9_10_10.png,,,,,,,,,,,,
,,,,,,,,,,,,None,More than half,Most,Half,Many,All,Less than half,Some,Few,-0.540972222,0.260416667,1,0,0,QQQ7,,,,,,,,English,2020-07-02_11h01.10.739,Experiment_English,3.2.4,Win32,60,,,1,0,340,242,1,339,ratio34_3_7_6.png,,,,,,,,,,,,
,,,,,,,,,,,,All,Few,More than half,Less than half,Many,None,Some,Half,Most,-0.040277778,0.306944444,1,0,0,QQQ4,,,,,,,,English,2020-07-02_11h01.10.739,Experiment_English,3.2.4,Win32,60,,,1,0,340,35,1,339,ratio11_8_16_10.png,,,,,,,,,,,,
,,,,,,,,,,,,Many,Most,More than half,All,Half,None,Few,Less than half,Some,-0.433333333,0.329861111,1,0,0,QQQ7,,,,,,,,English,2020-07-02_11h01.10.739,Experiment_English,3.2.4,Win32,60,,,1,0,340,150,1,339,ratio19_2_20_1.png,,,,,,,,,,,,
,,,,,,,,,,,,Most,None,Some,Half,Few,More than half,Many,All,Less than half,0.457638889,0.309722222,1,0,0,QQQ1,,,,,,,,English,2020-07-02_11h01.10.739,Experiment_English,3.2.4,Win32,60,,,1,0,340,314,1,339,ratio51_15_18_4.png,,,,,,,,,,,,
,,,,,,,,,,,,More than half,Most,Few,Some,Many,None,All,Half,Less than half,0.440277778,0.004861111,1,0,0,QQQ2,,,,,,,,English,2020-07-02_11h01.10.739,Experiment_English,3.2.4,Win32,60,,,1,0,340,277,1,339,ratio41_16_20_8.png,,,,,,,,,,,,
,,,,,,,,,,,,All,Some,Less than half,None,Many,Most,Half,More than half,Few,-0.454166667,-0.347222222,1,0,0,QQQ9,,,,,,,,English,2020-07-02_11h01.10.739,Experiment_English,3.2.4,Win32,60,,,1,0,340,119,1,339,ratio14_4_20_10.png,,,,,,,,,,,,
,,,,,,,,,,,,None,All,Some,Most,Half,Few,Many,More than half,Less than half,0.052777778,-0.005555556,1,0,0,QQQ5,,,,,,,,English,2020-07-02_11h01.10.739,Experiment_English,3.2.4,Win32,60,,,1,0,340,28,1,339,ratio11_5_10_9.png,,,,,,,,,,,,
,,,,,,,,,,,,Less than half,Some,None,All,Many,Most,More than half,Few,Half,0.074305556,0.238194444,1,0,0,QQQ4,,,,,,,,English,2020-07-02_11h01.10.739,Experiment_English,3.2.4,Win32,60,,,1,0,340,42,1,339,ratioX0_5_5_5.png,,,,,,,,,,,,
,,,,,,,,,,,,Half,Less than half,Few,Some,Many,Most,More than half,All,None,-0.439583333,0.333333333,1,0,0,QQQ7,,,,,,,,English,2020-07-02_11h01.10.739,Experiment_English,3.2.4,Win32,60,,,1,0,340,223,1,339,ratio32_3_5_5.png,,,,,,,,,,,,
,,,,,,,,,,,,Most,None,More than half,Half,Some,Few,Many,All,Less than half,0.383333333,-0.291666667,1,0,0,QQQ3,,,,,,,,English,2020-07-02_11h01.10.739,Experiment_English,3.2.4,Win32,60,,,1,0,340,293,1,339,ratio43_8_14_7.png,,,,,,,,,,,,
,,,,,,,,,,,,None,More than half,Most,Many,Some,All,Few,Half,Less than half,0.11875,0.243055556,1,0,0,QQQ4,,,,,,,,English,2020-07-02_11h01.10.739,Experiment_English,3.2.4,Win32,60,,,1,0,340,295,1,339,ratio43_8_14_11.png,,,,,,,,,,,,
,,,,,,,,,,,,Many,Few,More than half,Most,None,Half,Less than half,Some,All,0.427777778,0.290277778,1,0,0,QQQ1,,,,,,,,English,2020-07-02_11h01.10.739,Experiment_English,3.2.4,Win32,60,,,1,0,340,302,1,339,ratio51_5_6_5.png,,,,,,,,,,,,
,,,,,,,,,,,,Some,None,Few,Most,Many,Half,More than half,Less than half,All,0.517361111,-0.290277778,1,0,0,QQQ3,,,,,,,,English,2020-07-02_11h01.10.739,Experiment_English,3.2.4,Win32,60,,,1,0,340,155,1,339,ratio19_2_20_13.png,,,,,,,,,,,,
,,,,,,,,,,,,Some,Few,More than half,Half,None,Most,All,Less than half,Many,0.536111111,0.279861111,1,0,0,QQQ1,,,,,,,,English,2020-07-02_11h01.10.739,Experiment_English,3.2.4,Win32,60,,,1,0,340,147,1,339,ratio19_1_10_18.png,,,,,,,,,,,,
,,,,,,,,,,,,Few,All,None,Less than half,Many,Half,Most,Some,More than half,-0.388888889,-0.265277778,1,0,0,QQQ9,,,,,,,,English,2020-07-02_11h01.10.739,Experiment_English,3.2.4,Win32,60,,,1,0,340,226,1,339,ratio32_6_10_5.png,,,,,,,,,,,,
,,,,,,,,,,,,None,Some,More than half,Few,Most,Many,Half,All,Less than half,-0.488194444,-0.325,1,0,0,QQQ9,,,,,,,,English,2020-07-02_11h01.10.739,Experiment_English,3.2.4,Win32,60,,,1,0,340,91,1,339,ratio13_3_12_10.png,,,,,,,,,,,,
,,,,,,,,,,,,None,Some,Few,Less than half,More than half,Half,All,Most,Many,0.022916667,-0.038888889,1,0,0,QQQ5,,,,,,,,English,2020-07-02_11h01.10.739,Experiment_English,3.2.4,Win32,60,,,1,0,340,227,1,339,ratio32_6_10_6.png,,,,,,,,,,,,
,,,,,,,,,,,,Less than half,All,Most,Few,Many,Half,None,More than half,Some,0.022916667,-0.038888889,1,0,0,QQQ5,,,,,,,,English,2020-07-02_11h01.10.739,Experiment_English,3.2.4,Win32,60,,,1,0,340,269,1,339,ratio41_8_10_6.png,,,,,,,,,,,,
,,,,,,,,,,,,Many,More than half,Half,None,Some,Few,Less than half,All,Most,-0.002083333,-0.279861111,1,0,0,QQQ6,,,,,,,,English,2020-07-02_11h01.10.739,Experiment_English,3.2.4,Win32,60,,,1,0,340,109,1,339,ratio14_2_10_9.png,,,,,,,,,,,,
,,,,,,,,,,,,Half,Few,Most,Many,None,All,Some,More than half,Less than half,0.432638889,-0.378472222,1,0,0,QQQ3,,,,,,,,English,2020-07-02_11h01.10.739,Experiment_English,3.2.4,Win32,60,,,1,0,340,202,1,339,ratio31_3_4_8.png,,,,,,,,,,,,
,,,,,,,,,,,,Few,Half,More than half,None,All,Less than half,Some,Most,Many,0.0375,-0.304166667,1,0,0,QQQ6,,,,,,,,English,2020-07-02_11h01.10.739,Experiment_English,3.2.4,Win32,60,,,1,0,340,30,1,339,ratio11_6_12_6.png,,,,,,,,,,,,
,,,,,,,,,,,,Some,None,Half,Many,Less than half,More than half,Few,All,Most,-0.460416667,0.311111111,1,0,0,QQQ7,,,,,,,,English,2020-07-02_11h01.10.739,Experiment_English,3.2.4,Win32,60,,,1,0,340,144,1,339,ratio19_1_10_11.png,,,,,,,,,,,,
,,,,,,,,,,,,Half,Less than half,Some,None,More than half,Many,All,Most,Few,-0.10625,0.302083333,1,0,0,QQQ4,,,,,,,,English,2020-07-02_11h01.10.739,Experiment_English,3.2.4,Win32,60,,,1,0,340,71,1,339,ratio0Y_0_12_10.png,,,,,,,,,,,,
,,,,,,,,,,,,Less than half,None,Few,Most,Many,All,Half,Some,More than half,-0.455555556,0.021527778,1,0,0,QQQ8,,,,,,,,English,2020-07-02_11h01.10.739,Experiment_English,3.2.4,Win32,60,,,1,0,340,96,1,339,ratio13_5_20_1.png,,,,,,,,,,,,
,,,,,,,,,,,,Half,All,Most,More than half,Many,Less than half,Some,Few,None,0.015972222,0.042361111,1,0,0,QQQ5,,,,,,,,English,2020-07-02_11h01.10.739,Experiment_English,3.2.4,Win32,60,,,1,0,340,95,1,339,ratio13_4_16_10.png,,,,,,,,,,,,
,,,,,,,,,,,,Most,Some,All,Few,More than half,Less than half,None,Many,Half,0.047222222,-0.26875,1,0,0,QQQ6,,,,,,,,English,2020-07-02_11h01.10.739,Experiment_English,3.2.4,Win32,60,,,1,0,340,296,1,339,ratio43_8_14_12.png,,,,,,,,,,,,
,,,,,,,,,,,,All,Few,Many,Half,Some,Less than half,Most,More than half,None,-0.420833333,-0.288888889,1,0,0,QQQ9,,,,,,,,English,2020-07-02_11h01.10.739,Experiment_English,3.2.4,Win32,60,,,1,0,340,70,1,339,ratio0Y_0_12_5.png,,,,,,,,,,,,
,,,,,,,,,,,,More than half,Less than half,Half,Few,All,Many,Most,Some,None,-0.086111111,-0.013888889,1,0,0,QQQ5,,,,,,,,English,2020-07-02_11h01.10.739,Experiment_English,3.2.4,Win32,60,,,1,0,340,52,1,339,ratioX0_13_13_10.png,0.302083333,-0.405555556,1,0,0,continue_button_pause,1,0,1,0,1,0
,,,,,,,,,,,,,,,,,,,,,,,,,,,,,,,,,,English,2020-07-02_11h01.10.739,Experiment_English,3.2.4,Win32,60,,,1,0,340,52,1,339,ratioX0_13_13_10.png,,,,,,,,,,,,
,,,,,,,,,,,,Many,More than half,Few,All,Half,Most,Some,None,Less than half,-0.413194444,0.286111111,1,0,0,QQQ7,,,,,,,,English,2020-07-02_11h01.10.739,Experiment_English,3.2.4,Win32,60,,,1,0,340,112,1,339,ratio14_3_15_4.png,,,,,,,,,,,,
,,,,,,,,,,,,Some,Most,Half,None,Many,Few,More than half,Less than half,All,0.007638889,-0.010416667,1,0,0,QQQ5,,,,,,,,English,2020-07-02_11h01.10.739,Experiment_English,3.2.4,Win32,60,,,1,0,340,39,1,339,ratio11_10_20_6.png,,,,,,,,,,,,
,,,,,,,,,,,,Few,None,Most,Half,Many,All,Some,More than half,Less than half,0.476388889,0.278472222,1,0,0,QQQ1,,,,,,,,English,2020-07-02_11h01.10.739,Experiment_English,3.2.4,Win32,60,,,1,0,340,221,1,339,ratio32_3_5_3.png,,,,,,,,,,,,
,,,,,,,,,,,,Many,More than half,Some,None,Most,All,Less than half,Half,Few,0.063888889,-0.295138889,1,0,0,QQQ6,,,,,,,,English,2020-07-02_11h01.10.739,Experiment_English,3.2.4,Win32,60,,,1,0,340,57,1,339,ratioX0_18_18_1.png,,,,,,,,,,,,
,,,,,,,,,,,,All,Some,None,Few,Half,Most,Many,Less than half,More than half,-0.379166667,-0.005555556,1,0,0,QQQ8,,,,,,,,English,2020-07-02_11h01.10.739,Experiment_English,3.2.4,Win32,60,,,1,0,340,25,1,339,ratio11_4_8_10.png,,,,,,,,,,,,
,,,,,,,,,,,,Most,Some,Half,All,Less than half,Many,Few,None,More than half,-0.421527778,0.306944444,1,0,0,QQQ7,,,,,,,,English,2020-07-02_11h01.10.739,Experiment_English,3.2.4,Win32,60,,,1,0,340,183,1,339,ratio23_2_5_9.png,,,,,,,,,,,,
,,,,,,,,,,,,Some,Less than half,Most,All,Few,Many,Half,None,More than half,-0.436805556,-0.270833333,1,0,0,QQQ9,,,,,,,,English,2020-07-02_11h01.10.739,Experiment_English,3.2.4,Win32,60,,,1,0,340,161,1,339,ratio21_2_3_8.png,,,,,,,,,,,,
,,,,,,,,,,,,Some,Many,More than half,None,Most,Less than half,Few,Half,All,0.035416667,0.327083333,1,0,0,QQQ4,,,,,,,,English,2020-07-02_11h01.10.739,Experiment_English,3.2.4,Win32,60,,,1,0,340,76,1,339,ratio0Y_0_17_10.png,,,,,,,,,,,,
,,,,,,,,,,,,None,Most,Many,Few,Half,All,Some,More than half,Less than half,0.007638889,-0.002777778,1,0,0,QQQ5,,,,,,,,English,2020-07-02_11h01.10.739,Experiment_English,3.2.4,Win32,60,,,1,0,340,190,1,339,ratio23_6_15_3.png,,,,,,,,,,,,
,,,,,,,,,,,,Most,Half,All,Many,More than half,Few,None,Less than half,Some,0.477083333,-0.286111111,1,0,0,QQQ3,,,,,,,,English,2020-07-02_11h01.10.739,Experiment_English,3.2.4,Win32,60,,,1,0,340,48,1,339,ratioX0_10_10_1.png,,,,,,,,,,,,
,,,,,,,,,,,,Most,Less than half,More than half,Half,Some,All,Few,None,Many,0.477777778,-0.286111111,1,0,0,QQQ3,,,,,,,,English,2020-07-02_11h01.10.739,Experiment_English,3.2.4,Win32,60,,,1,0,340,294,1,339,ratio43_8_14_9.png,,,,,,,,,,,,
,,,,,,,,,,,,All,None,Few,Some,Most,More than half,Less than half,Many,Half,0.05625,0.321527778,1,0,0,QQQ4,,,,,,,,English,2020-07-02_11h01.10.739,Experiment_English,3.2.4,Win32,60,,,1,0,340,18,1,339,ratio12_6_18_7.png,,,,,,,,,,,,
,,,,,,,,,,,,Less than half,All,Half,None,Some,Most,More than half,Many,Few,-0.420138889,-0.227083333,1,0,0,QQQ9,,,,,,,,English,2020-07-02_11h01.10.739,Experiment_English,3.2.4,Win32,60,,,1,0,340,108,1,339,ratio14_2_10_6.png,,,,,,,,,,,,
,,,,,,,,,,,,All,Less than half,Few,Many,Some,None,Most,Half,More than half,-0.500694444,0.284027778,1,0,0,QQQ7,,,,,,,,English,2020-07-02_11h01.10.739,Experiment_English,3.2.4,Win32,60,,,1,0,340,334,1,339,ratio91_18_20_9.png,,,,,,,,,,,,
,,,,,,,,,,,,Few,Many,Some,Half,More than half,Most,All,Less than half,None,0.465972222,0.307638889,1,0,0,QQQ1,,,,,,,,English,2020-07-02_11h01.10.739,Experiment_English,3.2.4,Win32,60,,,1,0,340,243,1,339,ratio34_3_7_8.png,,,,,,,,,,,,
,,,,,,,,,,,,Half,All,Less than half,None,Few,Many,More than half,Some,Most,0.022916667,-0.022916667,1,0,0,QQQ5,,,,,,,,English,2020-07-02_11h01.10.739,Experiment_English,3.2.4,Win32,60,,,1,0,340,110,1,339,ratio14_3_15_2.png,,,,,,,,,,,,
,,,,,,,,,,,,None,Few,More than half,Half,Some,All,Many,Most,Less than half,-0.385416667,-0.288888889,1,0,0,QQQ9,,,,,,,,English,2020-07-02_11h01.10.739,Experiment_English,3.2.4,Win32,60,,,1,0,340,241,1,339,ratio34_3_7_5.png,,,,,,,,,,,,
,,,,,,,,,,,,More than half,None,Less than half,Most,Half,Few,Many,All,Some,0.561805556,0.30625,1,0,0,QQQ1,,,,,,,,English,2020-07-02_11h01.10.739,Experiment_English,3.2.4,Win32,60,,,1,0,340,210,1,339,ratio31_9_12_9.png,,,,,,,,,,,,
,,,,,,,,,,,,Few,Some,More than half,Less than half,All,Half,None,Most,Many,0.565277778,0.307638889,1,0,0,QQQ1,,,,,,,,English,2020-07-02_11h01.10.739,Experiment_English,3.2.4,Win32,60,,,1,0,340,154,1,339,ratio19_2_20_11.png,,,,,,,,,,,,
,,,,,,,,,,,,Most,Half,Many,Few,None,All,Some,More than half,Less than half,0.045833333,-0.014583333,1,0,0,QQQ5,,,,,,,,English,2020-07-02_11h01.10.739,Experiment_English,3.2.4,Win32,60,,,1,0,340,60,1,339,ratio0Y_0_3_5.png,,,,,,,,,,,,
,,,,,,,,,,,,Some,Most,Few,Many,Less than half,None,Half,More than half,All,0.525694444,0.030555556,1,0,0,QQQ2,,,,,,,,English,2020-07-02_11h01.10.739,Experiment_English,3.2.4,Win32,60,,,1,0,340,274,1,339,ratio41_12_15_9.png,,,,,,,,,,,,
,,,,,,,,,,,,Some,Most,Half,More than half,Less than half,All,None,Many,Few,0.044444444,0.288888889,1,0,0,QQQ4,,,,,,,,English,2020-07-02_11h01.10.739,Experiment_English,3.2.4,Win32,60,,,1,0,340,220,1,339,ratio32_3_5_1.png,,,,,,,,,,,,
,,,,,,,,,,,,Many,Most,More than half,Less than half,All,Few,Some,None,Half,0.522916667,0.002083333,1,0,0,QQQ2,,,,,,,,English,2020-07-02_11h01.10.739,Experiment_English,3.2.4,Win32,60,,,1,0,340,173,1,339,ratio21_8_12_9.png,,,,,,,,,,,,
,,,,,,,,,,,,More than half,Half,All,None,Most,Less than half,Few,Some,Many,0.017361111,0.335416667,1,0,0,QQQ4,,,,,,,,English,2020-07-02_11h01.10.739,Experiment_English,3.2.4,Win32,60,,,1,0,340,68,1,339,ratio0Y_0_11_3.png,,,,,,,,,,,,
,,,,,,,,,,,,Many,Most,More than half,All,None,Half,Less than half,Few,Some,0.545833333,-0.316666667,1,0,0,QQQ3,,,,,,,,English,2020-07-02_11h01.10.739,Experiment_English,3.2.4,Win32,60,,,1,0,340,228,1,339,ratio32_6_10_7.png,,,,,,,,,,,,
,,,,,,,,,,,,Less than half,Many,Some,More than half,Half,Most,None,All,Few,0.554861111,-0.013194444,1,0,0,QQQ2,,,,,,,,English,2020-07-02_11h01.10.739,Experiment_English,3.2.4,Win32,60,,,1,0,340,301,1,339,ratio51_5_6_4.png,,,,,,,,,,,,
,,,,,,,,,,,,Few,Half,Some,More than half,Less than half,None,Most,Many,All,0.565972222,0.264583333,1,0,0,QQQ1,,,,,,,,English,2020-07-02_11h01.10.739,Experiment_English,3.2.4,Win32,60,,,1,0,340,113,1,339,ratio14_3_15_8.png,,,,,,,,,,,,
,,,,,,,,,,,,Less than half,Half,All,None,Most,Many,Few,Some,More than half,0.03125,-0.020138889,1,0,0,QQQ5,,,,,,,,English,2020-07-02_11h01.10.739,Experiment_English,3.2.4,Win32,60,,,1,0,340,217,1,339,ratio31_15_20_5.png,,,,,,,,,,,,
,,,,,,,,,,,,Most,Half,Less than half,Many,None,All,Some,More than half,Few,0.463888889,0.288888889,1,0,0,QQQ1,,,,,,,,English,2020-07-02_11h01.10.739,Experiment_English,3.2.4,Win32,60,,,1,0,340,233,1,339,ratio32_9_15_9.png,,,,,,,,,,,,
,,,,,,,,,,,,Less than half,More than half,None,Half,Many,Few,Some,All,Most,0.506944444,-0.01875,1,0,0,QQQ2,,,,,,,,English,2020-07-02_11h01.10.739,Experiment_English,3.2.4,Win32,60,,,1,0,340,248,1,339,ratio34_3_7_19.png,,,,,,,,,,,,
,,,,,,,,,,,,Most,Less than half,More than half,Half,None,Some,All,Few,Many,0.049305556,0.04375,1,0,0,QQQ5,,,,,,,,English,2020-07-02_11h01.10.739,Experiment_English,3.2.4,Win32,60,,,1,0,340,26,1,339,ratio11_5_10_4.png,,,,,,,,,,,,
,,,,,,,,,,,,Less than half,All,None,Most,Some,Many,Half,Few,More than half,0.077777778,-0.272916667,1,0,0,QQQ6,,,,,,,,English,2020-07-02_11h01.10.739,Experiment_English,3.2.4,Win32,60,,,1,0,340,276,1,339,ratio41_16_20_4.png,,,,,,,,,,,,
,,,,,,,,,,,,Many,Few,Half,Some,All,Most,More than half,Less than half,None,0.005555556,-0.007638889,1,0,0,QQQ5,,,,,,,,English,2020-07-02_11h01.10.739,Experiment_English,3.2.4,Win32,60,,,1,0,340,59,1,339,ratioX0_20_20_9.png,,,,,,,,,,,,
,,,,,,,,,,,,Most,More than half,None,Many,Less than half,Some,All,Half,Few,0.005555556,-0.007638889,1,0,0,QQQ5,,,,,,,,English,2020-07-02_11h01.10.739,Experiment_English,3.2.4,Win32,60,,,1,0,340,13,1,339,ratio12_5_15_3.png,0.345138889,-0.400694444,1,0,0,continue_button_pause,1,0,1,0,1,0
,,,,,,,,,,,,,,,,,,,,,,,,,,,,,,,,,,English,2020-07-02_11h01.10.739,Experiment_English,3.2.4,Win32,60,,,1,0,340,13,1,339,ratio12_5_15_3.png,,,,,,,,,,,,
,,,,,,,,,,,,Most,All,Few,Less than half,Some,None,More than half,Half,Many,-0.469444444,0.3,1,0,0,QQQ7,,,,,,,,English,2020-07-02_11h01.10.739,Experiment_English,3.2.4,Win32,60,,,1,0,340,107,1,339,ratio14_2_10_5.png,,,,,,,,,,,,
,,,,,,,,,,,,All,Some,Many,Few,Less than half,More than half,None,Half,Most,0.007638889,0.340277778,1,0,0,QQQ4,,,,,,,,English,2020-07-02_11h01.10.739,Experiment_English,3.2.4,Win32,60,,,1,0,340,101,1,339,ratio14_1_5_7.png,,,,,,,,,,,,
,,,,,,,,,,,,Few,Most,Half,All,None,Many,Less than half,Some,More than half,-0.016666667,-0.281944444,1,0,0,QQQ6,,,,,,,,English,2020-07-02_11h01.10.739,Experiment_English,3.2.4,Win32,60,,,1,0,340,319,1,339,ratio51_15_18_20.png,,,,,,,,,,,,
,,,,,,,,,,,,More than half,Less than half,All,None,Most,Many,Few,Half,Some,0.449305556,0.03125,1,0,0,QQQ2,,,,,,,,English,2020-07-02_11h01.10.739,Experiment_English,3.2.4,Win32,60,,,1,0,340,256,1,339,ratio34_6_14_11.png,,,,,,,,,,,,
,,,,,,,,,,,,Some,Less than half,Most,More than half,All,Half,Many,None,Few,0.504166667,0.290972222,1,0,0,QQQ1,,,,,,,,English,2020-07-02_11h01.10.739,Experiment_English,3.2.4,Win32,60,,,1,0,340,105,1,339,ratio14_2_10_1.png,,,,,,,,,,,,
,,,,,,,,,,,,More than half,Many,Half,Few,Most,Less than half,All,Some,None,0.03125,0.010416667,1,0,0,QQQ5,,,,,,,,English,2020-07-02_11h01.10.739,Experiment_English,3.2.4,Win32,60,,,1,0,340,58,1,339,ratioX0_19_19_4.png,,,,,,,,,,,,
,,,,,,,,,,,,Many,None,Half,Some,Most,All,Less than half,More than half,Few,0.03125,0.010416667,1,0,0,QQQ5,,,,,,,,English,2020-07-02_11h01.10.739,Experiment_English,3.2.4,Win32,60,,,1,0,340,298,1,339,ratio43_8_14_14.png,,,,,,,,,,,,
,,,,,,,,,,,,All,More than half,Less than half,Some,Half,Many,Most,Few,None,-0.4125,0.285416667,1,0,0,QQQ7,,,,,,,,English,2020-07-02_11h01.10.739,Experiment_English,3.2.4,Win32,60,,,1,0,340,238,1,339,ratio32_12_20_9.png,,,,,,,,,,,,
,,,,,,,,,,,,All,Some,Many,Few,Most,Half,None,Less than half,More than half,-0.013888889,0.345833333,1,0,0,QQQ4,,,,,,,,English,2020-07-02_11h01.10.739,Experiment_English,3.2.4,Win32,60,,,1,0,340,104,1,339,ratio14_1_5_10.png,,,,,,,,,,,,
,,,,,,,,,,,,All,Few,Half,Less than half,None,Most,Some,Many,More than half,-0.452083333,-0.288194444,1,0,0,QQQ9,,,,,,,,English,2020-07-02_11h01.10.739,Experiment_English,3.2.4,Win32,60,,,1,0,340,235,1,339,ratio32_12_20_1.png,,,,,,,,,,,,
,,,,,,,,,,,,Less than half,More than half,Half,None,All,Most,Some,Few,Many,-0.407638889,0.26875,1,0,0,QQQ7,,,,,,,,English,2020-07-02_11h01.10.739,Experiment_English,3.2.4,Win32,60,,,1,0,340,196,1,339,ratio23_8_20_5.png,,,,,,,,,,,,
,,,,,,,,,,,,Many,Most,All,Some,Less than half,Few,More than half,Half,None,0.430555556,0.270138889,1,0,0,QQQ1,,,,,,,,English,2020-07-02_11h01.10.739,Experiment_English,3.2.4,Win32,60,,,1,0,340,327,1,339,ratio91_9_10_11.png,,,,,,,,,,,,
,,,,,,,,,,,,Half,Some,Few,Less than half,Most,None,Many,All,More than half,0.090972222,-0.308333333,1,0,0,QQQ6,,,,,,,,English,2020-07-02_11h01.10.739,Experiment_English,3.2.4,Win32,60,,,1,0,340,62,1,339,ratio0Y_0_5_4.png,,,,,,,,,,,,
,,,,,,,,,,,,Less than half,Some,More than half,Many,Few,Most,All,None,Half,0.513194444,0.213194444,1,0,0,QQQ1,,,,,,,,English,2020-07-02_11h01.10.739,Experiment_English,3.2.4,Win32,60,,,1,0,340,36,1,339,ratio11_9_18_1.png,,,,,,,,,,,,
,,,,,,,,,,,,Most,None,More than half,Few,Less than half,Some,Half,Many,All,-0.365972222,-0.25,1,0,0,QQQ9,,,,,,,,English,2020-07-02_11h01.10.739,Experiment_English,3.2.4,Win32,60,,,1,0,340,50,1,339,ratioX0_12_12_3.png,,,,,,,,,,,,
,,,,,,,,,,,,Many,Few,Most,More than half,Less than half,Some,None,Half,All,0.534027778,0.329166667,1,0,0,QQQ1,,,,,,,,English,2020-07-02_11h01.10.739,Experiment_English,3.2.4,Win32,60,,,1,0,340,236,1,339,ratio32_12_20_2.png,,,,,,,,,,,,
,,,,,,,,,,,,None,Some,All,Half,More than half,Less than half,Few,Many,Most,0.025,0.011805556,1,0,0,QQQ5,,,,,,,,English,2020-07-02_11h01.10.739,Experiment_English,3.2.4,Win32,60,,,1,0,340,292,1,339,ratio43_8_14_6.png,,,,,,,,,,,,
,,,,,,,,,,,,None,Some,Most,Less than half,Half,Many,Few,More than half,All,0.025,0.011805556,1,0,0,QQQ5,,,,,,,,English,2020-07-02_11h01.10.739,Experiment_English,3.2.4,Win32,60,,,1,0,340,299,1,339,ratio43_8_14_17.png,,,,,,,,,,,,
,,,,,,,,,,,,Less than half,None,Some,Many,Half,All,Few,More than half,Most,-0.01875,0.320833333,1,0,0,QQQ4,,,,,,,,English,2020-07-02_11h01.10.739,Experiment_English,3.2.4,Win32,60,,,1,0,340,339,1,339,ratio91_18_20_19.png,,,,,,,,,,,,
,,,,,,,,,,,,None,Some,All,Few,Many,Most,Half,Less than half,More than half,0.451388889,0.030555556,1,0,0,QQQ2,,,,,,,,English,2020-07-02_11h01.10.739,Experiment_English,3.2.4,Win32,60,,,1,0,340,118,1,339,ratio14_4_20_8.png,,,,,,,,,,,,
,,,,,,,,,,,,Most,All,Few,Some,Many,Half,None,Less than half,More than half,0.014583333,0.292361111,1,0,0,QQQ4,,,,,,,,English,2020-07-02_11h01.10.739,Experiment_English,3.2.4,Win32,60,,,1,0,340,97,1,339,ratio13_5_20_2.png,,,,,,,,,,,,
,,,,,,,,,,,,Half,None,Less than half,Most,More than half,Some,Many,Few,All,0.0375,-0.002777778,1,0,0,QQQ5,,,,,,,,English,2020-07-02_11h01.10.739,Experiment_English,3.2.4,Win32,60,,,1,0,340,281,1,339,ratio43_4_7_4.png,,,,,,,,,,,,
,,,,,,,,,,,,Some,All,Few,Most,More than half,Many,None,Half,Less than half,0.363194444,-0.286111111,1,0,0,QQQ3,,,,,,,,English,2020-07-02_11h01.10.739,Experiment_English,3.2.4,Win32,60,,,1,0,340,148,1,339,ratio19_1_10_19.png,,,,,,,,,,,,
,,,,,,,,,,,,Some,Many,Less than half,Half,More than half,Most,All,Few,None,0.549305556,-0.006944444,1,0,0,QQQ2,,,,,,,,English,2020-07-02_11h01.10.739,Experiment_English,3.2.4,Win32,60,,,1,0,340,262,1,339,ratio41_4_5_4.png,,,,,,,,,,,,
,,,,,,,,,,,,Some,Most,Half,Many,Less than half,All,Few,More than half,None,0.125694444,-0.259027778,1,0,0,QQQ6,,,,,,,,English,2020-07-02_11h01.10.739,Experiment_English,3.2.4,Win32,60,,,1,0,340,44,1,339,ratioX0_7_7_5.png,,,,,,,,,,,,
,,,,,,,,,,,,Less than half,Most,More than half,Many,Some,Few,Half,All,None,-0.474305556,0.016666667,1,0,0,QQQ8,,,,,,,,English,2020-07-02_11h01.10.739,Experiment_English,3.2.4,Win32,60,,,1,0,340,54,1,339,ratioX0_15_15_5.png,,,,,,,,,,,,
,,,,,,,,,,,,Many,All,Most,Some,None,Few,More than half,Half,Less than half,-0.017361111,-0.21875,1,0,0,QQQ6,,,,,,,,English,2020-07-02_11h01.10.739,Experiment_English,3.2.4,Win32,60,,,1,0,340,149,1,339,ratio19_1_10_20.png,,,,,,,,,,,,
,,,,,,,,,,,,None,Half,All,More than half,Many,Less than half,Few,Most,Some,-0.469444444,0.310416667,1,0,0,QQQ7,,,,,,,,English,2020-07-02_11h01.10.739,Experiment_English,3.2.4,Win32,60,,,1,0,340,114,1,339,ratio14_3_15_10.png,,,,,,,,,,,,
,,,,,,,,,,,,Some,Many,More than half,Few,Less than half,None,All,Half,Most,-0.459722222,0.000694444,1,0,0,QQQ8,,,,,,,,English,2020-07-02_11h01.10.739,Experiment_English,3.2.4,Win32,60,,,1,0,340,282,1,339,ratio43_4_7_7.png,,,,,,,,,,,,
,,,,,,,,,,,,None,Many,More than half,Less than half,All,Few,Half,Some,Most,0.420138889,-0.236805556,1,0,0,QQQ3,,,,,,,,English,2020-07-02_11h01.10.739,Experiment_English,3.2.4,Win32,60,,,1,0,340,284,1,339,ratio43_4_7_11.png,,,,,,,,,,,,
,,,,,,,,,,,,Some,All,Less than half,Few,Many,None,Most,Half,More than half,0.134722222,-0.002083333,1,0,0,QQQ5,,,,,,,,English,2020-07-02_11h01.10.739,Experiment_English,3.2.4,Win32,60,,,1,0,340,322,1,339,ratio91_9_10_3.png,,,,,,,,,,,,
,,,,,,,,,,,,All,Some,Less than half,Most,Many,More than half,Half,Few,None,0.529861111,-0.286805556,1,0,0,QQQ3,,,,,,,,English,2020-07-02_11h01.10.739,Experiment_English,3.2.4,Win32,60,,,1,0,340,27,1,339,ratio11_5_10_7.png,,,,,,,,,,,,
,,,,,,,,,,,,Less than half,Few,Many,Half,Most,Some,None,All,More than half,0.427083333,-0.019444444,1,0,0,QQQ2,,,,,,,,English,2020-07-02_11h01.10.739,Experiment_English,3.2.4,Win32,60,,,1,0,340,98,1,339,ratio13_5_20_3.png,,,,,,,,,,,,
,,,,,,,,,,,,Many,Half,Less than half,Few,None,Some,More than half,All,Most,0.005555556,0.327777778,1,0,0,QQQ4,,,,,,,,English,2020-07-02_11h01.10.739,Experiment_English,3.2.4,Win32,60,,,1,0,340,151,1,339,ratio19_2_20_4.png,,,,,,,,,,,,
