continue_mouse.x,continue_mouse.y,continue_mouse.leftButton,continue_mouse.midButton,continue_mouse.rightButton,continue_mouse.clicked_name,continue_mouse_2.x,continue_mouse_2.y,continue_mouse_2.leftButton,continue_mouse_2.midButton,continue_mouse_2.rightButton,continue_mouse_2.clicked_name,Q1,Q2,Q3,Q4,Q5,Q6,Q7,Q8,Q9,select_answer.x,select_answer.y,select_answer.leftButton,select_answer.midButton,select_answer.rightButton,select_answer.clicked_name,trial.thisRepN,trial.thisTrialN,trial.thisN,trial.thisIndex,trial.ran,trial.order,trials,Native tongue*,date,expName,psychopyVersion,OS,frameRate,key_resp.keys,key_resp.rt,trial_2.thisRepN,trial_2.thisTrialN,trial_2.thisN,trial_2.thisIndex,trial_2.ran,trial_2.order,continue_mouse_3.x,continue_mouse_3.y,continue_mouse_3.leftButton,continue_mouse_3.midButton,continue_mouse_3.rightButton,continue_mouse_3.clicked_name,insts.thisRepN,insts.thisTrialN,insts.thisN,insts.thisIndex,insts.ran,insts.order,Actual_Experiment.thisRepN,Actual_Experiment.thisTrialN,Actual_Experiment.thisN,Actual_Experiment.thisIndex,Actual_Experiment.ran,Actual_Experiment.order,Pic,mouse_pause.x,mouse_pause.y,mouse_pause.leftButton,mouse_pause.midButton,mouse_pause.rightButton,mouse_pause.clicked_name,pause.thisRepN,pause.thisTrialN,pause.thisN,pause.thisIndex,pause.ran,pause.order
0.3325,-0.424166667,1,0,0,continue_button,0.294166667,-0.426666667,1,0,0,continue_button_2,Few,None,Some,Many,Half,All,More than half,Less than half,Most,0.395833333,-0.308333333,1,0,0,QQQ3,1,0,16,9,1,15,ratio19_1_10_8.png,English,2020-07-02_11h28.53.618,Experiment_English,3.2.4,Win32,60,,,,,,,,,,,,,,,,,,,,,,,,,,,,,,,,,,,,,,,
,,,,,,,,,,,,Many,None,More than half,Half,All,Few,Less than half,Some,Most,-0.483333333,-0.04,1,0,0,QQQ8,1,0,16,6,1,15,ratio31_12_16_7.png,English,2020-07-02_11h28.53.618,Experiment_English,3.2.4,Win32,60,,,,,,,,,,,,,,,,,,,,,,,,,,,,,,,,,,,,,,,
,,,,,,,,,,,,Less than half,All,Most,Half,Few,Some,More than half,Many,None,-0.060833333,-0.315833333,1,0,0,QQQ6,1,0,16,10,1,15,ratio15_2_12_4.png,English,2020-07-02_11h28.53.618,Experiment_English,3.2.4,Win32,60,,,,,,,,,,,,,,,,,,,,,,,,,,,,,,,,,,,,,,,
,,,,,,,,,,,,Less than half,More than half,All,Most,Many,Half,Few,Some,None,-0.030833333,0.271666667,1,0,0,QQQ4,1,0,16,12,1,15,ratio13_3_12_3.png,English,2020-07-02_11h28.53.618,Experiment_English,3.2.4,Win32,60,,,,,,,,,,,,,,,,,,,,,,,,,,,,,,,,,,,,,,,
,,,,,,,,,,,,Many,All,Less than half,Half,None,Few,Most,Some,More than half,0.455833333,0.255,1,0,0,QQQ1,1,0,16,13,1,15,ratio12_5_15_1.png,English,2020-07-02_11h28.53.618,Experiment_English,3.2.4,Win32,60,,,,,,,,,,,,,,,,,,,,,,,,,,,,,,,,,,,,,,,
,,,,,,,,,,,,Less than half,More than half,All,Half,Most,Some,None,Few,Many,-0.485833333,-0.084166667,1,0,0,QQQ8,,,,,,,ratio13_3_12_3.png,English,2020-07-02_11h28.53.618,Experiment_English,3.2.4,Win32,60,a,52.58599997,1,0,16,12,1,15,,,,,,,,,,,,,,,,,,,,,,,,,,,,,,,
,,,,,,,,,,,,None,More than half,Most,Less than half,Many,Few,Some,Half,All,0.020833333,-0.040833333,1,0,0,QQQ5,,,,,,,ratio31_12_16_7.png,English,2020-07-02_11h28.53.618,Experiment_English,3.2.4,Win32,60,,,1,0,16,6,1,15,,,,,,,,,,,,,,,,,,,,,,,,,,,,,,,
,,,,,,,,,,,,None,All,Most,More than half,Many,Half,Some,Few,Less than half,-0.458333333,-0.039166667,1,0,0,QQQ8,,,,,,,ratio34_3_7_3.png,English,2020-07-02_11h28.53.618,Experiment_English,3.2.4,Win32,60,,,1,0,16,4,1,15,,,,,,,,,,,,,,,,,,,,,,,,,,,,,,,
,,,,,,,,,,,,Most,None,Many,Less than half,Few,All,More than half,Half,Some,-0.423333333,-0.293333333,1,0,0,QQQ9,,,,,,,ratio12_5_15_1.png,English,2020-07-02_11h28.53.618,Experiment_English,3.2.4,Win32,60,,,1,0,16,13,1,15,,,,,,,,,,,,,,,,,,,,,,,,,,,,,,,
,,,,,,,,,,,,Some,Many,Most,More than half,Few,Half,None,All,Less than half,0.0225,-0.0725,1,0,0,QQQ5,,,,,,,ratio14_1_5_7.png,English,2020-07-02_11h28.53.618,Experiment_English,3.2.4,Win32,60,,,1,0,16,11,1,15,,,,,,,,,,,,,,,,,,,,,,,,,,,,,,,
,,,,,,,,,,,,,,,,,,,,,,,,,,,,,,,,,,English,2020-07-02_11h28.53.618,Experiment_English,3.2.4,Win32,60,,,,,,,,,0.335833333,-0.390833333,1,0,0,continue_button_3,1,0,1,0,1,0,,,,,,,,,,,,,,,,,,,
,,,,,,,,,,,,All,Half,Less than half,Few,None,Most,Some,Many,More than half,-0.37,0.241666667,1,0,0,QQQ7,,,,,,,,English,2020-07-02_11h28.53.618,Experiment_English,3.2.4,Win32,60,,,,,,,,,,,,,,,,,,,,,1,0,340,192,1,339,ratio23_6_15_8.png,,,,,,,,,,,,
,,,,,,,,,,,,Many,All,Some,Few,Most,More than half,None,Less than half,Half,-0.063333333,-0.03,1,0,0,QQQ5,,,,,,,,English,2020-07-02_11h28.53.618,Experiment_English,3.2.4,Win32,60,,,,,,,,,,,,,,,,,,,,,1,0,340,218,1,339,ratio31_15_20_7.png,,,,,,,,,,,,
,,,,,,,,,,,,Few,Half,More than half,Some,Less than half,Most,None,Many,All,-0.400833333,-0.0325,1,0,0,QQQ8,,,,,,,,English,2020-07-02_11h28.53.618,Experiment_English,3.2.4,Win32,60,,,,,,,,,,,,,,,,,,,,,1,0,340,297,1,339,ratio43_8_14_13.png,,,,,,,,,,,,
,,,,,,,,,,,,Most,Less than half,Half,Few,None,Some,Many,More than half,All,-0.56,-0.050833333,1,0,0,QQQ8,,,,,,,,English,2020-07-02_11h28.53.618,Experiment_English,3.2.4,Win32,60,,,,,,,,,,,,,,,,,,,,,1,0,340,37,1,339,ratio11_9_18_8.png,,,,,,,,,,,,
,,,,,,,,,,,,All,Few,None,Half,Less than half,Most,Some,More than half,Many,0.493333333,-0.069166667,1,0,0,QQQ2,,,,,,,,English,2020-07-02_11h28.53.618,Experiment_English,3.2.4,Win32,60,,,,,,,,,,,,,,,,,,,,,1,0,340,241,1,339,ratio34_3_7_5.png,,,,,,,,,,,,
,,,,,,,,,,,,Many,Most,Few,Some,All,Less than half,More than half,None,Half,0,0.28,1,0,0,QQQ4,,,,,,,,English,2020-07-02_11h28.53.618,Experiment_English,3.2.4,Win32,60,,,,,,,,,,,,,,,,,,,,,1,0,340,251,1,339,ratio34_6_14_2.png,,,,,,,,,,,,
,,,,,,,,,,,,Many,Few,More than half,Half,Less than half,Most,All,Some,None,0.44,-0.300833333,1,0,0,QQQ3,,,,,,,,English,2020-07-02_11h28.53.618,Experiment_English,3.2.4,Win32,60,,,,,,,,,,,,,,,,,,,,,1,0,340,235,1,339,ratio32_12_20_1.png,,,,,,,,,,,,
,,,,,,,,,,,,Half,Less than half,Most,All,Many,Few,None,Some,More than half,-0.445,-0.034166667,1,0,0,QQQ8,,,,,,,,English,2020-07-02_11h28.53.618,Experiment_English,3.2.4,Win32,60,,,,,,,,,,,,,,,,,,,,,1,0,340,98,1,339,ratio13_5_20_3.png,,,,,,,,,,,,
,,,,,,,,,,,,More than half,Most,Some,None,Less than half,All,Many,Few,Half,-0.5025,-0.024166667,1,0,0,QQQ8,,,,,,,,English,2020-07-02_11h28.53.618,Experiment_English,3.2.4,Win32,60,,,,,,,,,,,,,,,,,,,,,1,0,340,4,1,339,ratio12_2_6_5.png,,,,,,,,,,,,
,,,,,,,,,,,,All,Many,More than half,Less than half,Half,None,Most,Some,Few,-0.37,-0.225,1,0,0,QQQ9,,,,,,,,English,2020-07-02_11h28.53.618,Experiment_English,3.2.4,Win32,60,,,,,,,,,,,,,,,,,,,,,1,0,340,90,1,339,ratio13_3_12_7.png,,,,,,,,,,,,
,,,,,,,,,,,,Many,Half,More than half,Most,All,Some,Few,Less than half,None,-0.123333333,-0.345,1,0,0,QQQ6,,,,,,,,English,2020-07-02_11h28.53.618,Experiment_English,3.2.4,Win32,60,,,,,,,,,,,,,,,,,,,,,1,0,340,220,1,339,ratio32_3_5_1.png,,,,,,,,,,,,
,,,,,,,,,,,,Half,All,Many,Few,More than half,None,Less than half,Most,Some,-0.456666667,-0.230833333,1,0,0,QQQ9,,,,,,,,English,2020-07-02_11h28.53.618,Experiment_English,3.2.4,Win32,60,,,,,,,,,,,,,,,,,,,,,1,0,340,162,1,339,ratio21_2_3_9.png,,,,,,,,,,,,
,,,,,,,,,,,,Few,Less than half,All,Many,More than half,Half,Most,Some,None,0.075,-0.2475,1,0,0,QQQ6,,,,,,,,English,2020-07-02_11h28.53.618,Experiment_English,3.2.4,Win32,60,,,,,,,,,,,,,,,,,,,,,1,0,340,298,1,339,ratio43_8_14_14.png,,,,,,,,,,,,
,,,,,,,,,,,,Some,Half,Many,Most,Few,None,Less than half,All,More than half,-0.050833333,0.030833333,1,0,0,QQQ5,,,,,,,,English,2020-07-02_11h28.53.618,Experiment_English,3.2.4,Win32,60,,,,,,,,,,,,,,,,,,,,,1,0,340,105,1,339,ratio14_2_10_1.png,,,,,,,,,,,,
,,,,,,,,,,,,Most,All,None,More than half,Many,Some,Half,Few,Less than half,0.445833333,0.2725,1,0,0,QQQ1,,,,,,,,English,2020-07-02_11h28.53.618,Experiment_English,3.2.4,Win32,60,,,,,,,,,,,,,,,,,,,,,1,0,340,315,1,339,ratio51_15_18_10.png,,,,,,,,,,,,
,,,,,,,,,,,,Few,More than half,None,Many,Most,Less than half,All,Some,Half,-0.5075,-0.056666667,1,0,0,QQQ8,,,,,,,,English,2020-07-02_11h28.53.618,Experiment_English,3.2.4,Win32,60,,,,,,,,,,,,,,,,,,,,,1,0,340,281,1,339,ratio43_4_7_4.png,,,,,,,,,,,,
,,,,,,,,,,,,Many,Some,All,Most,Less than half,None,Half,Few,More than half,-0.035833333,-0.095,1,0,0,QQQ5,,,,,,,,English,2020-07-02_11h28.53.618,Experiment_English,3.2.4,Win32,60,,,,,,,,,,,,,,,,,,,,,1,0,340,17,1,339,ratio12_6_18_5.png,,,,,,,,,,,,
,,,,,,,,,,,,All,None,More than half,Some,Half,Most,Few,Less than half,Many,-0.053333333,-0.016666667,1,0,0,QQQ5,,,,,,,,English,2020-07-02_11h28.53.618,Experiment_English,3.2.4,Win32,60,,,,,,,,,,,,,,,,,,,,,1,0,340,31,1,339,ratio11_6_12_9.png,,,,,,,,,,,,
,,,,,,,,,,,,Some,More than half,Less than half,Half,Many,Few,None,All,Most,0.078333333,-0.3325,1,0,0,QQQ6,,,,,,,,English,2020-07-02_11h28.53.618,Experiment_English,3.2.4,Win32,60,,,,,,,,,,,,,,,,,,,,,1,0,340,91,1,339,ratio13_3_12_10.png,,,,,,,,,,,,
,,,,,,,,,,,,Most,More than half,Few,All,None,Some,Many,Half,Less than half,0.443333333,-0.311666667,1,0,0,QQQ3,,,,,,,,English,2020-07-02_11h28.53.618,Experiment_English,3.2.4,Win32,60,,,,,,,,,,,,,,,,,,,,,1,0,340,104,1,339,ratio14_1_5_10.png,,,,,,,,,,,,
,,,,,,,,,,,,Most,More than half,Some,Many,None,Less than half,Half,All,Few,-0.4675,-0.251666667,1,0,0,QQQ9,,,,,,,,English,2020-07-02_11h28.53.618,Experiment_English,3.2.4,Win32,60,,,,,,,,,,,,,,,,,,,,,1,0,340,94,1,339,ratio13_4_16_8.png,,,,,,,,,,,,
,,,,,,,,,,,,Most,Some,Less than half,Half,All,None,Few,More than half,Many,-0.395,-0.281666667,1,0,0,QQQ9,,,,,,,,English,2020-07-02_11h28.53.618,Experiment_English,3.2.4,Win32,60,,,,,,,,,,,,,,,,,,,,,1,0,340,317,1,339,ratio51_15_18_13.png,,,,,,,,,,,,
,,,,,,,,,,,,More than half,All,Some,None,Less than half,Most,Half,Many,Few,0.373333333,-0.028333333,1,0,0,QQQ2,,,,,,,,English,2020-07-02_11h28.53.618,Experiment_English,3.2.4,Win32,60,,,,,,,,,,,,,,,,,,,,,1,0,340,335,1,339,ratio91_18_20_11.png,,,,,,,,,,,,
,,,,,,,,,,,,Most,Some,None,Many,Less than half,All,Half,Few,More than half,-0.479166667,0.310833333,1,0,0,QQQ7,,,,,,,,English,2020-07-02_11h28.53.618,Experiment_English,3.2.4,Win32,60,,,,,,,,,,,,,,,,,,,,,1,0,340,258,1,339,ratio34_6_14_14.png,,,,,,,,,,,,
,,,,,,,,,,,,More than half,Few,Some,Half,None,All,Most,Many,Less than half,-0.4375,-0.0625,1,0,0,QQQ8,,,,,,,,English,2020-07-02_11h28.53.618,Experiment_English,3.2.4,Win32,60,,,,,,,,,,,,,,,,,,,,,1,0,340,19,1,339,ratio12_6_18_9.png,,,,,,,,,,,,
,,,,,,,,,,,,Less than half,None,Half,Some,Most,Few,More than half,All,Many,-0.108333333,-0.09,1,0,0,QQQ5,,,,,,,,English,2020-07-02_11h28.53.618,Experiment_English,3.2.4,Win32,60,,,,,,,,,,,,,,,,,,,,,1,0,340,310,1,339,ratio51_10_12_12.png,,,,,,,,,,,,
,,,,,,,,,,,,Some,More than half,Half,Many,All,None,Few,Less than half,Most,-0.103333333,-0.078333333,1,0,0,QQQ5,,,,,,,,English,2020-07-02_11h28.53.618,Experiment_English,3.2.4,Win32,60,,,,,,,,,,,,,,,,,,,,,1,0,340,325,1,339,ratio91_9_10_8.png,,,,,,,,,,,,
,,,,,,,,,,,,Most,Few,Some,All,Many,More than half,Half,Less than half,None,-0.103333333,-0.078333333,1,0,0,QQQ5,,,,,,,,English,2020-07-02_11h28.53.618,Experiment_English,3.2.4,Win32,60,,,,,,,,,,,,,,,,,,,,,1,0,340,318,1,339,ratio51_15_18_18.png,,,,,,,,,,,,
,,,,,,,,,,,,All,Few,Less than half,None,Most,Many,More than half,Some,Half,-0.104166667,-0.070833333,1,0,0,QQQ5,,,,,,,,English,2020-07-02_11h28.53.618,Experiment_English,3.2.4,Win32,60,,,,,,,,,,,,,,,,,,,,,1,0,340,211,1,339,ratio31_9_12_10.png,,,,,,,,,,,,
,,,,,,,,,,,,Most,All,None,Few,Some,Less than half,Many,Half,More than half,-0.033333333,-0.264166667,1,0,0,QQQ6,,,,,,,,English,2020-07-02_11h28.53.618,Experiment_English,3.2.4,Win32,60,,,,,,,,,,,,,,,,,,,,,1,0,340,189,1,339,ratio23_4_10_8.png,,,,,,,,,,,,
,,,,,,,,,,,,Many,All,Less than half,Some,None,Few,More than half,Half,Most,-0.099166667,-0.215833333,1,0,0,QQQ6,,,,,,,,English,2020-07-02_11h28.53.618,Experiment_English,3.2.4,Win32,60,,,,,,,,,,,,,,,,,,,,,1,0,340,180,1,339,ratio23_2_5_4.png,,,,,,,,,,,,
,,,,,,,,,,,,None,More than half,Less than half,Half,Few,All,Most,Some,Many,-0.048333333,-0.078333333,1,0,0,QQQ5,,,,,,,,English,2020-07-02_11h28.53.618,Experiment_English,3.2.4,Win32,60,,,,,,,,,,,,,,,,,,,,,1,0,340,118,1,339,ratio14_4_20_8.png,,,,,,,,,,,,
,,,,,,,,,,,,More than half,Some,Most,None,All,Few,Half,Many,Less than half,0.084166667,-0.01,1,0,0,QQQ5,,,,,,,,English,2020-07-02_11h28.53.618,Experiment_English,3.2.4,Win32,60,,,,,,,,,,,,,,,,,,,,,1,0,340,331,1,339,ratio91_18_20_3.png,,,,,,,,,,,,
,,,,,,,,,,,,None,More than half,Some,Half,Few,Less than half,Most,All,Many,0.4875,0.285,1,0,0,QQQ1,,,,,,,,English,2020-07-02_11h28.53.618,Experiment_English,3.2.4,Win32,60,,,,,,,,,,,,,,,,,,,,,1,0,340,62,1,339,ratio0Y_0_5_4.png,0.303333333,-0.39,1,0,0,continue_button_pause,1,0,1,0,1,0
,,,,,,,,,,,,,,,,,,,,,,,,,,,,,,,,,,English,2020-07-02_11h28.53.618,Experiment_English,3.2.4,Win32,60,,,,,,,,,,,,,,,,,,,,,1,0,340,62,1,339,ratio0Y_0_5_4.png,,,,,,,,,,,,
,,,,,,,,,,,,Some,Less than half,All,More than half,Most,None,Few,Half,Many,0.0425,0,1,0,0,QQQ5,,,,,,,,English,2020-07-02_11h28.53.618,Experiment_English,3.2.4,Win32,60,,,,,,,,,,,,,,,,,,,,,1,0,340,177,1,339,ratio21_12_18_1.png,,,,,,,,,,,,
,,,,,,,,,,,,Less than half,More than half,Most,Half,Few,Some,Many,None,All,0.4625,0.309166667,1,0,0,QQQ1,,,,,,,,English,2020-07-02_11h28.53.618,Experiment_English,3.2.4,Win32,60,,,,,,,,,,,,,,,,,,,,,1,0,340,195,1,339,ratio23_8_20_1.png,,,,,,,,,,,,
,,,,,,,,,,,,More than half,Few,None,Most,All,Many,Half,Some,Less than half,0.0525,0.255833333,1,0,0,QQQ4,,,,,,,,English,2020-07-02_11h28.53.618,Experiment_English,3.2.4,Win32,60,,,,,,,,,,,,,,,,,,,,,1,0,340,308,1,339,ratio51_10_12_9.png,,,,,,,,,,,,
,,,,,,,,,,,,Most,Some,Half,More than half,Less than half,Many,None,Few,All,0,0.384166667,1,0,0,QQQ4,,,,,,,,English,2020-07-02_11h28.53.618,Experiment_English,3.2.4,Win32,60,,,,,,,,,,,,,,,,,,,,,1,0,340,168,1,339,ratio21_6_9_3.png,,,,,,,,,,,,
,,,,,,,,,,,,Many,More than half,None,Half,Less than half,Some,Few,Most,All,0.44,0.264166667,1,0,0,QQQ1,,,,,,,,English,2020-07-02_11h28.53.618,Experiment_English,3.2.4,Win32,60,,,,,,,,,,,,,,,,,,,,,1,0,340,254,1,339,ratio34_6_14_9.png,,,,,,,,,,,,
,,,,,,,,,,,,More than half,Half,Most,Some,Less than half,All,Few,None,Many,-0.4975,0.238333333,1,0,0,QQQ7,,,,,,,,English,2020-07-02_11h28.53.618,Experiment_English,3.2.4,Win32,60,,,,,,,,,,,,,,,,,,,,,1,0,340,86,1,339,ratio13_2_8_6.png,,,,,,,,,,,,
,,,,,,,,,,,,Some,None,Many,Most,All,Less than half,More than half,Half,Few,-0.005,0.29,1,0,0,QQQ4,,,,,,,,English,2020-07-02_11h28.53.618,Experiment_English,3.2.4,Win32,60,,,,,,,,,,,,,,,,,,,,,1,0,340,262,1,339,ratio41_4_5_4.png,,,,,,,,,,,,
,,,,,,,,,,,,Many,All,Some,Few,Less than half,Half,Most,None,More than half,-0.1075,0.323333333,1,0,0,QQQ4,,,,,,,,English,2020-07-02_11h28.53.618,Experiment_English,3.2.4,Win32,60,,,,,,,,,,,,,,,,,,,,,1,0,340,134,1,339,ratio15_3_18_5.png,,,,,,,,,,,,
,,,,,,,,,,,,More than half,Less than half,None,Half,Most,Many,All,Some,Few,-0.443333333,0.285,1,0,0,QQQ7,,,,,,,,English,2020-07-02_11h28.53.618,Experiment_English,3.2.4,Win32,60,,,,,,,,,,,,,,,,,,,,,1,0,340,41,1,339,ratioX0_4_4_9.png,,,,,,,,,,,,
,,,,,,,,,,,,Less than half,Half,More than half,Some,Most,Many,None,Few,All,0.076666667,-0.041666667,1,0,0,QQQ5,,,,,,,,English,2020-07-02_11h28.53.618,Experiment_English,3.2.4,Win32,60,,,,,,,,,,,,,,,,,,,,,1,0,340,212,1,339,ratio31_12_16_1.png,,,,,,,,,,,,
,,,,,,,,,,,,None,Less than half,More than half,Half,All,Few,Most,Many,Some,-0.071666667,0.005833333,1,0,0,QQQ5,,,,,,,,English,2020-07-02_11h28.53.618,Experiment_English,3.2.4,Win32,60,,,,,,,,,,,,,,,,,,,,,1,0,340,266,1,339,ratio41_8_10_2.png,,,,,,,,,,,,
,,,,,,,,,,,,Most,All,More than half,Less than half,Few,Many,Half,None,Some,0.4275,-0.280833333,1,0,0,QQQ3,,,,,,,,English,2020-07-02_11h28.53.618,Experiment_English,3.2.4,Win32,60,,,,,,,,,,,,,,,,,,,,,1,0,340,198,1,339,ratio23_8_20_7.png,,,,,,,,,,,,
,,,,,,,,,,,,Many,All,More than half,None,Few,Some,Half,Most,Less than half,-0.55,-0.049166667,1,0,0,QQQ8,,,,,,,,English,2020-07-02_11h28.53.618,Experiment_English,3.2.4,Win32,60,,,,,,,,,,,,,,,,,,,,,1,0,340,274,1,339,ratio41_12_15_9.png,,,,,,,,,,,,
,,,,,,,,,,,,More than half,None,Less than half,Most,Some,Few,All,Half,Many,-0.0625,0.313333333,1,0,0,QQQ4,,,,,,,,English,2020-07-02_11h28.53.618,Experiment_English,3.2.4,Win32,60,,,,,,,,,,,,,,,,,,,,,1,0,340,316,1,339,ratio51_15_18_11.png,,,,,,,,,,,,
,,,,,,,,,,,,Many,Half,More than half,Some,Less than half,All,Most,None,Few,0.003333333,0.3025,1,0,0,QQQ4,,,,,,,,English,2020-07-02_11h28.53.618,Experiment_English,3.2.4,Win32,60,,,,,,,,,,,,,,,,,,,,,1,0,340,23,1,339,ratio11_3_6_9.png,,,,,,,,,,,,
,,,,,,,,,,,,Less than half,More than half,Few,Some,Half,Many,All,Most,None,0.3925,0.265,1,0,0,QQQ1,,,,,,,,English,2020-07-02_11h28.53.618,Experiment_English,3.2.4,Win32,60,,,,,,,,,,,,,,,,,,,,,1,0,340,176,1,339,ratio21_10_15_3.png,,,,,,,,,,,,
,,,,,,,,,,,,Less than half,All,Most,Some,Few,More than half,Half,Many,None,-0.031666667,-0.055,1,0,0,QQQ5,,,,,,,,English,2020-07-02_11h28.53.618,Experiment_English,3.2.4,Win32,60,,,,,,,,,,,,,,,,,,,,,1,0,340,106,1,339,ratio14_2_10_2.png,,,,,,,,,,,,
,,,,,,,,,,,,Most,Some,None,Half,All,Many,Few,More than half,Less than half,0.395,-0.079166667,1,0,0,QQQ2,,,,,,,,English,2020-07-02_11h28.53.618,Experiment_English,3.2.4,Win32,60,,,,,,,,,,,,,,,,,,,,,1,0,340,159,1,339,ratio19_2_20_20.png,,,,,,,,,,,,
,,,,,,,,,,,,More than half,Half,Many,Few,Less than half,None,Most,Some,All,-0.515833333,0.254166667,1,0,0,QQQ7,,,,,,,,English,2020-07-02_11h28.53.618,Experiment_English,3.2.4,Win32,60,,,,,,,,,,,,,,,,,,,,,1,0,340,326,1,339,ratio91_9_10_10.png,,,,,,,,,,,,
,,,,,,,,,,,,Less than half,Half,Most,None,Few,Some,More than half,All,Many,0.409166667,-0.073333333,1,0,0,QQQ2,,,,,,,,English,2020-07-02_11h28.53.618,Experiment_English,3.2.4,Win32,60,,,,,,,,,,,,,,,,,,,,,1,0,340,248,1,339,ratio34_3_7_19.png,,,,,,,,,,,,
,,,,,,,,,,,,Many,Few,None,Less than half,Some,Most,All,More than half,Half,0.510833333,-0.0325,1,0,0,QQQ2,,,,,,,,English,2020-07-02_11h28.53.618,Experiment_English,3.2.4,Win32,60,,,,,,,,,,,,,,,,,,,,,1,0,340,109,1,339,ratio14_2_10_9.png,,,,,,,,,,,,
,,,,,,,,,,,,More than half,All,Half,Few,Many,Most,None,Some,Less than half,-0.449166667,0.010833333,1,0,0,QQQ8,,,,,,,,English,2020-07-02_11h28.53.618,Experiment_English,3.2.4,Win32,60,,,,,,,,,,,,,,,,,,,,,1,0,340,5,1,339,ratio12_2_6_9.png,,,,,,,,,,,,
,,,,,,,,,,,,Most,Less than half,More than half,Half,Some,All,Many,None,Few,-0.420833333,-0.2575,1,0,0,QQQ9,,,,,,,,English,2020-07-02_11h28.53.618,Experiment_English,3.2.4,Win32,60,,,,,,,,,,,,,,,,,,,,,1,0,340,155,1,339,ratio19_2_20_13.png,,,,,,,,,,,,
,,,,,,,,,,,,More than half,Few,Most,None,Less than half,All,Some,Half,Many,-0.416666667,0.290833333,1,0,0,QQQ7,,,,,,,,English,2020-07-02_11h28.53.618,Experiment_English,3.2.4,Win32,60,,,,,,,,,,,,,,,,,,,,,1,0,340,250,1,339,ratio34_6_14_1.png,,,,,,,,,,,,
,,,,,,,,,,,,Most,Some,More than half,All,Few,Many,Less than half,None,Half,0.0125,-0.044166667,1,0,0,QQQ5,,,,,,,,English,2020-07-02_11h28.53.618,Experiment_English,3.2.4,Win32,60,,,,,,,,,,,,,,,,,,,,,1,0,340,99,1,339,ratio13_5_20_4.png,,,,,,,,,,,,
,,,,,,,,,,,,Most,More than half,Few,Some,None,Less than half,Half,All,Many,0.449166667,-0.251666667,1,0,0,QQQ3,,,,,,,,English,2020-07-02_11h28.53.618,Experiment_English,3.2.4,Win32,60,,,,,,,,,,,,,,,,,,,,,1,0,340,103,1,339,ratio14_1_5_9.png,,,,,,,,,,,,
,,,,,,,,,,,,More than half,Most,None,Less than half,Many,Some,Few,Half,All,-0.484166667,0.225,1,0,0,QQQ7,,,,,,,,English,2020-07-02_11h28.53.618,Experiment_English,3.2.4,Win32,60,,,,,,,,,,,,,,,,,,,,,1,0,340,95,1,339,ratio13_4_16_10.png,,,,,,,,,,,,
,,,,,,,,,,,,Few,More than half,Some,Many,Half,Less than half,Most,None,All,0.531666667,-0.319166667,1,0,0,QQQ3,,,,,,,,English,2020-07-02_11h28.53.618,Experiment_English,3.2.4,Win32,60,,,,,,,,,,,,,,,,,,,,,1,0,340,121,1,339,ratio15_1_6_4.png,,,,,,,,,,,,
,,,,,,,,,,,,All,None,Many,Few,Half,More than half,Some,Most,Less than half,-0.3875,-0.021666667,1,0,0,QQQ8,,,,,,,,English,2020-07-02_11h28.53.618,Experiment_English,3.2.4,Win32,60,,,,,,,,,,,,,,,,,,,,,1,0,340,313,1,339,ratio51_15_18_2.png,,,,,,,,,,,,
,,,,,,,,,,,,Less than half,None,Many,More than half,Some,All,Most,Few,Half,0.455,0.2825,1,0,0,QQQ1,,,,,,,,English,2020-07-02_11h28.53.618,Experiment_English,3.2.4,Win32,60,,,,,,,,,,,,,,,,,,,,,1,0,340,193,1,339,ratio23_6_15_9.png,,,,,,,,,,,,
,,,,,,,,,,,,More than half,Many,All,Some,Half,Less than half,None,Few,Most,-0.499166667,0.284166667,1,0,0,QQQ7,,,,,,,,English,2020-07-02_11h28.53.618,Experiment_English,3.2.4,Win32,60,,,,,,,,,,,,,,,,,,,,,1,0,340,60,1,339,ratio0Y_0_3_5.png,,,,,,,,,,,,
,,,,,,,,,,,,Less than half,All,None,Some,Many,Few,Half,Most,More than half,0.0175,-0.269166667,1,0,0,QQQ6,,,,,,,,English,2020-07-02_11h28.53.618,Experiment_English,3.2.4,Win32,60,,,,,,,,,,,,,,,,,,,,,1,0,340,127,1,339,ratio15_2_12_2.png,,,,,,,,,,,,
,,,,,,,,,,,,Many,Some,Less than half,Most,Few,Half,None,All,More than half,-0.485,0.35,1,0,0,QQQ7,,,,,,,,English,2020-07-02_11h28.53.618,Experiment_English,3.2.4,Win32,60,,,,,,,,,,,,,,,,,,,,,1,0,340,66,1,339,ratio0Y_0_9_8.png,,,,,,,,,,,,
,,,,,,,,,,,,Some,Less than half,Most,Half,Many,More than half,Few,None,All,-0.4375,-0.313333333,1,0,0,QQQ9,,,,,,,,English,2020-07-02_11h28.53.618,Experiment_English,3.2.4,Win32,60,,,,,,,,,,,,,,,,,,,,,1,0,340,56,1,339,ratioX0_17_17_10.png,0.256666667,-0.375,1,0,0,continue_button_pause,1,0,1,0,1,0
,,,,,,,,,,,,,,,,,,,,,,,,,,,,,,,,,,English,2020-07-02_11h28.53.618,Experiment_English,3.2.4,Win32,60,,,,,,,,,,,,,,,,,,,,,1,0,340,56,1,339,ratioX0_17_17_10.png,,,,,,,,,,,,
,,,,,,,,,,,,Half,More than half,Many,Less than half,None,Some,All,Most,Few,-0.485833333,-0.299166667,1,0,0,QQQ9,,,,,,,,English,2020-07-02_11h28.53.618,Experiment_English,3.2.4,Win32,60,,,,,,,,,,,,,,,,,,,,,1,0,340,110,1,339,ratio14_3_15_2.png,,,,,,,,,,,,
,,,,,,,,,,,,Half,None,Less than half,Many,Few,More than half,Most,All,Some,-0.521666667,0.2275,1,0,0,QQQ7,,,,,,,,English,2020-07-02_11h28.53.618,Experiment_English,3.2.4,Win32,60,,,,,,,,,,,,,,,,,,,,,1,0,340,303,1,339,ratio51_5_6_6.png,,,,,,,,,,,,
,,,,,,,,,,,,All,Many,Some,None,Most,More than half,Half,Less than half,Few,0.379166667,0.283333333,1,0,0,QQQ1,,,,,,,,English,2020-07-02_11h28.53.618,Experiment_English,3.2.4,Win32,60,,,,,,,,,,,,,,,,,,,,,1,0,340,54,1,339,ratioX0_15_15_5.png,,,,,,,,,,,,
,,,,,,,,,,,,Less than half,Many,All,Few,None,Some,Most,Half,More than half,0.475,-0.035,1,0,0,QQQ2,,,,,,,,English,2020-07-02_11h28.53.618,Experiment_English,3.2.4,Win32,60,,,,,,,,,,,,,,,,,,,,,1,0,340,231,1,339,ratio32_9_15_2.png,,,,,,,,,,,,
,,,,,,,,,,,,Most,Some,Many,All,More than half,Less than half,Half,Few,None,0.505833333,0.289166667,1,0,0,QQQ1,,,,,,,,English,2020-07-02_11h28.53.618,Experiment_English,3.2.4,Win32,60,,,,,,,,,,,,,,,,,,,,,1,0,340,261,1,339,ratio41_4_5_3.png,,,,,,,,,,,,
,,,,,,,,,,,,All,Many,More than half,Some,Most,Few,None,Less than half,Half,-0.020833333,-0.061666667,1,0,0,QQQ5,,,,,,,,English,2020-07-02_11h28.53.618,Experiment_English,3.2.4,Win32,60,,,,,,,,,,,,,,,,,,,,,1,0,340,205,1,339,ratio31_6_8_2.png,,,,,,,,,,,,
,,,,,,,,,,,,All,Some,Half,Less than half,None,More than half,Many,Most,Few,0.5275,-0.361666667,1,0,0,QQQ3,,,,,,,,English,2020-07-02_11h28.53.618,Experiment_English,3.2.4,Win32,60,,,,,,,,,,,,,,,,,,,,,1,0,340,291,1,339,ratio43_8_14_5.png,,,,,,,,,,,,
,,,,,,,,,,,,None,More than half,Few,All,Less than half,Some,Half,Most,Many,-0.471666667,-0.0725,1,0,0,QQQ8,,,,,,,,English,2020-07-02_11h28.53.618,Experiment_English,3.2.4,Win32,60,,,,,,,,,,,,,,,,,,,,,1,0,340,307,1,339,ratio51_10_12_1.png,,,,,,,,,,,,
,,,,,,,,,,,,More than half,Most,Many,All,Half,Some,Few,None,Less than half,-0.456666667,-0.016666667,1,0,0,QQQ8,,,,,,,,English,2020-07-02_11h28.53.618,Experiment_English,3.2.4,Win32,60,,,,,,,,,,,,,,,,,,,,,1,0,340,322,1,339,ratio91_9_10_3.png,,,,,,,,,,,,
,,,,,,,,,,,,Most,Some,None,Few,Many,All,Less than half,Half,More than half,0.475,0.2125,1,0,0,QQQ1,,,,,,,,English,2020-07-02_11h28.53.618,Experiment_English,3.2.4,Win32,60,,,,,,,,,,,,,,,,,,,,,1,0,340,312,1,339,ratio51_10_12_16.png,,,,,,,,,,,,
,,,,,,,,,,,,Half,More than half,Most,All,Few,Some,None,Many,Less than half,-0.408333333,0.279166667,1,0,0,QQQ7,,,,,,,,English,2020-07-02_11h28.53.618,Experiment_English,3.2.4,Win32,60,,,,,,,,,,,,,,,,,,,,,1,0,340,71,1,339,ratio0Y_0_12_10.png,,,,,,,,,,,,
,,,,,,,,,,,,None,More than half,Some,Most,Few,All,Many,Less than half,Half,-0.000833333,-0.0125,1,0,0,QQQ5,,,,,,,,English,2020-07-02_11h28.53.618,Experiment_English,3.2.4,Win32,60,,,,,,,,,,,,,,,,,,,,,1,0,340,240,1,339,ratio34_3_7_4.png,,,,,,,,,,,,
,,,,,,,,,,,,Some,All,Half,Many,Less than half,More than half,Few,Most,None,-0.519166667,0.344166667,1,0,0,QQQ7,,,,,,,,English,2020-07-02_11h28.53.618,Experiment_English,3.2.4,Win32,60,,,,,,,,,,,,,,,,,,,,,1,0,340,93,1,339,ratio13_4_16_7.png,,,,,,,,,,,,
,,,,,,,,,,,,Half,Some,Less than half,Many,All,None,More than half,Few,Most,0.025833333,0.264166667,1,0,0,QQQ4,,,,,,,,English,2020-07-02_11h28.53.618,Experiment_English,3.2.4,Win32,60,,,,,,,,,,,,,,,,,,,,,1,0,340,219,1,339,ratio31_15_20_10.png,,,,,,,,,,,,
,,,,,,,,,,,,Some,Few,None,Half,All,Many,More than half,Most,Less than half,-0.02,0.231666667,1,0,0,QQQ4,,,,,,,,English,2020-07-02_11h28.53.618,Experiment_English,3.2.4,Win32,60,,,,,,,,,,,,,,,,,,,,,1,0,340,287,1,339,ratio43_4_7_17.png,,,,,,,,,,,,
,,,,,,,,,,,,Some,None,More than half,Half,Less than half,Most,Many,All,Few,0.386666667,-0.208333333,1,0,0,QQQ3,,,,,,,,English,2020-07-02_11h28.53.618,Experiment_English,3.2.4,Win32,60,,,,,,,,,,,,,,,,,,,,,1,0,340,290,1,339,ratio43_8_14_3.png,,,,,,,,,,,,
,,,,,,,,,,,,Most,Some,All,Few,None,More than half,Half,Many,Less than half,-0.019166667,-0.3075,1,0,0,QQQ6,,,,,,,,English,2020-07-02_11h28.53.618,Experiment_English,3.2.4,Win32,60,,,,,,,,,,,,,,,,,,,,,1,0,340,204,1,339,ratio31_6_8_1.png,,,,,,,,,,,,
,,,,,,,,,,,,All,Many,Most,Half,Some,More than half,None,Less than half,Few,0.603333333,-0.2375,1,0,0,QQQ3,,,,,,,,English,2020-07-02_11h28.53.618,Experiment_English,3.2.4,Win32,60,,,,,,,,,,,,,,,,,,,,,1,0,340,300,1,339,ratio51_5_6_1.png,,,,,,,,,,,,
,,,,,,,,,,,,Half,Some,Most,None,More than half,All,Many,Less than half,Few,-0.401666667,0.251666667,1,0,0,QQQ7,,,,,,,,English,2020-07-02_11h28.53.618,Experiment_English,3.2.4,Win32,60,,,,,,,,,,,,,,,,,,,,,1,0,340,285,1,339,ratio43_4_7_14.png,,,,,,,,,,,,
,,,,,,,,,,,,Less than half,Half,All,More than half,Some,Many,None,Most,Few,-0.468333333,-0.019166667,1,0,0,QQQ8,,,,,,,,English,2020-07-02_11h28.53.618,Experiment_English,3.2.4,Win32,60,,,,,,,,,,,,,,,,,,,,,1,0,340,320,1,339,ratio91_9_10_1.png,,,,,,,,,,,,
,,,,,,,,,,,,Most,Few,All,More than half,None,Many,Less than half,Half,Some,-0.0125,0.2675,1,0,0,QQQ4,,,,,,,,English,2020-07-02_11h28.53.618,Experiment_English,3.2.4,Win32,60,,,,,,,,,,,,,,,,,,,,,1,0,340,233,1,339,ratio32_9_15_9.png,,,,,,,,,,,,
,,,,,,,,,,,,All,Some,Half,Few,Many,Less than half,Most,More than half,None,-0.4275,-0.01,1,0,0,QQQ8,,,,,,,,English,2020-07-02_11h28.53.618,Experiment_English,3.2.4,Win32,60,,,,,,,,,,,,,,,,,,,,,1,0,340,229,1,339,ratio32_6_10_9.png,,,,,,,,,,,,
,,,,,,,,,,,,Most,All,None,Few,More than half,Half,Some,Many,Less than half,0.393333333,0.221666667,1,0,0,QQQ1,,,,,,,,English,2020-07-02_11h28.53.618,Experiment_English,3.2.4,Win32,60,,,,,,,,,,,,,,,,,,,,,1,0,340,311,1,339,ratio51_10_12_14.png,,,,,,,,,,,,
,,,,,,,,,,,,More than half,Few,Some,Many,Half,All,Most,None,Less than half,0.41,-0.020833333,1,0,0,QQQ2,,,,,,,,English,2020-07-02_11h28.53.618,Experiment_English,3.2.4,Win32,60,,,,,,,,,,,,,,,,,,,,,1,0,340,146,1,339,ratio19_1_10_17.png,,,,,,,,,,,,
,,,,,,,,,,,,Few,Less than half,All,Most,Many,Some,Half,None,More than half,-0.4975,-0.321666667,1,0,0,QQQ9,,,,,,,,English,2020-07-02_11h28.53.618,Experiment_English,3.2.4,Win32,60,,,,,,,,,,,,,,,,,,,,,1,0,340,165,1,339,ratio21_4_6_10.png,,,,,,,,,,,,
,,,,,,,,,,,,More than half,Most,Less than half,All,Few,Half,Many,None,Some,0.449166667,0.230833333,1,0,0,QQQ1,,,,,,,,English,2020-07-02_11h28.53.618,Experiment_English,3.2.4,Win32,60,,,,,,,,,,,,,,,,,,,,,1,0,340,223,1,339,ratio32_3_5_5.png,,,,,,,,,,,,
,,,,,,,,,,,,All,Many,Less than half,More than half,Some,Half,Few,None,Most,-0.515,0.350833333,1,0,0,QQQ7,,,,,,,,English,2020-07-02_11h28.53.618,Experiment_English,3.2.4,Win32,60,,,,,,,,,,,,,,,,,,,,,1,0,340,108,1,339,ratio14_2_10_6.png,,,,,,,,,,,,
,,,,,,,,,,,,Half,All,Few,Less than half,More than half,Many,None,Most,Some,0.505833333,-0.336666667,1,0,0,QQQ3,,,,,,,,English,2020-07-02_11h28.53.618,Experiment_English,3.2.4,Win32,60,,,,,,,,,,,,,,,,,,,,,1,0,340,84,1,339,ratio13_2_8_1.png,,,,,,,,,,,,
,,,,,,,,,,,,None,Many,Half,Less than half,All,Few,Some,More than half,Most,-0.528333333,0.255,1,0,0,QQQ7,,,,,,,,English,2020-07-02_11h28.53.618,Experiment_English,3.2.4,Win32,60,,,,,,,,,,,,,,,,,,,,,1,0,340,249,1,339,ratio34_3_7_20.png,,,,,,,,,,,,
,,,,,,,,,,,,Less than half,All,Some,Few,Half,None,Most,Many,More than half,0.024166667,0.3075,1,0,0,QQQ4,,,,,,,,English,2020-07-02_11h28.53.618,Experiment_English,3.2.4,Win32,60,,,,,,,,,,,,,,,,,,,,,1,0,340,280,1,339,ratio43_4_7_2.png,,,,,,,,,,,,
,,,,,,,,,,,,Less than half,More than half,Half,Some,Few,All,Many,None,Most,-0.450833333,0.301666667,1,0,0,QQQ7,,,,,,,,English,2020-07-02_11h28.53.618,Experiment_English,3.2.4,Win32,60,,,,,,,,,,,,,,,,,,,,,1,0,340,217,1,339,ratio31_15_20_5.png,,,,,,,,,,,,
,,,,,,,,,,,,Some,Few,All,Most,More than half,Half,Less than half,Many,None,0.48,-0.04,1,0,0,QQQ2,,,,,,,,English,2020-07-02_11h28.53.618,Experiment_English,3.2.4,Win32,60,,,,,,,,,,,,,,,,,,,,,1,0,340,126,1,339,ratio15_2_12_1.png,,,,,,,,,,,,
,,,,,,,,,,,,Some,Most,All,Less than half,None,Many,Few,More than half,Half,-0.420833333,-0.290833333,1,0,0,QQQ9,,,,,,,,English,2020-07-02_11h28.53.618,Experiment_English,3.2.4,Win32,60,,,,,,,,,,,,,,,,,,,,,1,0,340,224,1,339,ratio32_3_5_10.png,,,,,,,,,,,,
,,,,,,,,,,,,Some,Less than half,Many,Most,Few,All,Half,None,More than half,0.4725,0.270833333,1,0,0,QQQ1,,,,,,,,English,2020-07-02_11h28.53.618,Experiment_English,3.2.4,Win32,60,,,,,,,,,,,,,,,,,,,,,1,0,340,87,1,339,ratio13_2_8_8.png,0.295833333,-0.386666667,1,0,0,continue_button_pause,1,0,1,0,1,0
,,,,,,,,,,,,,,,,,,,,,,,,,,,,,,,,,,English,2020-07-02_11h28.53.618,Experiment_English,3.2.4,Win32,60,,,,,,,,,,,,,,,,,,,,,1,0,340,87,1,339,ratio13_2_8_8.png,,,,,,,,,,,,
,,,,,,,,,,,,None,Less than half,Most,Many,Some,Few,Half,All,More than half,-0.526666667,-0.0175,1,0,0,QQQ8,,,,,,,,English,2020-07-02_11h28.53.618,Experiment_English,3.2.4,Win32,60,,,,,,,,,,,,,,,,,,,,,1,0,340,49,1,339,ratioX0_11_11_2.png,,,,,,,,,,,,
,,,,,,,,,,,,Few,Some,None,Most,More than half,Half,All,Many,Less than half,-0.388333333,-0.2575,1,0,0,QQQ9,,,,,,,,English,2020-07-02_11h28.53.618,Experiment_English,3.2.4,Win32,60,,,,,,,,,,,,,,,,,,,,,1,0,340,8,1,339,ratio12_3_9_4.png,,,,,,,,,,,,
,,,,,,,,,,,,All,Less than half,None,Some,More than half,Most,Half,Many,Few,-0.385,-0.3125,1,0,0,QQQ9,,,,,,,,English,2020-07-02_11h28.53.618,Experiment_English,3.2.4,Win32,60,,,,,,,,,,,,,,,,,,,,,1,0,340,132,1,339,ratio15_2_12_16.png,,,,,,,,,,,,
,,,,,,,,,,,,All,More than half,Few,None,Some,Less than half,Half,Many,Most,-0.490833333,-0.0425,1,0,0,QQQ8,,,,,,,,English,2020-07-02_11h28.53.618,Experiment_English,3.2.4,Win32,60,,,,,,,,,,,,,,,,,,,,,1,0,340,209,1,339,ratio31_9_12_6.png,,,,,,,,,,,,
,,,,,,,,,,,,More than half,Many,All,Half,Less than half,Few,Some,Most,None,0.573333333,-0.010833333,1,0,0,QQQ2,,,,,,,,English,2020-07-02_11h28.53.618,Experiment_English,3.2.4,Win32,60,,,,,,,,,,,,,,,,,,,,,1,0,340,170,1,339,ratio21_6_9_8.png,,,,,,,,,,,,
,,,,,,,,,,,,All,Less than half,Few,None,More than half,Most,Half,Some,Many,0.036666667,-0.023333333,1,0,0,QQQ5,,,,,,,,English,2020-07-02_11h28.53.618,Experiment_English,3.2.4,Win32,60,,,,,,,,,,,,,,,,,,,,,1,0,340,160,1,339,ratio21_2_3_2.png,,,,,,,,,,,,
,,,,,,,,,,,,Few,None,Half,Some,Less than half,More than half,Many,Most,All,0.5225,0.264166667,1,0,0,QQQ1,,,,,,,,English,2020-07-02_11h28.53.618,Experiment_English,3.2.4,Win32,60,,,,,,,,,,,,,,,,,,,,,1,0,340,154,1,339,ratio19_2_20_11.png,,,,,,,,,,,,
,,,,,,,,,,,,Most,Less than half,Half,None,More than half,All,Some,Many,Few,0.4575,-0.285833333,1,0,0,QQQ3,,,,,,,,English,2020-07-02_11h28.53.618,Experiment_English,3.2.4,Win32,60,,,,,,,,,,,,,,,,,,,,,1,0,340,21,1,339,ratio11_2_4_10.png,,,,,,,,,,,,
,,,,,,,,,,,,None,All,Less than half,Many,Most,Half,Some,More than half,Few,-0.009166667,0.006666667,1,0,0,QQQ5,,,,,,,,English,2020-07-02_11h28.53.618,Experiment_English,3.2.4,Win32,60,,,,,,,,,,,,,,,,,,,,,1,0,340,337,1,339,ratio91_18_20_16.png,,,,,,,,,,,,
,,,,,,,,,,,,Less than half,None,Most,Some,Many,More than half,Few,Half,All,0.030833333,0.3,1,0,0,QQQ4,,,,,,,,English,2020-07-02_11h28.53.618,Experiment_English,3.2.4,Win32,60,,,,,,,,,,,,,,,,,,,,,1,0,340,295,1,339,ratio43_8_14_11.png,,,,,,,,,,,,
,,,,,,,,,,,,Most,Many,Few,All,Less than half,None,Half,Some,More than half,0.008333333,-0.005,1,0,0,QQQ5,,,,,,,,English,2020-07-02_11h28.53.618,Experiment_English,3.2.4,Win32,60,,,,,,,,,,,,,,,,,,,,,1,0,340,183,1,339,ratio23_2_5_9.png,,,,,,,,,,,,
,,,,,,,,,,,,Some,None,Most,Half,All,More than half,Less than half,Many,Few,-0.525,-0.0525,1,0,0,QQQ8,,,,,,,,English,2020-07-02_11h28.53.618,Experiment_English,3.2.4,Win32,60,,,,,,,,,,,,,,,,,,,,,1,0,340,197,1,339,ratio23_8_20_6.png,,,,,,,,,,,,
,,,,,,,,,,,,Half,All,None,Most,Some,Less than half,Many,Few,More than half,0.635,0.009166667,1,0,0,QQQ2,,,,,,,,English,2020-07-02_11h28.53.618,Experiment_English,3.2.4,Win32,60,,,,,,,,,,,,,,,,,,,,,1,0,340,58,1,339,ratioX0_19_19_4.png,,,,,,,,,,,,
,,,,,,,,,,,,Few,None,All,Many,Some,Half,More than half,Less than half,Most,0.538333333,0.256666667,1,0,0,QQQ1,,,,,,,,English,2020-07-02_11h28.53.618,Experiment_English,3.2.4,Win32,60,,,,,,,,,,,,,,,,,,,,,1,0,340,138,1,339,ratio15_3_18_17.png,,,,,,,,,,,,
,,,,,,,,,,,,All,None,Half,Many,Most,Less than half,Few,More than half,Some,-0.0275,0.003333333,1,0,0,QQQ5,,,,,,,,English,2020-07-02_11h28.53.618,Experiment_English,3.2.4,Win32,60,,,,,,,,,,,,,,,,,,,,,1,0,340,327,1,339,ratio91_9_10_11.png,,,,,,,,,,,,
,,,,,,,,,,,,Few,Half,None,Less than half,All,Most,Some,More than half,Many,0.421666667,0.3125,1,0,0,QQQ1,,,,,,,,English,2020-07-02_11h28.53.618,Experiment_English,3.2.4,Win32,60,,,,,,,,,,,,,,,,,,,,,1,0,340,116,1,339,ratio14_4_20_3.png,,,,,,,,,,,,
,,,,,,,,,,,,Half,Most,All,Less than half,More than half,Some,Few,Many,None,-0.010833333,0.303333333,1,0,0,QQQ4,,,,,,,,English,2020-07-02_11h28.53.618,Experiment_English,3.2.4,Win32,60,,,,,,,,,,,,,,,,,,,,,1,0,340,259,1,339,ratio34_6_14_19.png,,,,,,,,,,,,
,,,,,,,,,,,,Few,Many,All,Most,Half,Some,None,Less than half,More than half,0.363333333,0.270833333,1,0,0,QQQ1,,,,,,,,English,2020-07-02_11h28.53.618,Experiment_English,3.2.4,Win32,60,,,,,,,,,,,,,,,,,,,,,1,0,340,111,1,339,ratio14_3_15_3.png,,,,,,,,,,,,
,,,,,,,,,,,,Some,Half,Few,More than half,Less than half,Most,None,All,Many,0.394166667,-0.243333333,1,0,0,QQQ3,,,,,,,,English,2020-07-02_11h28.53.618,Experiment_English,3.2.4,Win32,60,,,,,,,,,,,,,,,,,,,,,1,0,340,137,1,339,ratio15_3_18_16.png,,,,,,,,,,,,
,,,,,,,,,,,,Some,Most,Half,All,More than half,None,Less than half,Few,Many,-0.415,-0.274166667,1,0,0,QQQ9,,,,,,,,English,2020-07-02_11h28.53.618,Experiment_English,3.2.4,Win32,60,,,,,,,,,,,,,,,,,,,,,1,0,340,214,1,339,ratio31_12_16_5.png,,,,,,,,,,,,
,,,,,,,,,,,,More than half,Less than half,Half,Some,Few,None,All,Most,Many,0.521666667,-0.301666667,1,0,0,QQQ3,,,,,,,,English,2020-07-02_11h28.53.618,Experiment_English,3.2.4,Win32,60,,,,,,,,,,,,,,,,,,,,,1,0,340,228,1,339,ratio32_6_10_7.png,,,,,,,,,,,,
,,,,,,,,,,,,All,Few,None,Many,Some,Half,Most,Less than half,More than half,-0.421666667,0.015,1,0,0,QQQ8,,,,,,,,English,2020-07-02_11h28.53.618,Experiment_English,3.2.4,Win32,60,,,,,,,,,,,,,,,,,,,,,1,0,340,186,1,339,ratio23_4_10_2.png,,,,,,,,,,,,
,,,,,,,,,,,,Half,Less than half,More than half,All,None,Few,Many,Some,Most,0.413333333,0.038333333,1,0,0,QQQ2,,,,,,,,English,2020-07-02_11h28.53.618,Experiment_English,3.2.4,Win32,60,,,,,,,,,,,,,,,,,,,,,1,0,340,16,1,339,ratio12_5_15_6.png,,,,,,,,,,,,
,,,,,,,,,,,,Half,More than half,All,None,Many,Less than half,Few,Most,Some,0.555,-0.249166667,1,0,0,QQQ3,,,,,,,,English,2020-07-02_11h28.53.618,Experiment_English,3.2.4,Win32,60,,,,,,,,,,,,,,,,,,,,,1,0,340,45,1,339,ratioX0_8_8_3.png,,,,,,,,,,,,
,,,,,,,,,,,,All,Less than half,Many,Some,Few,Most,None,More than half,Half,0.016666667,0.011666667,1,0,0,QQQ5,,,,,,,,English,2020-07-02_11h28.53.618,Experiment_English,3.2.4,Win32,60,,,,,,,,,,,,,,,,,,,,,1,0,340,85,1,339,ratio13_2_8_5.png,,,,,,,,,,,,
,,,,,,,,,,,,Most,All,Some,Few,None,Less than half,Half,Many,More than half,-0.406666667,0.243333333,1,0,0,QQQ7,,,,,,,,English,2020-07-02_11h28.53.618,Experiment_English,3.2.4,Win32,60,,,,,,,,,,,,,,,,,,,,,1,0,340,30,1,339,ratio11_6_12_6.png,,,,,,,,,,,,
,,,,,,,,,,,,None,All,Many,More than half,Few,Half,Less than half,Most,Some,-0.041666667,-0.283333333,1,0,0,QQQ6,,,,,,,,English,2020-07-02_11h28.53.618,Experiment_English,3.2.4,Win32,60,,,,,,,,,,,,,,,,,,,,,1,0,340,239,1,339,ratio32_12_20_10.png,,,,,,,,,,,,
,,,,,,,,,,,,Few,Most,All,None,Less than half,Half,Many,Some,More than half,0.4225,-0.04,1,0,0,QQQ2,,,,,,,,English,2020-07-02_11h28.53.618,Experiment_English,3.2.4,Win32,60,,,,,,,,,,,,,,,,,,,,,1,0,340,201,1,339,ratio31_3_4_7.png,,,,,,,,,,,,
,,,,,,,,,,,,Most,Half,None,Many,All,Few,Some,Less than half,More than half,0.4475,0.2425,1,0,0,QQQ1,,,,,,,,English,2020-07-02_11h28.53.618,Experiment_English,3.2.4,Win32,60,,,,,,,,,,,,,,,,,,,,,1,0,340,273,1,339,ratio41_12_15_8.png,,,,,,,,,,,,
,,,,,,,,,,,,Some,All,Most,Many,Less than half,None,More than half,Half,Few,0.533333333,-0.016666667,1,0,0,QQQ2,,,,,,,,English,2020-07-02_11h28.53.618,Experiment_English,3.2.4,Win32,60,,,,,,,,,,,,,,,,,,,,,1,0,340,57,1,339,ratioX0_18_18_1.png,,,,,,,,,,,,
,,,,,,,,,,,,All,None,Some,Few,Less than half,Many,Most,Half,More than half,-0.025,0.330833333,1,0,0,QQQ4,,,,,,,,English,2020-07-02_11h28.53.618,Experiment_English,3.2.4,Win32,60,,,,,,,,,,,,,,,,,,,,,1,0,340,3,1,339,ratio12_2_6_3.png,,,,,,,,,,,,
,,,,,,,,,,,,Less than half,Most,All,Few,Half,None,Some,More than half,Many,0.451666667,-0.295833333,1,0,0,QQQ3,,,,,,,,English,2020-07-02_11h28.53.618,Experiment_English,3.2.4,Win32,60,,,,,,,,,,,,,,,,,,,,,1,0,340,53,1,339,ratioX0_14_14_8.png,,,,,,,,,,,,
,,,,,,,,,,,,Few,None,Most,Half,Some,Many,All,More than half,Less than half,-0.014166667,-0.014166667,1,0,0,QQQ5,,,,,,,,English,2020-07-02_11h28.53.618,Experiment_English,3.2.4,Win32,60,,,,,,,,,,,,,,,,,,,,,1,0,340,196,1,339,ratio23_8_20_5.png,,,,,,,,,,,,
,,,,,,,,,,,,Half,Less than half,More than half,All,None,Most,Some,Many,Few,-0.015833333,-0.024166667,1,0,0,QQQ5,,,,,,,,English,2020-07-02_11h28.53.618,Experiment_English,3.2.4,Win32,60,,,,,,,,,,,,,,,,,,,,,1,0,340,69,1,339,ratio0Y_0_11_6.png,0.2675,-0.388333333,1,0,0,continue_button_pause,1,0,1,0,1,0
,,,,,,,,,,,,,,,,,,,,,,,,,,,,,,,,,,English,2020-07-02_11h28.53.618,Experiment_English,3.2.4,Win32,60,,,,,,,,,,,,,,,,,,,,,1,0,340,69,1,339,ratio0Y_0_11_6.png,,,,,,,,,,,,
,,,,,,,,,,,,More than half,Most,Half,All,Few,Less than half,None,Many,Some,-0.5225,-0.040833333,1,0,0,QQQ8,,,,,,,,English,2020-07-02_11h28.53.618,Experiment_English,3.2.4,Win32,60,,,,,,,,,,,,,,,,,,,,,1,0,340,292,1,339,ratio43_8_14_6.png,,,,,,,,,,,,
,,,,,,,,,,,,None,More than half,Most,All,Few,Half,Less than half,Many,Some,-0.099166667,-0.0425,1,0,0,QQQ5,,,,,,,,English,2020-07-02_11h28.53.618,Experiment_English,3.2.4,Win32,60,,,,,,,,,,,,,,,,,,,,,1,0,340,101,1,339,ratio14_1_5_7.png,,,,,,,,,,,,
,,,,,,,,,,,,Some,All,More than half,Less than half,Many,Few,Most,Half,None,-0.020833333,-0.255,1,0,0,QQQ6,,,,,,,,English,2020-07-02_11h28.53.618,Experiment_English,3.2.4,Win32,60,,,,,,,,,,,,,,,,,,,,,1,0,340,144,1,339,ratio19_1_10_11.png,,,,,,,,,,,,
,,,,,,,,,,,,All,Most,None,Few,Less than half,Many,Some,Half,More than half,-0.415833333,0.014166667,1,0,0,QQQ8,,,,,,,,English,2020-07-02_11h28.53.618,Experiment_English,3.2.4,Win32,60,,,,,,,,,,,,,,,,,,,,,1,0,340,226,1,339,ratio32_6_10_5.png,,,,,,,,,,,,
,,,,,,,,,,,,Few,Half,More than half,All,Some,Most,Less than half,Many,None,-0.459166667,-0.268333333,1,0,0,QQQ9,,,,,,,,English,2020-07-02_11h28.53.618,Experiment_English,3.2.4,Win32,60,,,,,,,,,,,,,,,,,,,,,1,0,340,68,1,339,ratio0Y_0_11_3.png,,,,,,,,,,,,
,,,,,,,,,,,,Less than half,More than half,Some,Most,Many,All,Few,None,Half,0.015833333,0.255833333,1,0,0,QQQ4,,,,,,,,English,2020-07-02_11h28.53.618,Experiment_English,3.2.4,Win32,60,,,,,,,,,,,,,,,,,,,,,1,0,340,339,1,339,ratio91_18_20_19.png,,,,,,,,,,,,
,,,,,,,,,,,,Less than half,Half,Few,Most,None,All,Some,More than half,Many,-0.37,0.243333333,1,0,0,QQQ7,,,,,,,,English,2020-07-02_11h28.53.618,Experiment_English,3.2.4,Win32,60,,,,,,,,,,,,,,,,,,,,,1,0,340,243,1,339,ratio34_3_7_8.png,,,,,,,,,,,,
,,,,,,,,,,,,Half,More than half,None,Some,Many,Few,Less than half,Most,All,0.484166667,0.015833333,1,0,0,QQQ2,,,,,,,,English,2020-07-02_11h28.53.618,Experiment_English,3.2.4,Win32,60,,,,,,,,,,,,,,,,,,,,,1,0,340,161,1,339,ratio21_2_3_8.png,,,,,,,,,,,,
,,,,,,,,,,,,Many,None,Few,More than half,Most,Half,All,Some,Less than half,0.4625,0.248333333,1,0,0,QQQ1,,,,,,,,English,2020-07-02_11h28.53.618,Experiment_English,3.2.4,Win32,60,,,,,,,,,,,,,,,,,,,,,1,0,340,225,1,339,ratio32_6_10_4.png,,,,,,,,,,,,
,,,,,,,,,,,,Some,More than half,Few,None,Less than half,Most,Many,Half,All,0.428333333,-0.3,1,0,0,QQQ3,,,,,,,,English,2020-07-02_11h28.53.618,Experiment_English,3.2.4,Win32,60,,,,,,,,,,,,,,,,,,,,,1,0,340,128,1,339,ratio15_2_12_8.png,,,,,,,,,,,,
,,,,,,,,,,,,Most,Few,All,None,Half,More than half,Some,Less than half,Many,0.4175,-0.005,1,0,0,QQQ2,,,,,,,,English,2020-07-02_11h28.53.618,Experiment_English,3.2.4,Win32,60,,,,,,,,,,,,,,,,,,,,,1,0,340,296,1,339,ratio43_8_14_12.png,,,,,,,,,,,,
,,,,,,,,,,,,Most,Some,Few,Less than half,All,Half,None,More than half,Many,0.416666667,-0.255833333,1,0,0,QQQ3,,,,,,,,English,2020-07-02_11h28.53.618,Experiment_English,3.2.4,Win32,60,,,,,,,,,,,,,,,,,,,,,1,0,340,80,1,339,ratio13_1_4_3.png,,,,,,,,,,,,
,,,,,,,,,,,,None,Many,Most,Half,Few,Some,Less than half,More than half,All,0.145,-0.028333333,1,0,0,QQQ5,,,,,,,,English,2020-07-02_11h28.53.618,Experiment_English,3.2.4,Win32,60,,,,,,,,,,,,,,,,,,,,,1,0,340,120,1,339,ratio15_1_6_1.png,,,,,,,,,,,,
,,,,,,,,,,,,More than half,Half,Some,Few,None,Less than half,Many,All,Most,0.433333333,-0.285833333,1,0,0,QQQ3,,,,,,,,English,2020-07-02_11h28.53.618,Experiment_English,3.2.4,Win32,60,,,,,,,,,,,,,,,,,,,,,1,0,340,187,1,339,ratio23_4_10_5.png,,,,,,,,,,,,
,,,,,,,,,,,,Half,Less than half,None,Many,All,Few,More than half,Some,Most,-0.0775,-0.033333333,1,0,0,QQQ5,,,,,,,,English,2020-07-02_11h28.53.618,Experiment_English,3.2.4,Win32,60,,,,,,,,,,,,,,,,,,,,,1,0,340,52,1,339,ratioX0_13_13_10.png,,,,,,,,,,,,
,,,,,,,,,,,,None,More than half,Less than half,Half,All,Few,Most,Some,Many,0.505,-0.329166667,1,0,0,QQQ3,,,,,,,,English,2020-07-02_11h28.53.618,Experiment_English,3.2.4,Win32,60,,,,,,,,,,,,,,,,,,,,,1,0,340,13,1,339,ratio12_5_15_3.png,,,,,,,,,,,,
,,,,,,,,,,,,Some,None,Few,More than half,Less than half,Most,All,Many,Half,0.518333333,-0.276666667,1,0,0,QQQ3,,,,,,,,English,2020-07-02_11h28.53.618,Experiment_English,3.2.4,Win32,60,,,,,,,,,,,,,,,,,,,,,1,0,340,141,1,339,ratio19_1_10_2.png,,,,,,,,,,,,
,,,,,,,,,,,,Half,Less than half,Most,All,Few,None,Many,More than half,Some,0.391666667,0.263333333,1,0,0,QQQ1,,,,,,,,English,2020-07-02_11h28.53.618,Experiment_English,3.2.4,Win32,60,,,,,,,,,,,,,,,,,,,,,1,0,340,282,1,339,ratio43_4_7_7.png,,,,,,,,,,,,
,,,,,,,,,,,,Few,Half,More than half,Many,All,Some,Less than half,Most,None,-0.509166667,-0.3125,1,0,0,QQQ9,,,,,,,,English,2020-07-02_11h28.53.618,Experiment_English,3.2.4,Win32,60,,,,,,,,,,,,,,,,,,,,,1,0,340,70,1,339,ratio0Y_0_12_5.png,,,,,,,,,,,,
,,,,,,,,,,,,Half,Less than half,More than half,None,Many,All,Some,Most,Few,-0.404166667,-0.310833333,1,0,0,QQQ9,,,,,,,,English,2020-07-02_11h28.53.618,Experiment_English,3.2.4,Win32,60,,,,,,,,,,,,,,,,,,,,,1,0,340,145,1,339,ratio19_1_10_15.png,,,,,,,,,,,,
,,,,,,,,,,,,All,None,Many,Half,More than half,Few,Some,Less than half,Most,-0.4575,-0.315,1,0,0,QQQ9,,,,,,,,English,2020-07-02_11h28.53.618,Experiment_English,3.2.4,Win32,60,,,,,,,,,,,,,,,,,,,,,1,0,340,329,1,339,ratio91_9_10_20.png,,,,,,,,,,,,
,,,,,,,,,,,,Few,None,Some,Most,More than half,Many,All,Less than half,Half,-0.55,-0.0125,1,0,0,QQQ8,,,,,,,,English,2020-07-02_11h28.53.618,Experiment_English,3.2.4,Win32,60,,,,,,,,,,,,,,,,,,,,,1,0,340,2,1,339,ratio12_1_3_10.png,,,,,,,,,,,,
,,,,,,,,,,,,Less than half,More than half,Few,Most,Many,None,All,Half,Some,-0.466666667,-0.013333333,1,0,0,QQQ8,,,,,,,,English,2020-07-02_11h28.53.618,Experiment_English,3.2.4,Win32,60,,,,,,,,,,,,,,,,,,,,,1,0,340,252,1,339,ratio34_6_14_3.png,,,,,,,,,,,,
,,,,,,,,,,,,Few,Most,All,More than half,Many,Some,Half,None,Less than half,-0.41,0.285,1,0,0,QQQ7,,,,,,,,English,2020-07-02_11h28.53.618,Experiment_English,3.2.4,Win32,60,,,,,,,,,,,,,,,,,,,,,1,0,340,28,1,339,ratio11_5_10_9.png,,,,,,,,,,,,
,,,,,,,,,,,,Many,None,Half,More than half,All,Less than half,Most,Few,Some,-0.025,0.260833333,1,0,0,QQQ4,,,,,,,,English,2020-07-02_11h28.53.618,Experiment_English,3.2.4,Win32,60,,,,,,,,,,,,,,,,,,,,,1,0,340,283,1,339,ratio43_4_7_8.png,,,,,,,,,,,,
,,,,,,,,,,,,Few,Many,Most,All,Some,None,More than half,Less than half,Half,0.044166667,-0.326666667,1,0,0,QQQ6,,,,,,,,English,2020-07-02_11h28.53.618,Experiment_English,3.2.4,Win32,60,,,,,,,,,,,,,,,,,,,,,1,0,340,78,1,339,ratio0Y_0_19_1.png,,,,,,,,,,,,
,,,,,,,,,,,,None,Some,Many,Most,Half,More than half,Less than half,Few,All,0.0075,-0.2975,1,0,0,QQQ6,,,,,,,,English,2020-07-02_11h28.53.618,Experiment_English,3.2.4,Win32,60,,,,,,,,,,,,,,,,,,,,,1,0,340,33,1,339,ratio11_7_14_8.png,,,,,,,,,,,,
,,,,,,,,,,,,Some,Most,Few,Half,More than half,All,Less than half,Many,None,-0.4675,-0.300833333,1,0,0,QQQ9,,,,,,,,English,2020-07-02_11h28.53.618,Experiment_English,3.2.4,Win32,60,,,,,,,,,,,,,,,,,,,,,1,0,340,61,1,339,ratio0Y_0_4_7.png,,,,,,,,,,,,
,,,,,,,,,,,,Less than half,Half,Most,Many,Some,All,More than half,Few,None,-0.4825,-0.313333333,1,0,0,QQQ9,,,,,,,,English,2020-07-02_11h28.53.618,Experiment_English,3.2.4,Win32,60,,,,,,,,,,,,,,,,,,,,,1,0,340,334,1,339,ratio91_18_20_9.png,,,,,,,,,,,,
,,,,,,,,,,,,Half,All,Few,Many,More than half,Most,Less than half,Some,None,-0.490833333,0.270833333,1,0,0,QQQ7,,,,,,,,English,2020-07-02_11h28.53.618,Experiment_English,3.2.4,Win32,60,,,,,,,,,,,,,,,,,,,,,1,0,340,112,1,339,ratio14_3_15_4.png,,,,,,,,,,,,
,,,,,,,,,,,,All,Half,Some,Few,None,Most,Less than half,More than half,Many,0.0275,0.295833333,1,0,0,QQQ4,,,,,,,,English,2020-07-02_11h28.53.618,Experiment_English,3.2.4,Win32,60,,,,,,,,,,,,,,,,,,,,,1,0,340,122,1,339,ratio15_1_6_7.png,,,,,,,,,,,,
,,,,,,,,,,,,None,Less than half,Many,Half,Few,Most,All,More than half,Some,-0.08,0.3,1,0,0,QQQ4,,,,,,,,English,2020-07-02_11h28.53.618,Experiment_English,3.2.4,Win32,60,,,,,,,,,,,,,,,,,,,,,1,0,340,166,1,339,ratio21_6_9_1.png,,,,,,,,,,,,
,,,,,,,,,,,,Less than half,Few,Some,Most,More than half,Half,None,Many,All,0.5425,0.335,1,0,0,QQQ1,,,,,,,,English,2020-07-02_11h28.53.618,Experiment_English,3.2.4,Win32,60,,,,,,,,,,,,,,,,,,,,,1,0,340,11,1,339,ratio12_4_12_7.png,,,,,,,,,,,,
,,,,,,,,,,,,More than half,Some,Less than half,Few,Most,None,All,Many,Half,0.403333333,-0.2925,1,0,0,QQQ3,,,,,,,,English,2020-07-02_11h28.53.618,Experiment_English,3.2.4,Win32,60,,,,,,,,,,,,,,,,,,,,,1,0,340,14,1,339,ratio12_5_15_4.png,0.251666667,-0.371666667,1,0,0,continue_button_pause,1,0,1,0,1,0
,,,,,,,,,,,,,,,,,,,,,,,,,,,,,,,,,,English,2020-07-02_11h28.53.618,Experiment_English,3.2.4,Win32,60,,,,,,,,,,,,,,,,,,,,,1,0,340,14,1,339,ratio12_5_15_4.png,,,,,,,,,,,,
,,,,,,,,,,,,Many,Some,Most,All,None,More than half,Half,Less than half,Few,-0.01,-0.288333333,1,0,0,QQQ6,,,,,,,,English,2020-07-02_11h28.53.618,Experiment_English,3.2.4,Win32,60,,,,,,,,,,,,,,,,,,,,,1,0,340,179,1,339,ratio21_12_18_8.png,,,,,,,,,,,,
,,,,,,,,,,,,Few,Less than half,None,More than half,All,Most,Some,Half,Many,0.470833333,-0.275833333,1,0,0,QQQ3,,,,,,,,English,2020-07-02_11h28.53.618,Experiment_English,3.2.4,Win32,60,,,,,,,,,,,,,,,,,,,,,1,0,340,76,1,339,ratio0Y_0_17_10.png,,,,,,,,,,,,
,,,,,,,,,,,,More than half,Most,None,Less than half,Some,All,Few,Half,Many,0.43,0.0125,1,0,0,QQQ2,,,,,,,,English,2020-07-02_11h28.53.618,Experiment_English,3.2.4,Win32,60,,,,,,,,,,,,,,,,,,,,,1,0,340,271,1,339,ratio41_12_15_6.png,,,,,,,,,,,,
,,,,,,,,,,,,Some,Half,None,Few,Less than half,All,Many,Most,More than half,-0.021666667,-0.028333333,1,0,0,QQQ5,,,,,,,,English,2020-07-02_11h28.53.618,Experiment_English,3.2.4,Win32,60,,,,,,,,,,,,,,,,,,,,,1,0,340,39,1,339,ratio11_10_20_6.png,,,,,,,,,,,,
,,,,,,,,,,,,Less than half,None,Some,Many,All,More than half,Half,Most,Few,0.4725,0.009166667,1,0,0,QQQ2,,,,,,,,English,2020-07-02_11h28.53.618,Experiment_English,3.2.4,Win32,60,,,,,,,,,,,,,,,,,,,,,1,0,340,64,1,339,ratio0Y_0_7_1.png,,,,,,,,,,,,
,,,,,,,,,,,,Half,None,All,Few,Some,More than half,Less than half,Most,Many,-0.419166667,-0.024166667,1,0,0,QQQ8,,,,,,,,English,2020-07-02_11h28.53.618,Experiment_English,3.2.4,Win32,60,,,,,,,,,,,,,,,,,,,,,1,0,340,202,1,339,ratio31_3_4_8.png,,,,,,,,,,,,
,,,,,,,,,,,,Most,None,Some,All,Half,More than half,Few,Many,Less than half,-0.425833333,-0.3325,1,0,0,QQQ9,,,,,,,,English,2020-07-02_11h28.53.618,Experiment_English,3.2.4,Win32,60,,,,,,,,,,,,,,,,,,,,,1,0,340,244,1,339,ratio34_3_7_9.png,,,,,,,,,,,,
,,,,,,,,,,,,More than half,None,Some,Many,All,Few,Less than half,Half,Most,0.01,-0.301666667,1,0,0,QQQ6,,,,,,,,English,2020-07-02_11h28.53.618,Experiment_English,3.2.4,Win32,60,,,,,,,,,,,,,,,,,,,,,1,0,340,130,1,339,ratio15_2_12_12.png,,,,,,,,,,,,
,,,,,,,,,,,,Few,Half,Most,Less than half,More than half,All,Many,None,Some,0.4525,0.225833333,1,0,0,QQQ1,,,,,,,,English,2020-07-02_11h28.53.618,Experiment_English,3.2.4,Win32,60,,,,,,,,,,,,,,,,,,,,,1,0,340,140,1,339,ratio19_1_10_1.png,,,,,,,,,,,,
,,,,,,,,,,,,Some,None,Few,Half,Less than half,More than half,Most,Many,All,-0.411666667,0.31,1,0,0,QQQ7,,,,,,,,English,2020-07-02_11h28.53.618,Experiment_English,3.2.4,Win32,60,,,,,,,,,,,,,,,,,,,,,1,0,340,275,1,339,ratio41_16_20_2.png,,,,,,,,,,,,
,,,,,,,,,,,,Many,All,Few,Half,Less than half,Most,None,Some,More than half,0.534166667,0.01,1,0,0,QQQ2,,,,,,,,English,2020-07-02_11h28.53.618,Experiment_English,3.2.4,Win32,60,,,,,,,,,,,,,,,,,,,,,1,0,340,51,1,339,ratioX0_12_12_9.png,,,,,,,,,,,,
,,,,,,,,,,,,None,Less than half,More than half,Half,Some,Few,Many,Most,All,0.380833333,-0.049166667,1,0,0,QQQ2,,,,,,,,English,2020-07-02_11h28.53.618,Experiment_English,3.2.4,Win32,60,,,,,,,,,,,,,,,,,,,,,1,0,340,35,1,339,ratio11_8_16_10.png,,,,,,,,,,,,
,,,,,,,,,,,,Most,More than half,Few,All,None,Less than half,Half,Many,Some,0.095833333,-0.021666667,1,0,0,QQQ5,,,,,,,,English,2020-07-02_11h28.53.618,Experiment_English,3.2.4,Win32,60,,,,,,,,,,,,,,,,,,,,,1,0,340,77,1,339,ratio0Y_0_18_3.png,,,,,,,,,,,,
,,,,,,,,,,,,Some,Less than half,Few,Most,All,None,Half,Many,More than half,0.51,0.020833333,1,0,0,QQQ2,,,,,,,,English,2020-07-02_11h28.53.618,Experiment_English,3.2.4,Win32,60,,,,,,,,,,,,,,,,,,,,,1,0,340,191,1,339,ratio23_6_15_7.png,,,,,,,,,,,,
,,,,,,,,,,,,Most,Half,Less than half,Many,Few,None,More than half,Some,All,-0.449166667,0.299166667,1,0,0,QQQ7,,,,,,,,English,2020-07-02_11h28.53.618,Experiment_English,3.2.4,Win32,60,,,,,,,,,,,,,,,,,,,,,1,0,340,171,1,339,ratio21_8_12_4.png,,,,,,,,,,,,
,,,,,,,,,,,,Few,Less than half,Most,Many,More than half,Half,All,Some,None,-0.013333333,-0.009166667,1,0,0,QQQ5,,,,,,,,English,2020-07-02_11h28.53.618,Experiment_English,3.2.4,Win32,60,,,,,,,,,,,,,,,,,,,,,1,0,340,284,1,339,ratio43_4_7_11.png,,,,,,,,,,,,
,,,,,,,,,,,,Some,More than half,Most,All,None,Less than half,Many,Half,Few,0.033333333,-0.269166667,1,0,0,QQQ6,,,,,,,,English,2020-07-02_11h28.53.618,Experiment_English,3.2.4,Win32,60,,,,,,,,,,,,,,,,,,,,,1,0,340,257,1,339,ratio34_6_14_12.png,,,,,,,,,,,,
,,,,,,,,,,,,All,Most,Half,Many,Few,None,Some,More than half,Less than half,0.53,0.015833333,1,0,0,QQQ2,,,,,,,,English,2020-07-02_11h28.53.618,Experiment_English,3.2.4,Win32,60,,,,,,,,,,,,,,,,,,,,,1,0,340,265,1,339,ratio41_8_10_1.png,,,,,,,,,,,,
,,,,,,,,,,,,Few,All,Many,Most,More than half,Less than half,Half,None,Some,0.0125,0.269166667,1,0,0,QQQ4,,,,,,,,English,2020-07-02_11h28.53.618,Experiment_English,3.2.4,Win32,60,,,,,,,,,,,,,,,,,,,,,1,0,340,338,1,339,ratio91_18_20_18.png,,,,,,,,,,,,
,,,,,,,,,,,,Half,Some,Most,Few,All,Less than half,None,More than half,Many,0.111666667,-0.3225,1,0,0,QQQ6,,,,,,,,English,2020-07-02_11h28.53.618,Experiment_English,3.2.4,Win32,60,,,,,,,,,,,,,,,,,,,,,1,0,340,1,1,339,ratio12_1_3_7.png,,,,,,,,,,,,
,,,,,,,,,,,,Most,Few,Some,All,More than half,Half,Less than half,None,Many,0.433333333,0.29,1,0,0,QQQ1,,,,,,,,English,2020-07-02_11h28.53.618,Experiment_English,3.2.4,Win32,60,,,,,,,,,,,,,,,,,,,,,1,0,340,301,1,339,ratio51_5_6_4.png,,,,,,,,,,,,
,,,,,,,,,,,,Many,Few,Some,Most,More than half,Half,Less than half,All,None,-0.055833333,-0.010833333,1,0,0,QQQ5,,,,,,,,English,2020-07-02_11h28.53.618,Experiment_English,3.2.4,Win32,60,,,,,,,,,,,,,,,,,,,,,1,0,340,232,1,339,ratio32_9_15_8.png,,,,,,,,,,,,
,,,,,,,,,,,,Most,None,Many,Less than half,All,Some,Half,More than half,Few,0.5025,-0.004166667,1,0,0,QQQ2,,,,,,,,English,2020-07-02_11h28.53.618,Experiment_English,3.2.4,Win32,60,,,,,,,,,,,,,,,,,,,,,1,0,340,67,1,339,ratio0Y_0_10_10.png,,,,,,,,,,,,
,,,,,,,,,,,,Less than half,All,Few,Some,None,Many,Half,More than half,Most,-0.415833333,0.006666667,1,0,0,QQQ8,,,,,,,,English,2020-07-02_11h28.53.618,Experiment_English,3.2.4,Win32,60,,,,,,,,,,,,,,,,,,,,,1,0,340,222,1,339,ratio32_3_5_4.png,,,,,,,,,,,,
,,,,,,,,,,,,Most,Few,Half,Some,None,All,Many,More than half,Less than half,0.008333333,-0.350833333,1,0,0,QQQ6,,,,,,,,English,2020-07-02_11h28.53.618,Experiment_English,3.2.4,Win32,60,,,,,,,,,,,,,,,,,,,,,1,0,340,55,1,339,ratioX0_16_16_3.png,,,,,,,,,,,,
,,,,,,,,,,,,All,Many,None,Half,Less than half,More than half,Some,Most,Few,-0.416666667,0.010833333,1,0,0,QQQ8,,,,,,,,English,2020-07-02_11h28.53.618,Experiment_English,3.2.4,Win32,60,,,,,,,,,,,,,,,,,,,,,1,0,340,200,1,339,ratio31_3_4_4.png,,,,,,,,,,,,
,,,,,,,,,,,,Most,Many,All,Less than half,None,Few,Some,More than half,Half,-0.551666667,0.026666667,1,0,0,QQQ8,,,,,,,,English,2020-07-02_11h28.53.618,Experiment_English,3.2.4,Win32,60,,,,,,,,,,,,,,,,,,,,,1,0,340,227,1,339,ratio32_6_10_6.png,,,,,,,,,,,,
,,,,,,,,,,,,Few,Half,Less than half,Some,Most,All,Many,More than half,None,-0.555833333,0,1,0,0,QQQ8,,,,,,,,English,2020-07-02_11h28.53.618,Experiment_English,3.2.4,Win32,60,,,,,,,,,,,,,,,,,,,,,1,0,340,230,1,339,ratio32_9_15_1.png,,,,,,,,,,,,
,,,,,,,,,,,,More than half,Less than half,None,Some,Few,Half,All,Many,Most,0.569166667,-0.0175,1,0,0,QQQ2,,,,,,,,English,2020-07-02_11h28.53.618,Experiment_English,3.2.4,Win32,60,,,,,,,,,,,,,,,,,,,,,1,0,340,184,1,339,ratio23_2_5_10.png,,,,,,,,,,,,
,,,,,,,,,,,,Many,Less than half,All,None,More than half,Most,Few,Some,Half,0.046666667,-0.286666667,1,0,0,QQQ6,,,,,,,,English,2020-07-02_11h28.53.618,Experiment_English,3.2.4,Win32,60,,,,,,,,,,,,,,,,,,,,,1,0,340,276,1,339,ratio41_16_20_4.png,,,,,,,,,,,,
,,,,,,,,,,,,Many,Some,Few,Less than half,Most,None,All,Half,More than half,0.01,0.2775,1,0,0,QQQ4,,,,,,,,English,2020-07-02_11h28.53.618,Experiment_English,3.2.4,Win32,60,,,,,,,,,,,,,,,,,,,,,1,0,340,97,1,339,ratio13_5_20_2.png,,,,,,,,,,,,
,,,,,,,,,,,,All,More than half,Less than half,Some,None,Half,Most,Many,Few,0.511666667,-0.3175,1,0,0,QQQ3,,,,,,,,English,2020-07-02_11h28.53.618,Experiment_English,3.2.4,Win32,60,,,,,,,,,,,,,,,,,,,,,1,0,340,18,1,339,ratio12_6_18_7.png,,,,,,,,,,,,
,,,,,,,,,,,,More than half,Many,None,Few,Most,Less than half,Half,All,Some,0.024166667,-0.3,1,0,0,QQQ6,,,,,,,,English,2020-07-02_11h28.53.618,Experiment_English,3.2.4,Win32,60,,,,,,,,,,,,,,,,,,,,,1,0,340,185,1,339,ratio23_4_10_1.png,,,,,,,,,,,,
,,,,,,,,,,,,Few,Some,All,More than half,Most,None,Many,Less than half,Half,0.4475,0.285833333,1,0,0,QQQ1,,,,,,,,English,2020-07-02_11h28.53.618,Experiment_English,3.2.4,Win32,60,,,,,,,,,,,,,,,,,,,,,1,0,340,148,1,339,ratio19_1_10_19.png,0.376666667,-0.406666667,1,0,0,continue_button_pause,1,0,1,0,1,0
,,,,,,,,,,,,,,,,,,,,,,,,,,,,,,,,,,English,2020-07-02_11h28.53.618,Experiment_English,3.2.4,Win32,60,,,,,,,,,,,,,,,,,,,,,1,0,340,148,1,339,ratio19_1_10_19.png,,,,,,,,,,,,
,,,,,,,,,,,,Less than half,None,Many,Most,More than half,Some,All,Half,Few,-0.573333333,0.296666667,1,0,0,QQQ7,,,,,,,,English,2020-07-02_11h28.53.618,Experiment_English,3.2.4,Win32,60,,,,,,,,,,,,,,,,,,,,,1,0,340,46,1,339,ratioX0_9_9_3.png,,,,,,,,,,,,
,,,,,,,,,,,,Less than half,More than half,Few,Half,Most,Some,All,Many,None,-0.001666667,0.24,1,0,0,QQQ4,,,,,,,,English,2020-07-02_11h28.53.618,Experiment_English,3.2.4,Win32,60,,,,,,,,,,,,,,,,,,,,,1,0,340,245,1,339,ratio34_3_7_10.png,,,,,,,,,,,,
,,,,,,,,,,,,Some,More than half,Less than half,Half,Few,All,Most,Many,None,-0.456666667,-0.265,1,0,0,QQQ9,,,,,,,,English,2020-07-02_11h28.53.618,Experiment_English,3.2.4,Win32,60,,,,,,,,,,,,,,,,,,,,,1,0,340,63,1,339,ratio0Y_0_6_8.png,,,,,,,,,,,,
,,,,,,,,,,,,All,Many,None,More than half,Some,Half,Few,Most,Less than half,-0.4975,0.313333333,1,0,0,QQQ7,,,,,,,,English,2020-07-02_11h28.53.618,Experiment_English,3.2.4,Win32,60,,,,,,,,,,,,,,,,,,,,,1,0,340,102,1,339,ratio14_1_5_8.png,,,,,,,,,,,,
,,,,,,,,,,,,Few,Less than half,None,Half,All,Some,More than half,Many,Most,-0.015,0.299166667,1,0,0,QQQ4,,,,,,,,English,2020-07-02_11h28.53.618,Experiment_English,3.2.4,Win32,60,,,,,,,,,,,,,,,,,,,,,1,0,340,38,1,339,ratio11_10_20_5.png,,,,,,,,,,,,
,,,,,,,,,,,,Few,Many,More than half,Less than half,Most,Some,Half,All,None,0.003333333,0.305,1,0,0,QQQ4,,,,,,,,English,2020-07-02_11h28.53.618,Experiment_English,3.2.4,Win32,60,,,,,,,,,,,,,,,,,,,,,1,0,340,242,1,339,ratio34_3_7_6.png,,,,,,,,,,,,
,,,,,,,,,,,,Half,Less than half,Most,All,More than half,None,Some,Few,Many,0.378333333,0.254166667,1,0,0,QQQ1,,,,,,,,English,2020-07-02_11h28.53.618,Experiment_English,3.2.4,Win32,60,,,,,,,,,,,,,,,,,,,,,1,0,340,237,1,339,ratio32_12_20_5.png,,,,,,,,,,,,
,,,,,,,,,,,,Less than half,More than half,Most,Many,Some,None,Half,Few,All,0.375,-0.289166667,1,0,0,QQQ3,,,,,,,,English,2020-07-02_11h28.53.618,Experiment_English,3.2.4,Win32,60,,,,,,,,,,,,,,,,,,,,,1,0,340,333,1,339,ratio91_18_20_6.png,,,,,,,,,,,,
,,,,,,,,,,,,Less than half,Many,Some,None,More than half,Most,All,Few,Half,0.511666667,-0.3,1,0,0,QQQ3,,,,,,,,English,2020-07-02_11h28.53.618,Experiment_English,3.2.4,Win32,60,,,,,,,,,,,,,,,,,,,,,1,0,340,15,1,339,ratio12_5_15_5.png,,,,,,,,,,,,
,,,,,,,,,,,,None,Few,Less than half,Some,Half,Many,All,More than half,Most,0.008333333,-0.306666667,1,0,0,QQQ6,,,,,,,,English,2020-07-02_11h28.53.618,Experiment_English,3.2.4,Win32,60,,,,,,,,,,,,,,,,,,,,,1,0,340,215,1,339,ratio31_12_16_8.png,,,,,,,,,,,,
,,,,,,,,,,,,Half,None,Many,More than half,All,Some,Less than half,Few,Most,0.5475,-0.006666667,1,0,0,QQQ2,,,,,,,,English,2020-07-02_11h28.53.618,Experiment_English,3.2.4,Win32,60,,,,,,,,,,,,,,,,,,,,,1,0,340,75,1,339,ratio0Y_0_16_10.png,,,,,,,,,,,,
,,,,,,,,,,,,All,Some,Half,More than half,None,Less than half,Most,Few,Many,-0.4275,0.2725,1,0,0,QQQ7,,,,,,,,English,2020-07-02_11h28.53.618,Experiment_English,3.2.4,Win32,60,,,,,,,,,,,,,,,,,,,,,1,0,340,319,1,339,ratio51_15_18_20.png,,,,,,,,,,,,
,,,,,,,,,,,,All,Most,Less than half,Many,Some,Few,More than half,None,Half,0.450833333,-0.296666667,1,0,0,QQQ3,,,,,,,,English,2020-07-02_11h28.53.618,Experiment_English,3.2.4,Win32,60,,,,,,,,,,,,,,,,,,,,,1,0,340,188,1,339,ratio23_4_10_6.png,,,,,,,,,,,,
,,,,,,,,,,,,Many,Some,None,Most,All,Less than half,More than half,Few,Half,-0.014166667,0.35,1,0,0,QQQ4,,,,,,,,English,2020-07-02_11h28.53.618,Experiment_English,3.2.4,Win32,60,,,,,,,,,,,,,,,,,,,,,1,0,340,304,1,339,ratio51_5_6_13.png,,,,,,,,,,,,
,,,,,,,,,,,,Some,More than half,All,Less than half,Half,Few,None,Many,Most,-0.0775,-0.3275,1,0,0,QQQ6,,,,,,,,English,2020-07-02_11h28.53.618,Experiment_English,3.2.4,Win32,60,,,,,,,,,,,,,,,,,,,,,1,0,340,125,1,339,ratio15_1_6_19.png,,,,,,,,,,,,
,,,,,,,,,,,,Less than half,Few,Most,Many,More than half,None,All,Half,Some,-0.013333333,0.325833333,1,0,0,QQQ4,,,,,,,,English,2020-07-02_11h28.53.618,Experiment_English,3.2.4,Win32,60,,,,,,,,,,,,,,,,,,,,,1,0,340,175,1,339,ratio21_10_15_2.png,,,,,,,,,,,,
,,,,,,,,,,,,Most,None,Less than half,Few,Some,Many,Half,All,More than half,0.035833333,-0.3225,1,0,0,QQQ6,,,,,,,,English,2020-07-02_11h28.53.618,Experiment_English,3.2.4,Win32,60,,,,,,,,,,,,,,,,,,,,,1,0,340,34,1,339,ratio11_8_16_8.png,,,,,,,,,,,,
,,,,,,,,,,,,Many,Most,Some,Few,Less than half,All,More than half,Half,None,0.4925,0.006666667,1,0,0,QQQ2,,,,,,,,English,2020-07-02_11h28.53.618,Experiment_English,3.2.4,Win32,60,,,,,,,,,,,,,,,,,,,,,1,0,340,272,1,339,ratio41_12_15_7.png,,,,,,,,,,,,
,,,,,,,,,,,,More than half,Less than half,Many,Half,Some,All,None,Few,Most,0.061666667,-0.026666667,1,0,0,QQQ5,,,,,,,,English,2020-07-02_11h28.53.618,Experiment_English,3.2.4,Win32,60,,,,,,,,,,,,,,,,,,,,,1,0,340,115,1,339,ratio14_4_20_1.png,,,,,,,,,,,,
,,,,,,,,,,,,None,Many,Less than half,Most,Some,Half,All,More than half,Few,-0.0075,0.258333333,1,0,0,QQQ4,,,,,,,,English,2020-07-02_11h28.53.618,Experiment_English,3.2.4,Win32,60,,,,,,,,,,,,,,,,,,,,,1,0,340,324,1,339,ratio91_9_10_7.png,,,,,,,,,,,,
,,,,,,,,,,,,Few,All,Half,Many,More than half,Most,Less than half,None,Some,0.561666667,-0.048333333,1,0,0,QQQ2,,,,,,,,English,2020-07-02_11h28.53.618,Experiment_English,3.2.4,Win32,60,,,,,,,,,,,,,,,,,,,,,1,0,340,47,1,339,ratioX0_9_9_4.png,,,,,,,,,,,,
,,,,,,,,,,,,More than half,Less than half,Most,Some,All,Many,Half,Few,None,0.46,-0.301666667,1,0,0,QQQ3,,,,,,,,English,2020-07-02_11h28.53.618,Experiment_English,3.2.4,Win32,60,,,,,,,,,,,,,,,,,,,,,1,0,340,323,1,339,ratio91_9_10_5.png,,,,,,,,,,,,
,,,,,,,,,,,,Some,Less than half,Few,Most,All,Many,Half,None,More than half,0.591666667,0.289166667,1,0,0,QQQ1,,,,,,,,English,2020-07-02_11h28.53.618,Experiment_English,3.2.4,Win32,60,,,,,,,,,,,,,,,,,,,,,1,0,340,114,1,339,ratio14_3_15_10.png,,,,,,,,,,,,
,,,,,,,,,,,,More than half,Less than half,Half,Many,Few,All,Some,Most,None,-0.015833333,0.285,1,0,0,QQQ4,,,,,,,,English,2020-07-02_11h28.53.618,Experiment_English,3.2.4,Win32,60,,,,,,,,,,,,,,,,,,,,,1,0,340,169,1,339,ratio21_6_9_7.png,,,,,,,,,,,,
,,,,,,,,,,,,More than half,Most,Some,Less than half,Half,None,All,Few,Many,-0.005,0.0025,1,0,0,QQQ5,,,,,,,,English,2020-07-02_11h28.53.618,Experiment_English,3.2.4,Win32,60,,,,,,,,,,,,,,,,,,,,,1,0,340,207,1,339,ratio31_6_8_9.png,,,,,,,,,,,,
,,,,,,,,,,,,Few,All,Most,Many,None,Less than half,Half,More than half,Some,0.443333333,0.248333333,1,0,0,QQQ1,,,,,,,,English,2020-07-02_11h28.53.618,Experiment_English,3.2.4,Win32,60,,,,,,,,,,,,,,,,,,,,,1,0,340,158,1,339,ratio19_2_20_17.png,,,,,,,,,,,,
,,,,,,,,,,,,Few,Less than half,Most,Half,Many,None,All,Some,More than half,-0.5175,0.3125,1,0,0,QQQ7,,,,,,,,English,2020-07-02_11h28.53.618,Experiment_English,3.2.4,Win32,60,,,,,,,,,,,,,,,,,,,,,1,0,340,50,1,339,ratioX0_12_12_3.png,,,,,,,,,,,,
,,,,,,,,,,,,Less than half,Some,All,Many,Few,None,Half,More than half,Most,0.029166667,-0.025833333,1,0,0,QQQ5,,,,,,,,English,2020-07-02_11h28.53.618,Experiment_English,3.2.4,Win32,60,,,,,,,,,,,,,,,,,,,,,1,0,340,156,1,339,ratio19_2_20_14.png,,,,,,,,,,,,
,,,,,,,,,,,,Less than half,Most,All,Some,Half,More than half,None,Many,Few,0,-0.324166667,1,0,0,QQQ6,,,,,,,,English,2020-07-02_11h28.53.618,Experiment_English,3.2.4,Win32,60,,,,,,,,,,,,,,,,,,,,,1,0,340,221,1,339,ratio32_3_5_3.png,,,,,,,,,,,,
,,,,,,,,,,,,Less than half,Few,Half,Most,Many,None,All,More than half,Some,0.004166667,0.235833333,1,0,0,QQQ4,,,,,,,,English,2020-07-02_11h28.53.618,Experiment_English,3.2.4,Win32,60,,,,,,,,,,,,,,,,,,,,,1,0,340,330,1,339,ratio91_18_20_2.png,,,,,,,,,,,,
,,,,,,,,,,,,Many,More than half,Less than half,Most,All,Some,Half,None,Few,0.520833333,-0.0225,1,0,0,QQQ2,,,,,,,,English,2020-07-02_11h28.53.618,Experiment_English,3.2.4,Win32,60,,,,,,,,,,,,,,,,,,,,,1,0,340,174,1,339,ratio21_10_15_1.png,,,,,,,,,,,,
,,,,,,,,,,,,Most,More than half,All,Half,Some,Less than half,None,Many,Few,-0.535833333,-0.329166667,1,0,0,QQQ9,,,,,,,,English,2020-07-02_11h28.53.618,Experiment_English,3.2.4,Win32,60,,,,,,,,,,,,,,,,,,,,,1,0,340,133,1,339,ratio15_3_18_3.png,,,,,,,,,,,,
,,,,,,,,,,,,Few,None,Some,Half,All,Many,Less than half,More than half,Most,0.4975,0.276666667,1,0,0,QQQ1,,,,,,,,English,2020-07-02_11h28.53.618,Experiment_English,3.2.4,Win32,60,,,,,,,,,,,,,,,,,,,,,1,0,340,135,1,339,ratio15_3_18_7.png,,,,,,,,,,,,
,,,,,,,,,,,,Less than half,Half,All,Few,More than half,Some,Many,None,Most,0.059166667,-0.316666667,1,0,0,QQQ6,,,,,,,,English,2020-07-02_11h28.53.618,Experiment_English,3.2.4,Win32,60,,,,,,,,,,,,,,,,,,,,,1,0,340,26,1,339,ratio11_5_10_4.png,0.315,-0.379166667,1,0,0,continue_button_pause,1,0,1,0,1,0
,,,,,,,,,,,,,,,,,,,,,,,,,,,,,,,,,,English,2020-07-02_11h28.53.618,Experiment_English,3.2.4,Win32,60,,,,,,,,,,,,,,,,,,,,,1,0,340,26,1,339,ratio11_5_10_4.png,,,,,,,,,,,,
,,,,,,,,,,,,Few,All,Most,None,More than half,Less than half,Some,Many,Half,0.5075,-0.285,1,0,0,QQQ3,,,,,,,,English,2020-07-02_11h28.53.618,Experiment_English,3.2.4,Win32,60,,,,,,,,,,,,,,,,,,,,,1,0,340,238,1,339,ratio32_12_20_9.png,,,,,,,,,,,,
,,,,,,,,,,,,None,All,Half,More than half,Most,Less than half,Few,Many,Some,-0.066666667,0.290833333,1,0,0,QQQ4,,,,,,,,English,2020-07-02_11h28.53.618,Experiment_English,3.2.4,Win32,60,,,,,,,,,,,,,,,,,,,,,1,0,340,27,1,339,ratio11_5_10_7.png,,,,,,,,,,,,
,,,,,,,,,,,,Many,Some,Few,More than half,Half,Less than half,All,None,Most,-0.0175,-0.024166667,1,0,0,QQQ5,,,,,,,,English,2020-07-02_11h28.53.618,Experiment_English,3.2.4,Win32,60,,,,,,,,,,,,,,,,,,,,,1,0,340,29,1,339,ratio11_6_12_1.png,,,,,,,,,,,,
,,,,,,,,,,,,Many,Less than half,Few,More than half,None,Half,Some,Most,All,0.046666667,-0.300833333,1,0,0,QQQ6,,,,,,,,English,2020-07-02_11h28.53.618,Experiment_English,3.2.4,Win32,60,,,,,,,,,,,,,,,,,,,,,1,0,340,36,1,339,ratio11_9_18_1.png,,,,,,,,,,,,
,,,,,,,,,,,,Some,All,Most,Less than half,None,Half,More than half,Many,Few,-0.506666667,0.238333333,1,0,0,QQQ7,,,,,,,,English,2020-07-02_11h28.53.618,Experiment_English,3.2.4,Win32,60,,,,,,,,,,,,,,,,,,,,,1,0,340,206,1,339,ratio31_6_8_6.png,,,,,,,,,,,,
,,,,,,,,,,,,More than half,None,Few,Some,Less than half,All,Many,Most,Half,-0.5125,-0.036666667,1,0,0,QQQ8,,,,,,,,English,2020-07-02_11h28.53.618,Experiment_English,3.2.4,Win32,60,,,,,,,,,,,,,,,,,,,,,1,0,340,267,1,339,ratio41_8_10_4.png,,,,,,,,,,,,
,,,,,,,,,,,,Less than half,Most,Many,More than half,All,None,Some,Few,Half,0.469166667,0.2675,1,0,0,QQQ1,,,,,,,,English,2020-07-02_11h28.53.618,Experiment_English,3.2.4,Win32,60,,,,,,,,,,,,,,,,,,,,,1,0,340,117,1,339,ratio14_4_20_6.png,,,,,,,,,,,,
,,,,,,,,,,,,Less than half,More than half,Many,Most,Half,Few,None,Some,All,0.0125,0.2825,1,0,0,QQQ4,,,,,,,,English,2020-07-02_11h28.53.618,Experiment_English,3.2.4,Win32,60,,,,,,,,,,,,,,,,,,,,,1,0,340,321,1,339,ratio91_9_10_2.png,,,,,,,,,,,,
,,,,,,,,,,,,Most,None,More than half,All,Many,Few,Some,Half,Less than half,-0.098333333,-0.290833333,1,0,0,QQQ6,,,,,,,,English,2020-07-02_11h28.53.618,Experiment_English,3.2.4,Win32,60,,,,,,,,,,,,,,,,,,,,,1,0,340,278,1,339,ratio41_16_20_9.png,,,,,,,,,,,,
,,,,,,,,,,,,Some,More than half,All,Half,None,Less than half,Few,Many,Most,-0.508333333,0.223333333,1,0,0,QQQ7,,,,,,,,English,2020-07-02_11h28.53.618,Experiment_English,3.2.4,Win32,60,,,,,,,,,,,,,,,,,,,,,1,0,340,100,1,339,ratio14_1_5_3.png,,,,,,,,,,,,
,,,,,,,,,,,,Half,None,Less than half,Few,Some,More than half,Many,Most,All,-0.401666667,0.003333333,1,0,0,QQQ8,,,,,,,,English,2020-07-02_11h28.53.618,Experiment_English,3.2.4,Win32,60,,,,,,,,,,,,,,,,,,,,,1,0,340,332,1,339,ratio91_18_20_4.png,,,,,,,,,,,,
,,,,,,,,,,,,Most,Half,Less than half,Few,None,More than half,All,Many,Some,0.053333333,0.271666667,1,0,0,QQQ4,,,,,,,,English,2020-07-02_11h28.53.618,Experiment_English,3.2.4,Win32,60,,,,,,,,,,,,,,,,,,,,,1,0,340,143,1,339,ratio19_1_10_9.png,,,,,,,,,,,,
,,,,,,,,,,,,Few,Most,More than half,Less than half,Half,None,All,Some,Many,-0.525833333,-0.296666667,1,0,0,QQQ9,,,,,,,,English,2020-07-02_11h28.53.618,Experiment_English,3.2.4,Win32,60,,,,,,,,,,,,,,,,,,,,,1,0,340,167,1,339,ratio21_6_9_2.png,,,,,,,,,,,,
,,,,,,,,,,,,All,More than half,Few,Many,Some,Less than half,Half,None,Most,0.0075,-0.040833333,1,0,0,QQQ5,,,,,,,,English,2020-07-02_11h28.53.618,Experiment_English,3.2.4,Win32,60,,,,,,,,,,,,,,,,,,,,,1,0,340,139,1,339,ratio15_3_18_20.png,,,,,,,,,,,,
,,,,,,,,,,,,Most,Half,None,Less than half,Few,Some,All,Many,More than half,-0.0825,-0.010833333,1,0,0,QQQ5,,,,,,,,English,2020-07-02_11h28.53.618,Experiment_English,3.2.4,Win32,60,,,,,,,,,,,,,,,,,,,,,1,0,340,123,1,339,ratio15_1_6_12.png,,,,,,,,,,,,
,,,,,,,,,,,,All,Less than half,Few,Half,None,Some,Most,More than half,Many,-0.451666667,-0.021666667,1,0,0,QQQ8,,,,,,,,English,2020-07-02_11h28.53.618,Experiment_English,3.2.4,Win32,60,,,,,,,,,,,,,,,,,,,,,1,0,340,163,1,339,ratio21_4_6_1.png,,,,,,,,,,,,
,,,,,,,,,,,,Most,More than half,Many,All,Some,Half,None,Few,Less than half,-0.48,0.013333333,1,0,0,QQQ8,,,,,,,,English,2020-07-02_11h28.53.618,Experiment_English,3.2.4,Win32,60,,,,,,,,,,,,,,,,,,,,,1,0,340,149,1,339,ratio19_1_10_20.png,,,,,,,,,,,,
,,,,,,,,,,,,Few,None,Some,Most,More than half,Less than half,All,Many,Half,-0.055833333,-0.3025,1,0,0,QQQ6,,,,,,,,English,2020-07-02_11h28.53.618,Experiment_English,3.2.4,Win32,60,,,,,,,,,,,,,,,,,,,,,1,0,340,247,1,339,ratio34_3_7_12.png,,,,,,,,,,,,
,,,,,,,,,,,,More than half,Some,Less than half,Half,Most,Few,None,Many,All,0.466666667,-0.313333333,1,0,0,QQQ3,,,,,,,,English,2020-07-02_11h28.53.618,Experiment_English,3.2.4,Win32,60,,,,,,,,,,,,,,,,,,,,,1,0,340,255,1,339,ratio34_6_14_10.png,,,,,,,,,,,,
,,,,,,,,,,,,More than half,Many,Half,None,Most,Some,Less than half,Few,All,0.0025,-0.2925,1,0,0,QQQ6,,,,,,,,English,2020-07-02_11h28.53.618,Experiment_English,3.2.4,Win32,60,,,,,,,,,,,,,,,,,,,,,1,0,340,12,1,339,ratio12_4_12_10.png,,,,,,,,,,,,
,,,,,,,,,,,,Some,Many,None,More than half,Most,All,Less than half,Few,Half,0.503333333,0.295,1,0,0,QQQ1,,,,,,,,English,2020-07-02_11h28.53.618,Experiment_English,3.2.4,Win32,60,,,,,,,,,,,,,,,,,,,,,1,0,340,253,1,339,ratio34_6_14_5.png,,,,,,,,,,,,
,,,,,,,,,,,,Most,Some,Less than half,Many,None,Half,All,More than half,Few,-0.4225,-0.2425,1,0,0,QQQ9,,,,,,,,English,2020-07-02_11h28.53.618,Experiment_English,3.2.4,Win32,60,,,,,,,,,,,,,,,,,,,,,1,0,340,89,1,339,ratio13_3_12_6.png,,,,,,,,,,,,
,,,,,,,,,,,,None,All,Many,Some,More than half,Few,Half,Most,Less than half,-0.441666667,-0.004166667,1,0,0,QQQ8,,,,,,,,English,2020-07-02_11h28.53.618,Experiment_English,3.2.4,Win32,60,,,,,,,,,,,,,,,,,,,,,1,0,340,263,1,339,ratio41_4_5_5.png,,,,,,,,,,,,
,,,,,,,,,,,,Some,Few,Less than half,Half,More than half,Many,None,Most,All,0.474166667,-0.281666667,1,0,0,QQQ3,,,,,,,,English,2020-07-02_11h28.53.618,Experiment_English,3.2.4,Win32,60,,,,,,,,,,,,,,,,,,,,,1,0,340,181,1,339,ratio23_2_5_6.png,,,,,,,,,,,,
,,,,,,,,,,,,Most,Half,More than half,Few,All,Many,Some,Less than half,None,0.4825,-0.0625,1,0,0,QQQ2,,,,,,,,English,2020-07-02_11h28.53.618,Experiment_English,3.2.4,Win32,60,,,,,,,,,,,,,,,,,,,,,1,0,340,24,1,339,ratio11_4_8_3.png,,,,,,,,,,,,
,,,,,,,,,,,,Many,Half,Less than half,Most,None,Some,More than half,All,Few,0.011666667,0.350833333,1,0,0,QQQ4,,,,,,,,English,2020-07-02_11h28.53.618,Experiment_English,3.2.4,Win32,60,,,,,,,,,,,,,,,,,,,,,1,0,340,314,1,339,ratio51_15_18_4.png,,,,,,,,,,,,
,,,,,,,,,,,,Few,Many,Most,None,Less than half,Half,More than half,All,Some,0.475833333,-0.275,1,0,0,QQQ3,,,,,,,,English,2020-07-02_11h28.53.618,Experiment_English,3.2.4,Win32,60,,,,,,,,,,,,,,,,,,,,,1,0,340,277,1,339,ratio41_16_20_8.png,,,,,,,,,,,,
,,,,,,,,,,,,None,Less than half,More than half,Many,Some,All,Most,Few,Half,-0.508333333,-0.028333333,1,0,0,QQQ8,,,,,,,,English,2020-07-02_11h28.53.618,Experiment_English,3.2.4,Win32,60,,,,,,,,,,,,,,,,,,,,,1,0,340,151,1,339,ratio19_2_20_4.png,,,,,,,,,,,,
,,,,,,,,,,,,More than half,Most,Few,All,None,Less than half,Some,Many,Half,0.5125,-0.051666667,1,0,0,QQQ2,,,,,,,,English,2020-07-02_11h28.53.618,Experiment_English,3.2.4,Win32,60,,,,,,,,,,,,,,,,,,,,,1,0,340,336,1,339,ratio91_18_20_12.png,,,,,,,,,,,,
,,,,,,,,,,,,Many,Some,Less than half,Few,Half,None,All,Most,More than half,0.0125,0.284166667,1,0,0,QQQ4,,,,,,,,English,2020-07-02_11h28.53.618,Experiment_English,3.2.4,Win32,60,,,,,,,,,,,,,,,,,,,,,1,0,340,83,1,339,ratio13_1_4_10.png,,,,,,,,,,,,
,,,,,,,,,,,,Less than half,More than half,Half,Many,Some,Most,All,None,Few,0.03,-0.25,1,0,0,QQQ6,,,,,,,,English,2020-07-02_11h28.53.618,Experiment_English,3.2.4,Win32,60,,,,,,,,,,,,,,,,,,,,,1,0,340,236,1,339,ratio32_12_20_2.png,,,,,,,,,,,,
,,,,,,,,,,,,All,More than half,Most,Some,None,Less than half,Few,Half,Many,-0.435833333,0.324166667,1,0,0,QQQ7,,,,,,,,English,2020-07-02_11h28.53.618,Experiment_English,3.2.4,Win32,60,,,,,,,,,,,,,,,,,,,,,1,0,340,153,1,339,ratio19_2_20_8.png,,,,,,,,,,,,
,,,,,,,,,,,,Most,Half,Few,Many,All,Some,None,More than half,Less than half,0.4675,0.2675,1,0,0,QQQ1,,,,,,,,English,2020-07-02_11h28.53.618,Experiment_English,3.2.4,Win32,60,,,,,,,,,,,,,,,,,,,,,1,0,340,302,1,339,ratio51_5_6_5.png,,,,,,,,,,,,
,,,,,,,,,,,,Half,All,More than half,Less than half,Many,Some,None,Most,Few,-0.031666667,0.255833333,1,0,0,QQQ4,,,,,,,,English,2020-07-02_11h28.53.618,Experiment_English,3.2.4,Win32,60,,,,,,,,,,,,,,,,,,,,,1,0,340,246,1,339,ratio34_3_7_11.png,0.241666667,-0.388333333,1,0,0,continue_button_pause,1,0,1,0,1,0
,,,,,,,,,,,,,,,,,,,,,,,,,,,,,,,,,,English,2020-07-02_11h28.53.618,Experiment_English,3.2.4,Win32,60,,,,,,,,,,,,,,,,,,,,,1,0,340,246,1,339,ratio34_3_7_11.png,,,,,,,,,,,,
,,,,,,,,,,,,Some,Less than half,More than half,Half,Few,Most,Many,None,All,-0.341666667,0.3225,1,0,0,QQQ7,,,,,,,,English,2020-07-02_11h28.53.618,Experiment_English,3.2.4,Win32,60,,,,,,,,,,,,,,,,,,,,,1,0,340,164,1,339,ratio21_4_6_6.png,,,,,,,,,,,,
,,,,,,,,,,,,Most,Few,Less than half,More than half,Half,All,Many,Some,None,0.021666667,0.290833333,1,0,0,QQQ4,,,,,,,,English,2020-07-02_11h28.53.618,Experiment_English,3.2.4,Win32,60,,,,,,,,,,,,,,,,,,,,,1,0,340,190,1,339,ratio23_6_15_3.png,,,,,,,,,,,,
,,,,,,,,,,,,Few,Many,More than half,Half,None,Some,All,Most,Less than half,0.384166667,-0.335833333,1,0,0,QQQ3,,,,,,,,English,2020-07-02_11h28.53.618,Experiment_English,3.2.4,Win32,60,,,,,,,,,,,,,,,,,,,,,1,0,340,32,1,339,ratio11_7_14_5.png,,,,,,,,,,,,
,,,,,,,,,,,,Less than half,Half,More than half,Most,Some,All,None,Many,Few,0.448333333,0.221666667,1,0,0,QQQ1,,,,,,,,English,2020-07-02_11h28.53.618,Experiment_English,3.2.4,Win32,60,,,,,,,,,,,,,,,,,,,,,1,0,340,96,1,339,ratio13_5_20_1.png,,,,,,,,,,,,
,,,,,,,,,,,,More than half,Many,Half,Most,None,Less than half,All,Few,Some,0.074166667,0.265833333,1,0,0,QQQ4,,,,,,,,English,2020-07-02_11h28.53.618,Experiment_English,3.2.4,Win32,60,,,,,,,,,,,,,,,,,,,,,1,0,340,306,1,339,ratio51_5_6_18.png,,,,,,,,,,,,
,,,,,,,,,,,,Most,None,Some,Few,Many,Half,More than half,Less than half,All,-0.4875,-0.014166667,1,0,0,QQQ8,,,,,,,,English,2020-07-02_11h28.53.618,Experiment_English,3.2.4,Win32,60,,,,,,,,,,,,,,,,,,,,,1,0,340,173,1,339,ratio21_8_12_9.png,,,,,,,,,,,,
,,,,,,,,,,,,Less than half,Half,Few,None,All,More than half,Some,Most,Many,0.036666667,-0.306666667,1,0,0,QQQ6,,,,,,,,English,2020-07-02_11h28.53.618,Experiment_English,3.2.4,Win32,60,,,,,,,,,,,,,,,,,,,,,1,0,340,213,1,339,ratio31_12_16_2.png,,,,,,,,,,,,
,,,,,,,,,,,,Some,Many,Less than half,Most,More than half,All,None,Half,Few,0.47,-0.020833333,1,0,0,QQQ2,,,,,,,,English,2020-07-02_11h28.53.618,Experiment_English,3.2.4,Win32,60,,,,,,,,,,,,,,,,,,,,,1,0,340,216,1,339,ratio31_15_20_3.png,,,,,,,,,,,,
,,,,,,,,,,,,Half,None,Less than half,Many,All,Few,Most,Some,More than half,0.0575,-0.285833333,1,0,0,QQQ6,,,,,,,,English,2020-07-02_11h28.53.618,Experiment_English,3.2.4,Win32,60,,,,,,,,,,,,,,,,,,,,,1,0,340,150,1,339,ratio19_2_20_1.png,,,,,,,,,,,,
,,,,,,,,,,,,Most,All,None,Few,More than half,Some,Less than half,Many,Half,-0.025,-0.280833333,1,0,0,QQQ6,,,,,,,,English,2020-07-02_11h28.53.618,Experiment_English,3.2.4,Win32,60,,,,,,,,,,,,,,,,,,,,,1,0,340,124,1,339,ratio15_1_6_16.png,,,,,,,,,,,,
,,,,,,,,,,,,More than half,None,All,Less than half,Most,Half,Many,Some,Few,-0.45,-0.273333333,1,0,0,QQQ9,,,,,,,,English,2020-07-02_11h28.53.618,Experiment_English,3.2.4,Win32,60,,,,,,,,,,,,,,,,,,,,,1,0,340,107,1,339,ratio14_2_10_5.png,,,,,,,,,,,,
,,,,,,,,,,,,None,Few,More than half,All,Half,Some,Less than half,Most,Many,0.56,-0.0025,1,0,0,QQQ2,,,,,,,,English,2020-07-02_11h28.53.618,Experiment_English,3.2.4,Win32,60,,,,,,,,,,,,,,,,,,,,,1,0,340,88,1,339,ratio13_3_12_5.png,,,,,,,,,,,,
,,,,,,,,,,,,None,More than half,Many,Most,Few,Half,Some,All,Less than half,0.496666667,-0.05,1,0,0,QQQ2,,,,,,,,English,2020-07-02_11h28.53.618,Experiment_English,3.2.4,Win32,60,,,,,,,,,,,,,,,,,,,,,1,0,340,172,1,339,ratio21_8_12_6.png,,,,,,,,,,,,
,,,,,,,,,,,,Some,Few,More than half,All,Most,Half,Less than half,None,Many,0.523333333,-0.313333333,1,0,0,QQQ3,,,,,,,,English,2020-07-02_11h28.53.618,Experiment_English,3.2.4,Win32,60,,,,,,,,,,,,,,,,,,,,,1,0,340,299,1,339,ratio43_8_14_17.png,,,,,,,,,,,,
,,,,,,,,,,,,All,Many,Most,More than half,Few,Less than half,Half,Some,None,0.454166667,-0.270833333,1,0,0,QQQ3,,,,,,,,English,2020-07-02_11h28.53.618,Experiment_English,3.2.4,Win32,60,,,,,,,,,,,,,,,,,,,,,1,0,340,270,1,339,ratio41_12_15_3.png,,,,,,,,,,,,
,,,,,,,,,,,,All,None,Some,Half,Less than half,Few,Most,More than half,Many,-0.008333333,0.016666667,1,0,0,QQQ5,,,,,,,,English,2020-07-02_11h28.53.618,Experiment_English,3.2.4,Win32,60,,,,,,,,,,,,,,,,,,,,,1,0,340,182,1,339,ratio23_2_5_7.png,,,,,,,,,,,,
,,,,,,,,,,,,Few,Less than half,None,Most,More than half,Some,Half,Many,All,-0.000833333,0.2875,1,0,0,QQQ4,,,,,,,,English,2020-07-02_11h28.53.618,Experiment_English,3.2.4,Win32,60,,,,,,,,,,,,,,,,,,,,,1,0,340,264,1,339,ratio41_4_5_6.png,,,,,,,,,,,,
,,,,,,,,,,,,None,Less than half,Half,Some,More than half,Many,All,Most,Few,-0.4275,0.304166667,1,0,0,QQQ7,,,,,,,,English,2020-07-02_11h28.53.618,Experiment_English,3.2.4,Win32,60,,,,,,,,,,,,,,,,,,,,,1,0,340,42,1,339,ratioX0_5_5_5.png,,,,,,,,,,,,
,,,,,,,,,,,,Half,Some,Less than half,More than half,Many,Most,None,Few,All,0.464166667,-0.338333333,1,0,0,QQQ3,,,,,,,,English,2020-07-02_11h28.53.618,Experiment_English,3.2.4,Win32,60,,,,,,,,,,,,,,,,,,,,,1,0,340,0,1,339,ratio12_1_3_3.png,,,,,,,,,,,,
,,,,,,,,,,,,Some,Few,Less than half,All,None,Most,Many,Half,More than half,-0.48,-0.323333333,1,0,0,QQQ9,,,,,,,,English,2020-07-02_11h28.53.618,Experiment_English,3.2.4,Win32,60,,,,,,,,,,,,,,,,,,,,,1,0,340,293,1,339,ratio43_8_14_7.png,,,,,,,,,,,,
,,,,,,,,,,,,More than half,All,Less than half,Some,None,Many,Half,Few,Most,-0.5175,-0.278333333,1,0,0,QQQ9,,,,,,,,English,2020-07-02_11h28.53.618,Experiment_English,3.2.4,Win32,60,,,,,,,,,,,,,,,,,,,,,1,0,340,268,1,339,ratio41_8_10_5.png,,,,,,,,,,,,
,,,,,,,,,,,,More than half,Some,Few,Most,Half,Less than half,None,Many,All,0.444166667,-0.311666667,1,0,0,QQQ3,,,,,,,,English,2020-07-02_11h28.53.618,Experiment_English,3.2.4,Win32,60,,,,,,,,,,,,,,,,,,,,,1,0,340,82,1,339,ratio13_1_4_7.png,,,,,,,,,,,,
,,,,,,,,,,,,Some,Less than half,None,Most,Many,Half,More than half,Few,All,-0.54,-0.049166667,1,0,0,QQQ8,,,,,,,,English,2020-07-02_11h28.53.618,Experiment_English,3.2.4,Win32,60,,,,,,,,,,,,,,,,,,,,,1,0,340,129,1,339,ratio15_2_12_9.png,,,,,,,,,,,,
,,,,,,,,,,,,More than half,All,Few,Less than half,Some,Half,None,Many,Most,0.485,-0.351666667,1,0,0,QQQ3,,,,,,,,English,2020-07-02_11h28.53.618,Experiment_English,3.2.4,Win32,60,,,,,,,,,,,,,,,,,,,,,1,0,340,157,1,339,ratio19_2_20_16.png,,,,,,,,,,,,
,,,,,,,,,,,,Less than half,Some,None,All,More than half,Most,Few,Half,Many,0.0025,-0.269166667,1,0,0,QQQ6,,,,,,,,English,2020-07-02_11h28.53.618,Experiment_English,3.2.4,Win32,60,,,,,,,,,,,,,,,,,,,,,1,0,340,210,1,339,ratio31_9_12_9.png,,,,,,,,,,,,
,,,,,,,,,,,,More than half,None,Less than half,Few,Half,Some,Many,Most,All,0.469166667,0.280833333,1,0,0,QQQ1,,,,,,,,English,2020-07-02_11h28.53.618,Experiment_English,3.2.4,Win32,60,,,,,,,,,,,,,,,,,,,,,1,0,340,288,1,339,ratio43_4_7_18.png,,,,,,,,,,,,
,,,,,,,,,,,,Many,All,None,Few,Half,Less than half,More than half,Most,Some,0.479166667,-0.3325,1,0,0,QQQ3,,,,,,,,English,2020-07-02_11h28.53.618,Experiment_English,3.2.4,Win32,60,,,,,,,,,,,,,,,,,,,,,1,0,340,65,1,339,ratio0Y_0_8_4.png,,,,,,,,,,,,
,,,,,,,,,,,,More than half,All,Most,Some,Less than half,Few,Half,None,Many,0.583333333,-0.0025,1,0,0,QQQ2,,,,,,,,English,2020-07-02_11h28.53.618,Experiment_English,3.2.4,Win32,60,,,,,,,,,,,,,,,,,,,,,1,0,340,48,1,339,ratioX0_10_10_1.png,,,,,,,,,,,,
,,,,,,,,,,,,Few,Many,Most,Less than half,All,None,Some,Half,More than half,0.026666667,-0.285,1,0,0,QQQ6,,,,,,,,English,2020-07-02_11h28.53.618,Experiment_English,3.2.4,Win32,60,,,,,,,,,,,,,,,,,,,,,1,0,340,72,1,339,ratio0Y_0_13_4.png,,,,,,,,,,,,
,,,,,,,,,,,,All,Most,Less than half,Many,None,Few,Some,More than half,Half,-0.415833333,0.0075,1,0,0,QQQ8,,,,,,,,English,2020-07-02_11h28.53.618,Experiment_English,3.2.4,Win32,60,,,,,,,,,,,,,,,,,,,,,1,0,340,234,1,339,ratio32_9_15_10.png,,,,,,,,,,,,
,,,,,,,,,,,,Few,More than half,Half,Some,Less than half,All,Many,Most,None,0.0225,0.2825,1,0,0,QQQ4,,,,,,,,English,2020-07-02_11h28.53.618,Experiment_English,3.2.4,Win32,60,,,,,,,,,,,,,,,,,,,,,1,0,340,194,1,339,ratio23_6_15_10.png,,,,,,,,,,,,
,,,,,,,,,,,,Many,More than half,Less than half,Most,Some,All,Half,Few,None,0.628333333,-0.34,1,0,0,QQQ3,,,,,,,,English,2020-07-02_11h28.53.618,Experiment_English,3.2.4,Win32,60,,,,,,,,,,,,,,,,,,,,,1,0,340,7,1,339,ratio12_3_9_2.png,,,,,,,,,,,,
,,,,,,,,,,,,Some,All,Many,Half,Few,More than half,Less than half,None,Most,-0.560833333,-0.008333333,1,0,0,QQQ8,,,,,,,,English,2020-07-02_11h28.53.618,Experiment_English,3.2.4,Win32,60,,,,,,,,,,,,,,,,,,,,,1,0,340,74,1,339,ratio0Y_0_15_10.png,,,,,,,,,,,,
,,,,,,,,,,,,Few,Less than half,Most,All,More than half,Some,Half,Many,None,-0.49,0.295833333,1,0,0,QQQ7,,,,,,,,English,2020-07-02_11h28.53.618,Experiment_English,3.2.4,Win32,60,,,,,,,,,,,,,,,,,,,,,1,0,340,20,1,339,ratio11_2_4_3.png,0.2975,-0.379166667,1,0,0,continue_button_pause,1,0,1,0,1,0
,,,,,,,,,,,,,,,,,,,,,,,,,,,,,,,,,,English,2020-07-02_11h28.53.618,Experiment_English,3.2.4,Win32,60,,,,,,,,,,,,,,,,,,,,,1,0,340,20,1,339,ratio11_2_4_3.png,,,,,,,,,,,,
,,,,,,,,,,,,Some,All,Few,Half,Most,Less than half,None,Many,More than half,0.538333333,-0.370833333,1,0,0,QQQ3,,,,,,,,English,2020-07-02_11h28.53.618,Experiment_English,3.2.4,Win32,60,,,,,,,,,,,,,,,,,,,,,1,0,340,81,1,339,ratio13_1_4_5.png,,,,,,,,,,,,
,,,,,,,,,,,,Most,Half,Few,All,More than half,Many,Less than half,None,Some,-0.505,0.27,1,0,0,QQQ7,,,,,,,,English,2020-07-02_11h28.53.618,Experiment_English,3.2.4,Win32,60,,,,,,,,,,,,,,,,,,,,,1,0,340,199,1,339,ratio23_8_20_8.png,,,,,,,,,,,,
,,,,,,,,,,,,Less than half,Many,Half,Some,All,Most,Few,None,More than half,-0.4725,-0.301666667,1,0,0,QQQ9,,,,,,,,English,2020-07-02_11h28.53.618,Experiment_English,3.2.4,Win32,60,,,,,,,,,,,,,,,,,,,,,1,0,340,269,1,339,ratio41_8_10_6.png,,,,,,,,,,,,
,,,,,,,,,,,,Many,None,All,Few,More than half,Half,Less than half,Some,Most,-0.46,-0.2975,1,0,0,QQQ9,,,,,,,,English,2020-07-02_11h28.53.618,Experiment_English,3.2.4,Win32,60,,,,,,,,,,,,,,,,,,,,,1,0,340,279,1,339,ratio41_16_20_10.png,,,,,,,,,,,,
,,,,,,,,,,,,Many,Half,Few,All,Some,Less than half,None,Most,More than half,-0.47,-0.005833333,1,0,0,QQQ8,,,,,,,,English,2020-07-02_11h28.53.618,Experiment_English,3.2.4,Win32,60,,,,,,,,,,,,,,,,,,,,,1,0,340,203,1,339,ratio31_3_4_9.png,,,,,,,,,,,,
,,,,,,,,,,,,Less than half,None,All,More than half,Many,Half,Some,Most,Few,-0.041666667,-0.001666667,1,0,0,QQQ5,,,,,,,,English,2020-07-02_11h28.53.618,Experiment_English,3.2.4,Win32,60,,,,,,,,,,,,,,,,,,,,,1,0,340,289,1,339,ratio43_4_7_20.png,,,,,,,,,,,,
,,,,,,,,,,,,Half,Most,More than half,Some,None,Less than half,Many,Few,All,0.570833333,-0.010833333,1,0,0,QQQ2,,,,,,,,English,2020-07-02_11h28.53.618,Experiment_English,3.2.4,Win32,60,,,,,,,,,,,,,,,,,,,,,1,0,340,309,1,339,ratio51_10_12_10.png,,,,,,,,,,,,
,,,,,,,,,,,,Most,Few,Some,More than half,Less than half,Half,Many,All,None,0.4425,0.2925,1,0,0,QQQ1,,,,,,,,English,2020-07-02_11h28.53.618,Experiment_English,3.2.4,Win32,60,,,,,,,,,,,,,,,,,,,,,1,0,340,305,1,339,ratio51_5_6_14.png,,,,,,,,,,,,
,,,,,,,,,,,,More than half,All,Some,Less than half,Most,Half,Many,None,Few,-0.023333333,0.274166667,1,0,0,QQQ4,,,,,,,,English,2020-07-02_11h28.53.618,Experiment_English,3.2.4,Win32,60,,,,,,,,,,,,,,,,,,,,,1,0,340,6,1,339,ratio12_3_9_1.png,,,,,,,,,,,,
,,,,,,,,,,,,Many,Half,All,Most,None,More than half,Less than half,Some,Few,-0.461666667,-0.3175,1,0,0,QQQ9,,,,,,,,English,2020-07-02_11h28.53.618,Experiment_English,3.2.4,Win32,60,,,,,,,,,,,,,,,,,,,,,1,0,340,147,1,339,ratio19_1_10_18.png,,,,,,,,,,,,
,,,,,,,,,,,,Few,All,Some,None,More than half,Half,Less than half,Many,Most,0.515833333,-0.348333333,1,0,0,QQQ3,,,,,,,,English,2020-07-02_11h28.53.618,Experiment_English,3.2.4,Win32,60,,,,,,,,,,,,,,,,,,,,,1,0,340,92,1,339,ratio13_4_16_3.png,,,,,,,,,,,,
,,,,,,,,,,,,Few,Half,All,Many,Some,Less than half,More than half,Most,None,0.039166667,-0.286666667,1,0,0,QQQ6,,,,,,,,English,2020-07-02_11h28.53.618,Experiment_English,3.2.4,Win32,60,,,,,,,,,,,,,,,,,,,,,1,0,340,9,1,339,ratio12_3_9_5.png,,,,,,,,,,,,
,,,,,,,,,,,,Half,Few,Most,Some,More than half,All,None,Many,Less than half,-0.6225,-0.3325,1,0,0,QQQ9,,,,,,,,English,2020-07-02_11h28.53.618,Experiment_English,3.2.4,Win32,60,,,,,,,,,,,,,,,,,,,,,1,0,340,256,1,339,ratio34_6_14_11.png,,,,,,,,,,,,
,,,,,,,,,,,,Some,All,Less than half,Few,Most,None,Many,More than half,Half,0.0925,0.323333333,1,0,0,QQQ4,,,,,,,,English,2020-07-02_11h28.53.618,Experiment_English,3.2.4,Win32,60,,,,,,,,,,,,,,,,,,,,,1,0,340,131,1,339,ratio15_2_12_14.png,,,,,,,,,,,,
,,,,,,,,,,,,Most,Half,Less than half,Few,More than half,All,Many,Some,None,0.003333333,-0.005833333,1,0,0,QQQ5,,,,,,,,English,2020-07-02_11h28.53.618,Experiment_English,3.2.4,Win32,60,,,,,,,,,,,,,,,,,,,,,1,0,340,286,1,339,ratio43_4_7_15.png,,,,,,,,,,,,
,,,,,,,,,,,,All,None,Half,Many,Few,Some,More than half,Most,Less than half,0.493333333,-0.0275,1,0,0,QQQ2,,,,,,,,English,2020-07-02_11h28.53.618,Experiment_English,3.2.4,Win32,60,,,,,,,,,,,,,,,,,,,,,1,0,340,79,1,339,ratio0Y_0_20_4.png,,,,,,,,,,,,
,,,,,,,,,,,,All,Some,Most,None,Half,More than half,Many,Less than half,Few,-0.455833333,-0.244166667,1,0,0,QQQ9,,,,,,,,English,2020-07-02_11h28.53.618,Experiment_English,3.2.4,Win32,60,,,,,,,,,,,,,,,,,,,,,1,0,340,142,1,339,ratio19_1_10_6.png,,,,,,,,,,,,
,,,,,,,,,,,,Many,Some,Most,None,Less than half,All,Half,Few,More than half,-0.03,-0.3075,1,0,0,QQQ6,,,,,,,,English,2020-07-02_11h28.53.618,Experiment_English,3.2.4,Win32,60,,,,,,,,,,,,,,,,,,,,,1,0,340,44,1,339,ratioX0_7_7_5.png,,,,,,,,,,,,
,,,,,,,,,,,,None,Most,Many,Less than half,Some,Few,All,Half,More than half,0.569166667,-0.070833333,1,0,0,QQQ2,,,,,,,,English,2020-07-02_11h28.53.618,Experiment_English,3.2.4,Win32,60,,,,,,,,,,,,,,,,,,,,,1,0,340,260,1,339,ratio41_4_5_2.png,,,,,,,,,,,,
,,,,,,,,,,,,Many,More than half,None,Less than half,Most,All,Some,Half,Few,0.026666667,0.38,1,0,0,QQQ4,,,,,,,,English,2020-07-02_11h28.53.618,Experiment_English,3.2.4,Win32,60,,,,,,,,,,,,,,,,,,,,,1,0,340,25,1,339,ratio11_4_8_10.png,,,,,,,,,,,,
,,,,,,,,,,,,Most,None,Half,Less than half,More than half,Few,All,Many,Some,0.005,-0.001666667,1,0,0,QQQ5,,,,,,,,English,2020-07-02_11h28.53.618,Experiment_English,3.2.4,Win32,60,,,,,,,,,,,,,,,,,,,,,1,0,340,294,1,339,ratio43_8_14_9.png,,,,,,,,,,,,
,,,,,,,,,,,,More than half,Many,All,None,Some,Less than half,Few,Most,Half,0.040833333,0.331666667,1,0,0,QQQ4,,,,,,,,English,2020-07-02_11h28.53.618,Experiment_English,3.2.4,Win32,60,,,,,,,,,,,,,,,,,,,,,1,0,340,73,1,339,ratio0Y_0_14_7.png,,,,,,,,,,,,
,,,,,,,,,,,,Less than half,More than half,None,Half,Most,Some,Many,All,Few,0.033333333,-0.018333333,1,0,0,QQQ5,,,,,,,,English,2020-07-02_11h28.53.618,Experiment_English,3.2.4,Win32,60,,,,,,,,,,,,,,,,,,,,,1,0,340,328,1,339,ratio91_9_10_15.png,,,,,,,,,,,,
,,,,,,,,,,,,None,Most,Half,Few,Some,Many,All,Less than half,More than half,-0.45,-0.043333333,1,0,0,QQQ8,,,,,,,,English,2020-07-02_11h28.53.618,Experiment_English,3.2.4,Win32,60,,,,,,,,,,,,,,,,,,,,,1,0,340,119,1,339,ratio14_4_20_10.png,,,,,,,,,,,,
,,,,,,,,,,,,Half,More than half,All,Most,Some,None,Few,Many,Less than half,0.491666667,0.299166667,1,0,0,QQQ1,,,,,,,,English,2020-07-02_11h28.53.618,Experiment_English,3.2.4,Win32,60,,,,,,,,,,,,,,,,,,,,,1,0,340,22,1,339,ratio11_3_6_6.png,,,,,,,,,,,,
,,,,,,,,,,,,Many,More than half,All,Some,Half,Less than half,Few,None,Most,0.575833333,0.293333333,1,0,0,QQQ1,,,,,,,,English,2020-07-02_11h28.53.618,Experiment_English,3.2.4,Win32,60,,,,,,,,,,,,,,,,,,,,,1,0,340,208,1,339,ratio31_9_12_3.png,,,,,,,,,,,,
,,,,,,,,,,,,Most,Half,All,Less than half,Few,More than half,None,Many,Some,0.516666667,-0.351666667,1,0,0,QQQ3,,,,,,,,English,2020-07-02_11h28.53.618,Experiment_English,3.2.4,Win32,60,,,,,,,,,,,,,,,,,,,,,1,0,340,40,1,339,ratioX0_3_3_5.png,,,,,,,,,,,,
,,,,,,,,,,,,None,Most,Some,Few,All,Half,More than half,Many,Less than half,0.034166667,0.008333333,1,0,0,QQQ5,,,,,,,,English,2020-07-02_11h28.53.618,Experiment_English,3.2.4,Win32,60,,,,,,,,,,,,,,,,,,,,,1,0,340,59,1,339,ratioX0_20_20_9.png,,,,,,,,,,,,
,,,,,,,,,,,,More than half,None,Most,Few,Many,Less than half,Some,Half,All,0.434166667,0.318333333,1,0,0,QQQ1,,,,,,,,English,2020-07-02_11h28.53.618,Experiment_English,3.2.4,Win32,60,,,,,,,,,,,,,,,,,,,,,1,0,340,178,1,339,ratio21_12_18_2.png,,,,,,,,,,,,
,,,,,,,,,,,,None,Less than half,Some,Most,More than half,Many,Few,All,Half,-0.4925,0.015833333,1,0,0,QQQ8,,,,,,,,English,2020-07-02_11h28.53.618,Experiment_English,3.2.4,Win32,60,,,,,,,,,,,,,,,,,,,,,1,0,340,43,1,339,ratioX0_6_6_9.png,,,,,,,,,,,,
,,,,,,,,,,,,Half,Few,Less than half,Many,More than half,None,All,Most,Some,-0.448333333,-0.298333333,1,0,0,QQQ9,,,,,,,,English,2020-07-02_11h28.53.618,Experiment_English,3.2.4,Win32,60,,,,,,,,,,,,,,,,,,,,,1,0,340,113,1,339,ratio14_3_15_8.png,,,,,,,,,,,,
,,,,,,,,,,,,Few,Less than half,More than half,Half,Some,Many,None,Most,All,0.469166667,0.200833333,1,0,0,QQQ1,,,,,,,,English,2020-07-02_11h28.53.618,Experiment_English,3.2.4,Win32,60,,,,,,,,,,,,,,,,,,,,,1,0,340,136,1,339,ratio15_3_18_8.png,,,,,,,,,,,,
,,,,,,,,,,,,All,Less than half,Many,More than half,Most,Few,Half,Some,None,0.03,-0.325,1,0,0,QQQ6,,,,,,,,English,2020-07-02_11h28.53.618,Experiment_English,3.2.4,Win32,60,,,,,,,,,,,,,,,,,,,,,1,0,340,152,1,339,ratio19_2_20_6.png,,,,,,,,,,,,
,,,,,,,,,,,,Half,Some,All,Most,None,Many,Few,More than half,Less than half,-0.494166667,0.3,1,0,0,QQQ7,,,,,,,,English,2020-07-02_11h28.53.618,Experiment_English,3.2.4,Win32,60,,,,,,,,,,,,,,,,,,,,,1,0,340,10,1,339,ratio12_4_12_4.png,,,,,,,,,,,,
