continue_mouse.x,continue_mouse.y,continue_mouse.leftButton,continue_mouse.midButton,continue_mouse.rightButton,continue_mouse.clicked_name,continue_mouse_2.x,continue_mouse_2.y,continue_mouse_2.leftButton,continue_mouse_2.midButton,continue_mouse_2.rightButton,continue_mouse_2.clicked_name,Q1,Q2,Q3,Q4,Q5,Q6,Q7,Q8,Q9,select_answer.x,select_answer.y,select_answer.leftButton,select_answer.midButton,select_answer.rightButton,select_answer.clicked_name,trial.thisRepN,trial.thisTrialN,trial.thisN,trial.thisIndex,trial.ran,trial.order,trials,Native tongue*,date,expName,psychopyVersion,OS,frameRate,key_resp.keys,key_resp.rt,Actual_Experiment.thisRepN,Actual_Experiment.thisTrialN,Actual_Experiment.thisN,Actual_Experiment.thisIndex,Actual_Experiment.ran,Actual_Experiment.order,Pic,mouse_pause.x,mouse_pause.y,mouse_pause.leftButton,mouse_pause.midButton,mouse_pause.rightButton,mouse_pause.clicked_name,pause.thisRepN,pause.thisTrialN,pause.thisN,pause.thisIndex,pause.ran,pause.order
0.343490326,-0.430193987,1,0,0,continue_button,0.249307499,-0.406925221,1,0,0,continue_button_2,Half,Most,Many,Few,All,More than half,None,Some,Less than half,-0.413296389,0.230193851,1,0,0,QQQ7,1,0,16,15,1,15,ratio0Y_0_14_10.png,English,2020-06-16_09h48.55.824,Experiment_English,3.2.4,Win32,60,,,,,,,,,,,,,,,,,,,,,
,,,,,,,,,,,,Half,Most,All,Few,More than half,Less than half,Many,None,Some,0.111911375,0.296675847,1,0,0,QQQ4,1,0,16,4,1,15,ratio34_3_7_3.png,English,2020-06-16_09h48.55.824,Experiment_English,3.2.4,Win32,60,,,,,,,,,,,,,,,,,,,,,
,,,,,,,,,,,,Less than half,None,Few,Many,Half,Some,More than half,Most,All,0.070914144,0.25567865,1,0,0,QQQ4,1,0,16,6,1,15,ratio31_12_16_7.png,English,2020-06-16_09h48.55.824,Experiment_English,3.2.4,Win32,60,,,,,,,,,,,,,,,,,,,,,
,,,,,,,,,,,,More than half,All,Many,Few,Some,Less than half,Half,Most,None,0.062049878,0.276731282,1,0,0,QQQ4,1,0,16,10,1,15,ratio15_2_12_4.png,English,2020-06-16_09h48.55.824,Experiment_English,3.2.4,Win32,60,,,,,,,,,,,,,,,,,,,,,
,,,,,,,,,,,,Half,Some,Less than half,All,Most,Many,More than half,Few,None,-0.387811624,-0.031301947,1,0,0,QQQ8,1,0,16,11,1,15,ratio14_1_5_7.png,English,2020-06-16_09h48.55.824,Experiment_English,3.2.4,Win32,60,,,,,,,,,,,,,,,,,,,,,
,,,,,,,,,,,,Less than half,Most,Many,None,All,Some,Few,More than half,Half,-0.422160655,-0.002493116,1,0,0,QQQ8,,,,,,,,English,2020-06-16_09h48.55.824,Experiment_English,3.2.4,Win32,60,b,41.63800001,1,0,340,226,1,339,ratio32_6_10_5.png,,,,,,,,,,,,
,,,,,,,,,,,,None,Less than half,Most,Half,All,Few,More than half,Many,Some,-0.008864183,-0.27396123,1,0,0,QQQ6,,,,,,,,English,2020-06-16_09h48.55.824,Experiment_English,3.2.4,Win32,60,,,1,0,340,8,1,339,ratio12_3_9_4.png,,,,,,,,,,,,
,,,,,,,,,,,,More than half,Less than half,Half,None,Some,Many,All,Few,Most,0.343490326,-0.299445995,1,0,0,QQQ3,,,,,,,,English,2020-06-16_09h48.55.824,Experiment_English,3.2.4,Win32,60,,,1,0,340,196,1,339,ratio23_8_20_5.png,,,,,,,,,,,,
,,,,,,,,,,,,More than half,None,Half,Some,Most,All,Many,Few,Less than half,0.393351822,-0.024653781,1,0,0,QQQ2,,,,,,,,English,2020-06-16_09h48.55.824,Experiment_English,3.2.4,Win32,60,,,1,0,340,76,1,339,ratio0Y_0_17_10.png,,,,,,,,,,,,
,,,,,,,,,,,,Most,Less than half,Many,Few,Half,None,More than half,Some,All,0.556232711,0.266758982,1,0,0,QQQ1,,,,,,,,English,2020-06-16_09h48.55.824,Experiment_English,3.2.4,Win32,60,,,1,0,340,170,1,339,ratio21_6_9_8.png,,,,,,,,,,,,
,,,,,,,,,,,,Less than half,All,Some,More than half,Many,None,Half,Few,Most,0.515235481,-0.061218845,1,0,0,QQQ2,,,,,,,,English,2020-06-16_09h48.55.824,Experiment_English,3.2.4,Win32,60,,,1,0,340,47,1,339,ratioX0_9_9_4.png,,,,,,,,,,,,
,,,,,,,,,,,,Some,Half,Most,Few,Less than half,Many,More than half,None,All,-0.49196675,0.270083099,1,0,0,QQQ7,,,,,,,,English,2020-06-16_09h48.55.824,Experiment_English,3.2.4,Win32,60,,,1,0,340,37,1,339,ratio11_9_18_8.png,,,,,,,,,,,,
,,,,,,,,,,,,More than half,Less than half,None,Few,Most,Many,All,Half,Some,0.065373978,-0.002493116,1,0,0,QQQ5,,,,,,,,English,2020-06-16_09h48.55.824,Experiment_English,3.2.4,Win32,60,,,1,0,340,215,1,339,ratio31_12_16_8.png,,,,,,,,,,,,
,,,,,,,,,,,,Many,Some,Half,Few,None,Less than half,Most,More than half,All,0.065373978,-0.002493116,1,0,0,QQQ5,,,,,,,,English,2020-06-16_09h48.55.824,Experiment_English,3.2.4,Win32,60,,,1,0,340,26,1,339,ratio11_5_10_4.png,,,,,,,,,,,,
,,,,,,,,,,,,More than half,Some,Many,Less than half,None,All,Most,Few,Half,-0.404432123,0.213573369,1,0,0,QQQ7,,,,,,,,English,2020-06-16_09h48.55.824,Experiment_English,3.2.4,Win32,60,,,1,0,340,272,1,339,ratio41_12_15_7.png,,,,,,,,,,,,
,,,,,,,,,,,,Less than half,Some,Most,None,Many,Half,Few,More than half,All,-0.407756223,0.271191115,1,0,0,QQQ7,,,,,,,,English,2020-06-16_09h48.55.824,Experiment_English,3.2.4,Win32,60,,,1,0,340,186,1,339,ratio23_4_10_2.png,,,,,,,,,,,,
,,,,,,,,,,,,Few,Most,More than half,Less than half,None,Some,Many,Half,All,0.446537419,-0.018005548,1,0,0,QQQ2,,,,,,,,English,2020-06-16_09h48.55.824,Experiment_English,3.2.4,Win32,60,,,1,0,340,308,1,339,ratio51_10_12_9.png,,,,,,,,,,,,
,,,,,,,,,,,,Many,Few,Less than half,None,Half,Most,Some,All,More than half,0.388919689,-0.045706379,1,0,0,QQQ2,,,,,,,,English,2020-06-16_09h48.55.824,Experiment_English,3.2.4,Win32,60,,,1,0,340,6,1,339,ratio12_3_9_1.png,,,,,,,,,,,,
,,,,,,,,,,,,Less than half,All,Some,Most,None,Few,Half,More than half,Many,0.016620515,0.244598317,1,0,0,QQQ4,,,,,,,,English,2020-06-16_09h48.55.824,Experiment_English,3.2.4,Win32,60,,,1,0,340,219,1,339,ratio31_15_20_10.png,,,,,,,,,,,,
,,,,,,,,,,,,All,Less than half,Most,None,Many,Half,Few,More than half,Some,-0.378947358,-0.010249315,1,0,0,QQQ8,,,,,,,,English,2020-06-16_09h48.55.824,Experiment_English,3.2.4,Win32,60,,,1,0,340,299,1,339,ratio43_8_14_17.png,,,,,,,,,,,,
,,,,,,,,,,,,More than half,Some,Less than half,All,Most,None,Many,Half,Few,0.04210528,-0.009141282,1,0,0,QQQ5,,,,,,,,English,2020-06-16_09h48.55.824,Experiment_English,3.2.4,Win32,60,,,1,0,340,333,1,339,ratio91_18_20_6.png,,,,,,,,,,,,
,,,,,,,,,,,,Half,Less than half,More than half,Few,Most,None,All,Some,Many,-0.011080317,0.318836562,1,0,0,QQQ4,,,,,,,,English,2020-06-16_09h48.55.824,Experiment_English,3.2.4,Win32,60,,,1,0,340,106,1,339,ratio14_2_10_2.png,,,,,,,,,,,,
,,,,,,,,,,,,Few,Some,Less than half,All,Most,More than half,None,Many,Half,0.100831042,-0.021329648,1,0,0,QQQ5,,,,,,,,English,2020-06-16_09h48.55.824,Experiment_English,3.2.4,Win32,60,,,1,0,340,305,1,339,ratio51_5_6_14.png,,,,,,,,,,,,
,,,,,,,,,,,,Few,Less than half,All,Most,None,More than half,Half,Some,Many,0.424376753,0.29113568,1,0,0,QQQ1,,,,,,,,English,2020-06-16_09h48.55.824,Experiment_English,3.2.4,Win32,60,,,1,0,340,1,1,339,ratio12_1_3_7.png,,,,,,,,,,,,
,,,,,,,,,,,,Half,Less than half,Some,All,Many,Most,None,Few,More than half,-0.452077553,0.244598317,1,0,0,QQQ7,,,,,,,,English,2020-06-16_09h48.55.824,Experiment_English,3.2.4,Win32,60,,,1,0,340,171,1,339,ratio21_8_12_4.png,,,,,,,,,,,,
,,,,,,,,,,,,Few,Most,Many,Half,All,More than half,Some,Less than half,None,0.056509712,0.323268695,1,0,0,QQQ4,,,,,,,,English,2020-06-16_09h48.55.824,Experiment_English,3.2.4,Win32,60,,,1,0,340,283,1,339,ratio43_4_7_8.png,,,,,,,,,,,,
,,,,,,,,,,,,Half,Less than half,Most,Few,Many,Some,All,More than half,None,0.47756235,-0.304986162,1,0,0,QQQ3,,,,,,,,English,2020-06-16_09h48.55.824,Experiment_English,3.2.4,Win32,60,,,1,0,340,202,1,339,ratio31_3_4_8.png,,,,,,,,,,,,
,,,,,,,,,,,,Many,More than half,Most,Less than half,None,All,Some,Half,Few,-0.342382261,-0.281717463,1,0,0,QQQ9,,,,,,,,English,2020-06-16_09h48.55.824,Experiment_English,3.2.4,Win32,60,,,1,0,340,157,1,339,ratio19_2_20_16.png,,,,,,,,,,,,
,,,,,,,,,,,,Some,All,Most,None,Few,Half,Many,Less than half,More than half,-0.40664819,-0.020221614,1,0,0,QQQ8,,,,,,,,English,2020-06-16_09h48.55.824,Experiment_English,3.2.4,Win32,60,,,1,0,340,256,1,339,ratio34_6_14_11.png,,,,,,,,,,,,
,,,,,,,,,,,,Few,Half,Less than half,None,Most,All,Many,Some,More than half,-0.017728516,-0.055678679,1,0,0,QQQ5,,,,,,,,English,2020-06-16_09h48.55.824,Experiment_English,3.2.4,Win32,60,,,1,0,340,327,1,339,ratio91_9_10_11.png,,,,,,,,,,,,
,,,,,,,,,,,,None,Some,Few,More than half,Half,Most,All,Many,Less than half,0.050969546,-0.266204998,1,0,0,QQQ6,,,,,,,,English,2020-06-16_09h48.55.824,Experiment_English,3.2.4,Win32,60,,,1,0,340,320,1,339,ratio91_9_10_1.png,,,,,,,,,,,,
,,,,,,,,,,,,Some,Half,None,Few,Most,More than half,Many,Less than half,All,-0.032132949,0.328808862,1,0,0,QQQ4,,,,,,,,English,2020-06-16_09h48.55.824,Experiment_English,3.2.4,Win32,60,,,1,0,340,182,1,339,ratio23_2_5_7.png,,,,,,,,,,,,
,,,,,,,,,,,,Half,Less than half,Few,Some,Many,All,Most,More than half,None,0.440997252,-0.302770163,1,0,0,QQQ3,,,,,,,,English,2020-06-16_09h48.55.824,Experiment_English,3.2.4,Win32,60,,,1,0,340,12,1,339,ratio12_4_12_10.png,,,,,,,,,,,,
,,,,,,,,,,,,Most,Many,None,More than half,Few,Some,Half,Less than half,All,0.095290876,0.234626035,1,0,0,QQQ4,,,,,,,,English,2020-06-16_09h48.55.824,Experiment_English,3.2.4,Win32,60,,,1,0,340,278,1,339,ratio41_16_20_9.png,,,,,,,,,,,,
,,,,,,,,,,,,Half,Many,All,Less than half,Most,Few,Some,None,More than half,0.025484781,-0.257340732,1,0,0,QQQ6,,,,,,,,English,2020-06-16_09h48.55.824,Experiment_English,3.2.4,Win32,60,,,1,0,340,0,1,339,ratio12_1_3_3.png,,,,,,,,,,,,
,,,,,,,,,,,,All,More than half,None,Most,Less than half,Many,Few,Some,Half,-0.395567857,-0.246260399,1,0,0,QQQ9,,,,,,,,English,2020-06-16_09h48.55.824,Experiment_English,3.2.4,Win32,60,,,1,0,340,243,1,339,ratio34_3_7_8.png,,,,,,,,,,,,
,,,,,,,,,,,,More than half,All,Some,Less than half,Most,Many,Half,Few,None,0.003324116,0.001939051,1,0,0,QQQ5,,,,,,,,English,2020-06-16_09h48.55.824,Experiment_English,3.2.4,Win32,60,,,1,0,340,300,1,339,ratio51_5_6_1.png,,,,,,,,,,,,
,,,,,,,,,,,,Many,All,Most,Some,Half,Few,More than half,Less than half,None,0.031024947,-0.078947377,1,0,0,QQQ5,,,,,,,,English,2020-06-16_09h48.55.824,Experiment_English,3.2.4,Win32,60,,,1,0,340,18,1,339,ratio12_6_18_7.png,,,,,,,,,,,,
,,,,,,,,,,,,None,Half,Many,Few,More than half,All,Less than half,Some,Most,0.065373978,0.240166201,1,0,0,QQQ4,,,,,,,,English,2020-06-16_09h48.55.824,Experiment_English,3.2.4,Win32,60,,,1,0,340,141,1,339,ratio19_1_10_2.png,0.33130196,-0.418005554,1,0,0,continue_button_pause,1,0,1,0,1,0
,,,,,,,,,,,,,,,,,,,,,,,,,,,,,,,,,,English,2020-06-16_09h48.55.824,Experiment_English,3.2.4,Win32,60,,,1,0,340,141,1,339,ratio19_1_10_2.png,,,,,,,,,,,,
,,,,,,,,,,,,Some,Few,None,Many,Half,Most,More than half,All,Less than half,0.514127583,-0.035734114,1,0,0,QQQ2,,,,,,,,English,2020-06-16_09h48.55.824,Experiment_English,3.2.4,Win32,60,,,1,0,340,144,1,339,ratio19_1_10_11.png,,,,,,,,,,,,
,,,,,,,,,,,,Most,Few,More than half,Many,Less than half,None,Half,Some,All,0.457617751,-0.385872657,1,0,0,QQQ3,,,,,,,,English,2020-06-16_09h48.55.824,Experiment_English,3.2.4,Win32,60,,,1,0,340,297,1,339,ratio43_8_14_13.png,,,,,,,,,,,,
,,,,,,,,,,,,Less than half,All,Most,Few,Some,More than half,None,Half,Many,-0.50526315,0.319944596,1,0,0,QQQ7,,,,,,,,English,2020-06-16_09h48.55.824,Experiment_English,3.2.4,Win32,60,,,1,0,340,64,1,339,ratio0Y_0_7_1.png,,,,,,,,,,,,
,,,,,,,,,,,,Less than half,None,All,Some,Most,More than half,Few,Half,Many,-0.490858717,0.234626035,1,0,0,QQQ7,,,,,,,,English,2020-06-16_09h48.55.824,Experiment_English,3.2.4,Win32,60,,,1,0,340,87,1,339,ratio13_2_8_8.png,,,,,,,,,,,,
,,,,,,,,,,,,All,Some,Half,None,Less than half,Few,Many,More than half,Most,-0.415512456,-0.056786712,1,0,0,QQQ8,,,,,,,,English,2020-06-16_09h48.55.824,Experiment_English,3.2.4,Win32,60,,,1,0,340,221,1,339,ratio32_3_5_3.png,,,,,,,,,,,,
,,,,,,,,,,,,All,Most,More than half,None,Many,Some,Less than half,Few,Half,-0.386703591,-0.035734114,1,0,0,QQQ8,,,,,,,,English,2020-06-16_09h48.55.824,Experiment_English,3.2.4,Win32,60,,,1,0,340,135,1,339,ratio15_3_18_7.png,,,,,,,,,,,,
,,,,,,,,,,,,More than half,None,Some,Many,All,Less than half,Few,Half,Most,-0.45096952,-0.347091493,1,0,0,QQQ9,,,,,,,,English,2020-06-16_09h48.55.824,Experiment_English,3.2.4,Win32,60,,,1,0,340,307,1,339,ratio51_10_12_1.png,,,,,,,,,,,,
,,,,,,,,,,,,Few,More than half,All,Half,Some,Many,Less than half,Most,None,0.513019414,0.232409951,1,0,0,QQQ1,,,,,,,,English,2020-06-16_09h48.55.824,Experiment_English,3.2.4,Win32,60,,,1,0,340,142,1,339,ratio19_1_10_6.png,,,,,,,,,,,,
,,,,,,,,,,,,Few,Less than half,Most,Many,Some,More than half,All,Half,None,0.450969552,-0.303878128,1,0,0,QQQ3,,,,,,,,English,2020-06-16_09h48.55.824,Experiment_English,3.2.4,Win32,60,,,1,0,340,217,1,339,ratio31_15_20_5.png,,,,,,,,,,,,
,,,,,,,,,,,,Few,Half,Many,All,More than half,Less than half,Some,Most,None,-0.476454285,0.027423816,1,0,0,QQQ8,,,,,,,,English,2020-06-16_09h48.55.824,Experiment_English,3.2.4,Win32,60,,,1,0,340,326,1,339,ratio91_9_10_10.png,,,,,,,,,,,,
,,,,,,,,,,,,Less than half,More than half,Many,Most,Some,None,All,Half,Few,-0.072022146,0.325484762,1,0,0,QQQ4,,,,,,,,English,2020-06-16_09h48.55.824,Experiment_English,3.2.4,Win32,60,,,1,0,340,315,1,339,ratio51_15_18_10.png,,,,,,,,,,,,
,,,,,,,,,,,,None,More than half,Most,Few,Some,Half,All,Many,Less than half,-0.419944589,-0.288365663,1,0,0,QQQ9,,,,,,,,English,2020-06-16_09h48.55.824,Experiment_English,3.2.4,Win32,60,,,1,0,340,194,1,339,ratio23_6_15_10.png,,,,,,,,,,,,
,,,,,,,,,,,,Few,Most,Less than half,Some,None,Half,All,More than half,Many,-0.466481986,0.313296396,1,0,0,QQQ7,,,,,,,,English,2020-06-16_09h48.55.824,Experiment_English,3.2.4,Win32,60,,,1,0,340,57,1,339,ratioX0_18_18_1.png,,,,,,,,,,,,
,,,,,,,,,,,,Less than half,Many,More than half,None,Most,Few,All,Some,Half,0.499723015,0.368698059,1,0,0,QQQ1,,,,,,,,English,2020-06-16_09h48.55.824,Experiment_English,3.2.4,Win32,60,,,1,0,340,192,1,339,ratio23_6_15_8.png,,,,,,,,,,,,
,,,,,,,,,,,,Some,None,Less than half,Half,Many,All,Few,More than half,Most,-0.006648184,-0.338227159,1,0,0,QQQ6,,,,,,,,English,2020-06-16_09h48.55.824,Experiment_English,3.2.4,Win32,60,,,1,0,340,44,1,339,ratioX0_7_7_5.png,,,,,,,,,,,,
,,,,,,,,,,,,Some,Few,Less than half,Most,Many,More than half,All,Half,None,0.011080348,0.262326866,1,0,0,QQQ4,,,,,,,,English,2020-06-16_09h48.55.824,Experiment_English,3.2.4,Win32,60,,,1,0,340,228,1,339,ratio32_6_10_7.png,,,,,,,,,,,,
,,,,,,,,,,,,Some,Few,None,Most,All,More than half,Half,Many,Less than half,0.053185612,0.236842101,1,0,0,QQQ4,,,,,,,,English,2020-06-16_09h48.55.824,Experiment_English,3.2.4,Win32,60,,,1,0,340,261,1,339,ratio41_4_5_3.png,,,,,,,,,,,,
,,,,,,,,,,,,Half,None,Less than half,Some,Many,More than half,Few,All,Most,-0.470914119,0.242382268,1,0,0,QQQ7,,,,,,,,English,2020-06-16_09h48.55.824,Experiment_English,3.2.4,Win32,60,,,1,0,340,136,1,339,ratio15_3_18_8.png,,,,,,,,,,,,
,,,,,,,,,,,,More than half,All,Most,Few,Less than half,Half,None,Some,Many,-0.036565014,-0.310526328,1,0,0,QQQ6,,,,,,,,English,2020-06-16_09h48.55.824,Experiment_English,3.2.4,Win32,60,,,1,0,340,282,1,339,ratio43_4_7_7.png,,,,,,,,,,,,
,,,,,,,,,,,,Many,All,Some,Half,Less than half,None,Most,More than half,Few,-0.487534617,0.286703598,1,0,0,QQQ7,,,,,,,,English,2020-06-16_09h48.55.824,Experiment_English,3.2.4,Win32,60,,,1,0,340,276,1,339,ratio41_16_20_4.png,,,,,,,,,,,,
,,,,,,,,,,,,Some,More than half,Half,Less than half,Few,Most,None,Many,All,0.445429385,-0.078947377,1,0,0,QQQ2,,,,,,,,English,2020-06-16_09h48.55.824,Experiment_English,3.2.4,Win32,60,,,1,0,340,239,1,339,ratio32_12_20_10.png,,,,,,,,,,,,
,,,,,,,,,,,,More than half,Many,Some,None,All,Most,Less than half,Half,Few,0.026592814,-0.067867044,1,0,0,QQQ5,,,,,,,,English,2020-06-16_09h48.55.824,Experiment_English,3.2.4,Win32,60,,,1,0,340,45,1,339,ratioX0_8_8_3.png,,,,,,,,,,,,
,,,,,,,,,,,,Few,Most,Many,Less than half,Half,All,None,Some,More than half,0.519667749,-0.060110845,1,0,0,QQQ2,,,,,,,,English,2020-06-16_09h48.55.824,Experiment_English,3.2.4,Win32,60,,,1,0,340,316,1,339,ratio51_15_18_11.png,,,,,,,,,,,,
,,,,,,,,,,,,More than half,None,Less than half,Some,Half,All,Many,Few,Most,0.489750716,-0.28393353,1,0,0,QQQ3,,,,,,,,English,2020-06-16_09h48.55.824,Experiment_English,3.2.4,Win32,60,,,1,0,340,14,1,339,ratio12_5_15_4.png,,,,,,,,,,,,
,,,,,,,,,,,,Some,Less than half,All,More than half,None,Few,Many,Half,Most,0.47423825,-0.04127428,1,0,0,QQQ2,,,,,,,,English,2020-06-16_09h48.55.824,Experiment_English,3.2.4,Win32,60,,,1,0,340,115,1,339,ratio14_4_20_1.png,,,,,,,,,,,,
,,,,,,,,,,,,Few,Many,Most,Half,Some,None,More than half,All,Less than half,0.427700853,-0.208587336,1,0,0,QQQ3,,,,,,,,English,2020-06-16_09h48.55.824,Experiment_English,3.2.4,Win32,60,,,1,0,340,225,1,339,ratio32_6_10_4.png,,,,,,,,,,,,
,,,,,,,,,,,,More than half,Less than half,Most,Some,All,None,Many,Few,Half,0.362326891,-0.33601116,1,0,0,QQQ3,,,,,,,,English,2020-06-16_09h48.55.824,Experiment_English,3.2.4,Win32,60,,,1,0,340,177,1,339,ratio21_12_18_1.png,,,,,,,,,,,,
,,,,,,,,,,,,More than half,Half,Some,Most,All,Less than half,Few,None,Many,-0.046537381,0.245706367,1,0,0,QQQ4,,,,,,,,English,2020-06-16_09h48.55.824,Experiment_English,3.2.4,Win32,60,,,1,0,340,175,1,339,ratio21_10_15_2.png,,,,,,,,,,,,
,,,,,,,,,,,,Many,Most,None,All,Few,More than half,Less than half,Half,Some,-0.052077547,0.073961212,1,0,0,QQQ5,,,,,,,,English,2020-06-16_09h48.55.824,Experiment_English,3.2.4,Win32,60,,,1,0,340,116,1,339,ratio14_4_20_3.png,,,,,,,,,,,,
,,,,,,,,,,,,Less than half,More than half,All,Half,Most,Some,None,Many,Few,-0.436565088,-0.308310329,1,0,0,QQQ9,,,,,,,,English,2020-06-16_09h48.55.824,Experiment_English,3.2.4,Win32,60,,,1,0,340,91,1,339,ratio13_3_12_10.png,,,,,,,,,,,,
,,,,,,,,,,,,Most,Half,All,Less than half,Few,Many,None,Some,More than half,0.450969552,0.042936281,1,0,0,QQQ2,,,,,,,,English,2020-06-16_09h48.55.824,Experiment_English,3.2.4,Win32,60,,,1,0,340,27,1,339,ratio11_5_10_7.png,,,,,,,,,,,,
,,,,,,,,,,,,Some,Few,All,None,Many,Half,Most,Less than half,More than half,-0.428808855,0.290027698,1,0,0,QQQ7,,,,,,,,English,2020-06-16_09h48.55.824,Experiment_English,3.2.4,Win32,60,,,1,0,340,169,1,339,ratio21_6_9_7.png,,,,,,,,,,,,
,,,,,,,,,,,,None,Half,Many,Some,Few,Less than half,More than half,Most,All,-0.040997215,-0.011357348,1,0,0,QQQ5,,,,,,,,English,2020-06-16_09h48.55.824,Experiment_English,3.2.4,Win32,60,,,1,0,340,249,1,339,ratio34_3_7_20.png,,,,,,,,,,,,
,,,,,,,,,,,,None,Less than half,All,Many,More than half,Most,Half,Some,Few,-0.050969514,-0.256232698,1,0,0,QQQ6,,,,,,,,English,2020-06-16_09h48.55.824,Experiment_English,3.2.4,Win32,60,,,1,0,340,266,1,339,ratio41_8_10_2.png,0.312465394,-0.399168988,1,0,0,continue_button_pause,1,0,1,0,1,0
,,,,,,,,,,,,,,,,,,,,,,,,,,,,,,,,,,English,2020-06-16_09h48.55.824,Experiment_English,3.2.4,Win32,60,,,1,0,340,266,1,339,ratio41_8_10_2.png,,,,,,,,,,,,
,,,,,,,,,,,,None,Many,Some,Most,Half,Few,All,Less than half,More than half,0.074238244,0.243490284,1,0,0,QQQ4,,,,,,,,English,2020-06-16_09h48.55.824,Experiment_English,3.2.4,Win32,60,,,1,0,340,270,1,339,ratio41_12_15_3.png,,,,,,,,,,,,
,,,,,,,,,,,,Many,Half,Less than half,Few,More than half,Some,Most,None,All,-0.039889181,0.274515181,1,0,0,QQQ4,,,,,,,,English,2020-06-16_09h48.55.824,Experiment_English,3.2.4,Win32,60,,,1,0,340,150,1,339,ratio19_2_20_1.png,,,,,,,,,,,,
,,,,,,,,,,,,Many,Half,Few,Some,Less than half,Most,All,None,More than half,-0.350138494,-0.263988999,1,0,0,QQQ9,,,,,,,,English,2020-06-16_09h48.55.824,Experiment_English,3.2.4,Win32,60,,,1,0,340,294,1,339,ratio43_8_14_9.png,,,,,,,,,,,,
,,,,,,,,,,,,Few,Many,Some,Half,Most,Less than half,All,More than half,None,-0.435457054,-0.046814446,1,0,0,QQQ8,,,,,,,,English,2020-06-16_09h48.55.824,Experiment_English,3.2.4,Win32,60,,,1,0,340,296,1,339,ratio43_8_14_12.png,,,,,,,,,,,,
,,,,,,,,,,,,Less than half,Half,Most,Many,More than half,Some,All,None,Few,0.42991692,0.00304705,1,0,0,QQQ2,,,,,,,,English,2020-06-16_09h48.55.824,Experiment_English,3.2.4,Win32,60,,,1,0,340,231,1,339,ratio32_9_15_2.png,,,,,,,,,,,,
,,,,,,,,,,,,Many,Some,Most,Less than half,All,Few,None,More than half,Half,-0.371191125,-0.046814446,1,0,0,QQQ8,,,,,,,,English,2020-06-16_09h48.55.824,Experiment_English,3.2.4,Win32,60,,,1,0,340,284,1,339,ratio43_4_7_11.png,,,,,,,,,,,,
,,,,,,,,,,,,More than half,Less than half,Half,Many,Few,All,Most,None,Some,0.067590045,-0.057894779,1,0,0,QQQ5,,,,,,,,English,2020-06-16_09h48.55.824,Experiment_English,3.2.4,Win32,60,,,1,0,340,82,1,339,ratio13_1_4_7.png,,,,,,,,,,,,
,,,,,,,,,,,,None,More than half,Few,Most,Some,All,Half,Many,Less than half,0.084210543,0.201385037,1,0,0,QQQ4,,,,,,,,English,2020-06-16_09h48.55.824,Experiment_English,3.2.4,Win32,60,,,1,0,340,324,1,339,ratio91_9_10_7.png,,,,,,,,,,,,
,,,,,,,,,,,,Many,All,Half,More than half,Less than half,Some,Most,None,Few,-0.442105254,-0.300554029,1,0,0,QQQ9,,,,,,,,English,2020-06-16_09h48.55.824,Experiment_English,3.2.4,Win32,60,,,1,0,340,119,1,339,ratio14_4_20_10.png,,,,,,,,,,,,
,,,,,,,,,,,,Few,All,More than half,Most,Less than half,Some,Many,None,Half,-0.365650959,-0.326038793,1,0,0,QQQ9,,,,,,,,English,2020-06-16_09h48.55.824,Experiment_English,3.2.4,Win32,60,,,1,0,340,288,1,339,ratio43_4_7_18.png,,,,,,,,,,,,
,,,,,,,,,,,,Some,Less than half,All,Half,Most,Many,None,More than half,Few,0.009972315,-0.015789481,1,0,0,QQQ5,,,,,,,,English,2020-06-16_09h48.55.824,Experiment_English,3.2.4,Win32,60,,,1,0,340,203,1,339,ratio31_3_4_9.png,,,,,,,,,,,,
,,,,,,,,,,,,More than half,Some,Few,Less than half,Most,Half,Many,None,All,0.406648221,-0.28393353,1,0,0,QQQ3,,,,,,,,English,2020-06-16_09h48.55.824,Experiment_English,3.2.4,Win32,60,,,1,0,340,131,1,339,ratio15_2_12_14.png,,,,,,,,,,,,
,,,,,,,,,,,,Half,All,More than half,Many,Most,None,Few,Some,Less than half,-0.363434893,0.2534626,1,0,0,QQQ7,,,,,,,,English,2020-06-16_09h48.55.824,Experiment_English,3.2.4,Win32,60,,,1,0,340,152,1,339,ratio19_2_20_6.png,,,,,,,,,,,,
,,,,,,,,,,,,More than half,Half,Most,Some,None,All,Many,Less than half,Few,-0.499722983,-0.04238228,1,0,0,QQQ8,,,,,,,,English,2020-06-16_09h48.55.824,Experiment_English,3.2.4,Win32,60,,,1,0,340,251,1,339,ratio34_6_14_2.png,,,,,,,,,,,,
,,,,,,,,,,,,Few,Less than half,Most,Half,All,Some,None,Many,More than half,0.436565255,-0.266204998,1,0,0,QQQ3,,,,,,,,English,2020-06-16_09h48.55.824,Experiment_English,3.2.4,Win32,60,,,1,0,340,160,1,339,ratio21_2_3_2.png,,,,,,,,,,,,
,,,,,,,,,,,,Half,Many,Few,Less than half,More than half,Some,None,All,Most,-0.475346252,-0.306094195,1,0,0,QQQ9,,,,,,,,English,2020-06-16_09h48.55.824,Experiment_English,3.2.4,Win32,60,,,1,0,340,302,1,339,ratio51_5_6_5.png,,,,,,,,,,,,
,,,,,,,,,,,,All,Few,None,Less than half,More than half,Half,Many,Most,Some,0.459833818,-0.237396133,1,0,0,QQQ3,,,,,,,,English,2020-06-16_09h48.55.824,Experiment_English,3.2.4,Win32,60,,,1,0,340,73,1,339,ratio0Y_0_14_7.png,,,,,,,,,,,,
,,,,,,,,,,,,Few,More than half,Half,None,Many,Less than half,Most,Some,All,0.465373984,-0.200831035,1,0,0,QQQ3,,,,,,,,English,2020-06-16_09h48.55.824,Experiment_English,3.2.4,Win32,60,,,1,0,340,23,1,339,ratio11_3_6_9.png,,,,,,,,,,,,
,,,,,,,,,,,,Most,More than half,Half,All,None,Some,Less than half,Few,Many,-0.463157886,-0.015789481,1,0,0,QQQ8,,,,,,,,English,2020-06-16_09h48.55.824,Experiment_English,3.2.4,Win32,60,,,1,0,340,184,1,339,ratio23_2_5_10.png,,,,,,,,,,,,
,,,,,,,,,,,,All,Some,Half,More than half,None,Most,Less than half,Many,Few,0.524099747,-0.04127428,1,0,0,QQQ2,,,,,,,,English,2020-06-16_09h48.55.824,Experiment_English,3.2.4,Win32,60,,,1,0,340,198,1,339,ratio23_8_20_7.png,,,,,,,,,,,,
,,,,,,,,,,,,Half,All,Few,Many,None,Less than half,Some,Most,More than half,-0.376731292,-0.082271477,1,0,0,QQQ8,,,,,,,,English,2020-06-16_09h48.55.824,Experiment_English,3.2.4,Win32,60,,,1,0,340,267,1,339,ratio41_8_10_4.png,,,,,,,,,,,,
,,,,,,,,,,,,Most,None,Some,Half,Less than half,More than half,Many,Few,All,-0.514127382,-0.054570645,1,0,0,QQQ8,,,,,,,,English,2020-06-16_09h48.55.824,Experiment_English,3.2.4,Win32,60,,,1,0,340,145,1,339,ratio19_1_10_15.png,,,,,,,,,,,,
,,,,,,,,,,,,All,Some,More than half,Most,Many,Few,Half,None,Less than half,0.431025088,0.274515181,1,0,0,QQQ1,,,,,,,,English,2020-06-16_09h48.55.824,Experiment_English,3.2.4,Win32,60,,,1,0,340,43,1,339,ratioX0_6_6_9.png,,,,,,,,,,,,
,,,,,,,,,,,,Half,Most,Few,Less than half,None,All,More than half,Some,Many,0.432132986,-0.004709149,1,0,0,QQQ2,,,,,,,,English,2020-06-16_09h48.55.824,Experiment_English,3.2.4,Win32,60,,,1,0,340,323,1,339,ratio91_9_10_5.png,,,,,,,,,,,,
,,,,,,,,,,,,Many,More than half,Some,None,Few,Less than half,Half,Most,All,-0.004432117,-0.034626047,1,0,0,QQQ5,,,,,,,,English,2020-06-16_09h48.55.824,Experiment_English,3.2.4,Win32,60,,,1,0,340,183,1,339,ratio23_2_5_9.png,,,,,,,,,,,,
,,,,,,,,,,,,None,Most,Few,Half,Some,All,Many,Less than half,More than half,0.357894758,0.264542933,1,0,0,QQQ1,,,,,,,,English,2020-06-16_09h48.55.824,Experiment_English,3.2.4,Win32,60,,,1,0,340,71,1,339,ratio0Y_0_12_10.png,,,,,,,,,,,,
,,,,,,,,,,,,Less than half,None,Half,Few,Most,Some,All,More than half,Many,-0.01883655,0.254570617,1,0,0,QQQ4,,,,,,,,English,2020-06-16_09h48.55.824,Experiment_English,3.2.4,Win32,60,,,1,0,340,101,1,339,ratio14_1_5_7.png,,,,,,,,,,,,
,,,,,,,,,,,,Many,None,Some,Less than half,Most,All,Half,Few,More than half,0.549584512,-0.301662062,1,0,0,QQQ3,,,,,,,,English,2020-06-16_09h48.55.824,Experiment_English,3.2.4,Win32,60,,,1,0,340,98,1,339,ratio13_5_20_3.png,,,,,,,,,,,,
,,,,,,,,,,,,Most,Less than half,More than half,Half,None,Many,All,Some,Few,0.47091415,0.313296396,1,0,0,QQQ1,,,,,,,,English,2020-06-16_09h48.55.824,Experiment_English,3.2.4,Win32,60,,,1,0,340,329,1,339,ratio91_9_10_20.png,,,,,,,,,,,,
,,,,,,,,,,,,All,More than half,Most,Few,Some,Less than half,Half,None,Many,0.409972321,-0.258448832,1,0,0,QQQ3,,,,,,,,English,2020-06-16_09h48.55.824,Experiment_English,3.2.4,Win32,60,,,1,0,340,335,1,339,ratio91_18_20_11.png,,,,,,,,,,,,
,,,,,,,,,,,,Few,Half,Less than half,Some,Most,Many,More than half,All,None,0.546260412,0.3775623,1,0,0,QQQ1,,,,,,,,English,2020-06-16_09h48.55.824,Experiment_English,3.2.4,Win32,60,,,1,0,340,84,1,339,ratio13_2_8_1.png,,,,,,,,,,,,
,,,,,,,,,,,,Many,None,Few,Some,More than half,Less than half,Most,All,Half,0.516343514,-0.011357348,1,0,0,QQQ2,,,,,,,,English,2020-06-16_09h48.55.824,Experiment_English,3.2.4,Win32,60,,,1,0,340,77,1,339,ratio0Y_0_18_3.png,,,,,,,,,,,,
,,,,,,,,,,,,Less than half,More than half,Half,None,All,Many,Few,Some,Most,0.045429379,-0.012465382,1,0,0,QQQ5,,,,,,,,English,2020-06-16_09h48.55.824,Experiment_English,3.2.4,Win32,60,,,1,0,340,55,1,339,ratioX0_16_16_3.png,,,,,,,,,,,,
,,,,,,,,,,,,More than half,Half,Some,Less than half,Many,None,Few,All,Most,0.509695314,-0.268421064,1,0,0,QQQ3,,,,,,,,English,2020-06-16_09h48.55.824,Experiment_English,3.2.4,Win32,60,,,1,0,340,38,1,339,ratio11_10_20_5.png,0.38227149,-0.381440456,1,0,0,continue_button_pause,1,0,1,0,1,0
,,,,,,,,,,,,,,,,,,,,,,,,,,,,,,,,,,English,2020-06-16_09h48.55.824,Experiment_English,3.2.4,Win32,60,,,1,0,340,38,1,339,ratio11_10_20_5.png,,,,,,,,,,,,
,,,,,,,,,,,,None,Few,More than half,Some,Most,All,Many,Half,Less than half,-0.060941813,0.298891964,1,0,0,QQQ4,,,,,,,,English,2020-06-16_09h48.55.824,Experiment_English,3.2.4,Win32,60,,,1,0,340,241,1,339,ratio34_3_7_5.png,,,,,,,,,,,,
,,,,,,,,,,,,More than half,Some,Less than half,Few,Half,Many,None,Most,All,0.525207915,-0.016897515,1,0,0,QQQ2,,,,,,,,English,2020-06-16_09h48.55.824,Experiment_English,3.2.4,Win32,60,,,1,0,340,193,1,339,ratio23_6_15_9.png,,,,,,,,,,,,
,,,,,,,,,,,,Less than half,All,Few,Some,None,Half,More than half,Most,Many,-0.469806085,-0.024653781,1,0,0,QQQ8,,,,,,,,English,2020-06-16_09h48.55.824,Experiment_English,3.2.4,Win32,60,,,1,0,340,164,1,339,ratio21_4_6_6.png,,,,,,,,,,,,
,,,,,,,,,,,,Less than half,Half,Few,More than half,All,Many,Some,Most,None,0.569529245,-0.280609498,1,0,0,QQQ3,,,,,,,,English,2020-06-16_09h48.55.824,Experiment_English,3.2.4,Win32,60,,,1,0,340,139,1,339,ratio15_3_18_20.png,,,,,,,,,,,,
,,,,,,,,,,,,Some,Most,None,All,Half,Many,More than half,Less than half,Few,0.398891989,-0.009141282,1,0,0,QQQ2,,,,,,,,English,2020-06-16_09h48.55.824,Experiment_English,3.2.4,Win32,60,,,1,0,340,238,1,339,ratio32_12_20_9.png,,,,,,,,,,,,
,,,,,,,,,,,,Some,Half,More than half,Most,All,Few,Less than half,None,Many,0.357894758,0.293351781,1,0,0,QQQ1,,,,,,,,English,2020-06-16_09h48.55.824,Experiment_English,3.2.4,Win32,60,,,1,0,340,286,1,339,ratio43_4_7_15.png,,,,,,,,,,,,
,,,,,,,,,,,,More than half,Few,Half,Less than half,Many,Some,Most,None,All,0.356786725,0.019667549,1,0,0,QQQ2,,,,,,,,English,2020-06-16_09h48.55.824,Experiment_English,3.2.4,Win32,60,,,1,0,340,114,1,339,ratio14_3_15_10.png,,,,,,,,,,,,
,,,,,,,,,,,,More than half,Half,Most,Few,Less than half,None,Some,Many,All,0.064265945,-0.013573449,1,0,0,QQQ5,,,,,,,,English,2020-06-16_09h48.55.824,Experiment_English,3.2.4,Win32,60,,,1,0,340,92,1,339,ratio13_4_16_3.png,,,,,,,,,,,,
,,,,,,,,,,,,More than half,Few,None,All,Less than half,Most,Many,Some,Half,0.511911381,-0.015789481,1,0,0,QQQ2,,,,,,,,English,2020-06-16_09h48.55.824,Experiment_English,3.2.4,Win32,60,,,1,0,340,138,1,339,ratio15_3_18_17.png,,,,,,,,,,,,
,,,,,,,,,,,,Few,Less than half,Many,All,Some,Most,More than half,None,Half,0.025484781,0.005263151,1,0,0,QQQ5,,,,,,,,English,2020-06-16_09h48.55.824,Experiment_English,3.2.4,Win32,60,,,1,0,340,257,1,339,ratio34_6_14_12.png,,,,,,,,,,,,
,,,,,,,,,,,,All,None,Some,Few,Less than half,Most,Many,More than half,Half,-0.001108017,-0.259556798,1,0,0,QQQ6,,,,,,,,English,2020-06-16_09h48.55.824,Experiment_English,3.2.4,Win32,60,,,1,0,340,168,1,339,ratio21_6_9_3.png,,,,,,,,,,,,
,,,,,,,,,,,,Some,Half,Most,Few,Many,Less than half,All,None,More than half,0.504155148,0.340997228,1,0,0,QQQ1,,,,,,,,English,2020-06-16_09h48.55.824,Experiment_English,3.2.4,Win32,60,,,1,0,340,29,1,339,ratio11_6_12_1.png,,,,,,,,,,,,
,,,,,,,,,,,,Less than half,Many,More than half,Most,Few,All,Some,None,Half,-0.058725679,-0.2473685,1,0,0,QQQ6,,,,,,,,English,2020-06-16_09h48.55.824,Experiment_English,3.2.4,Win32,60,,,1,0,340,53,1,339,ratioX0_14_14_8.png,,,,,,,,,,,,
,,,,,,,,,,,,Some,Less than half,None,Half,Many,Few,All,Most,More than half,-0.426592788,0.040720215,1,0,0,QQQ8,,,,,,,,English,2020-06-16_09h48.55.824,Experiment_English,3.2.4,Win32,60,,,1,0,340,263,1,339,ratio41_4_5_5.png,,,,,,,,,,,,
,,,,,,,,,,,,Less than half,Many,Few,Some,All,More than half,Most,None,Half,-0.386703591,0.268975015,1,0,0,QQQ7,,,,,,,,English,2020-06-16_09h48.55.824,Experiment_English,3.2.4,Win32,60,,,1,0,340,321,1,339,ratio91_9_10_2.png,,,,,,,,,,,,
,,,,,,,,,,,,None,Half,Less than half,More than half,Some,Many,Few,Most,All,0.080886444,-0.060110845,1,0,0,QQQ5,,,,,,,,English,2020-06-16_09h48.55.824,Experiment_English,3.2.4,Win32,60,,,1,0,340,197,1,339,ratio23_8_20_6.png,,,,,,,,,,,,
,,,,,,,,,,,,Few,Half,Most,More than half,Some,Less than half,All,Many,None,0.045429379,-0.071191144,1,0,0,QQQ5,,,,,,,,English,2020-06-16_09h48.55.824,Experiment_English,3.2.4,Win32,60,,,1,0,340,242,1,339,ratio34_3_7_6.png,,,,,,,,,,,,
,,,,,,,,,,,,More than half,Half,None,Few,Most,Many,Less than half,Some,All,-0.439889187,0.223545702,1,0,0,QQQ7,,,,,,,,English,2020-06-16_09h48.55.824,Experiment_English,3.2.4,Win32,60,,,1,0,340,96,1,339,ratio13_5_20_1.png,,,,,,,,,,,,
,,,,,,,,,,,,Most,More than half,Less than half,Half,Some,All,Few,Many,None,-0.445429354,-0.225207835,1,0,0,QQQ9,,,,,,,,English,2020-06-16_09h48.55.824,Experiment_English,3.2.4,Win32,60,,,1,0,340,70,1,339,ratio0Y_0_12_5.png,,,,,,,,,,,,
,,,,,,,,,,,,Half,More than half,None,All,Less than half,Most,Some,Many,Few,-0.40664819,-0.236288167,1,0,0,QQQ9,,,,,,,,English,2020-06-16_09h48.55.824,Experiment_English,3.2.4,Win32,60,,,1,0,340,130,1,339,ratio15_2_12_12.png,,,,,,,,,,,,
,,,,,,,,,,,,None,Most,Few,More than half,Some,All,Many,Half,Less than half,0.466482017,0.021883649,1,0,0,QQQ2,,,,,,,,English,2020-06-16_09h48.55.824,Experiment_English,3.2.4,Win32,60,,,1,0,340,295,1,339,ratio43_8_14_11.png,,,,,,,,,,,,
,,,,,,,,,,,,Many,Less than half,Half,None,All,More than half,Some,Few,Most,-0.375623258,-0.252908666,1,0,0,QQQ9,,,,,,,,English,2020-06-16_09h48.55.824,Experiment_English,3.2.4,Win32,60,,,1,0,340,216,1,339,ratio31_15_20_3.png,,,,,,,,,,,,
,,,,,,,,,,,,Half,Few,Less than half,All,More than half,Many,None,Most,Some,0.385595589,-0.031301947,1,0,0,QQQ2,,,,,,,,English,2020-06-16_09h48.55.824,Experiment_English,3.2.4,Win32,60,,,1,0,340,81,1,339,ratio13_1_4_5.png,,,,,,,,,,,,
,,,,,,,,,,,,All,None,Few,Most,Some,Many,More than half,Less than half,Half,-0.065373946,0.343213294,1,0,0,QQQ4,,,,,,,,English,2020-06-16_09h48.55.824,Experiment_English,3.2.4,Win32,60,,,1,0,340,174,1,339,ratio21_10_15_1.png,,,,,,,,,,,,
,,,,,,,,,,,,Few,Less than half,Half,Some,Most,More than half,None,Many,All,-0.067590013,0.260110783,1,0,0,QQQ4,,,,,,,,English,2020-06-16_09h48.55.824,Experiment_English,3.2.4,Win32,60,,,1,0,340,199,1,339,ratio23_8_20_8.png,,,,,,,,,,,,
,,,,,,,,,,,,Some,Many,More than half,All,Few,Less than half,None,Half,Most,-0.453185586,-0.365927991,1,0,0,QQQ9,,,,,,,,English,2020-06-16_09h48.55.824,Experiment_English,3.2.4,Win32,60,,,1,0,340,123,1,339,ratio15_1_6_12.png,,,,,,,,,,,,
,,,,,,,,,,,,Many,None,Less than half,Few,All,More than half,Half,Most,Some,-0.433240988,-0.055678679,1,0,0,QQQ8,,,,,,,,English,2020-06-16_09h48.55.824,Experiment_English,3.2.4,Win32,60,,,1,0,340,313,1,339,ratio51_15_18_2.png,,,,,,,,,,,,
,,,,,,,,,,,,All,More than half,Half,Many,None,Most,Some,Less than half,Few,-0.385595558,-0.290581729,1,0,0,QQQ9,,,,,,,,English,2020-06-16_09h48.55.824,Experiment_English,3.2.4,Win32,60,,,1,0,340,126,1,339,ratio15_2_12_1.png,,,,,,,,,,,,
,,,,,,,,,,,,Some,None,All,Less than half,Half,Few,Most,Many,More than half,-0.391135724,0.290027698,1,0,0,QQQ7,,,,,,,,English,2020-06-16_09h48.55.824,Experiment_English,3.2.4,Win32,60,,,1,0,340,312,1,339,ratio51_10_12_16.png,,,,,,,,,,,,
,,,,,,,,,,,,More than half,Most,Many,Some,All,Less than half,None,Few,Half,-0.459833786,-0.044598346,1,0,0,QQQ8,,,,,,,,English,2020-06-16_09h48.55.824,Experiment_English,3.2.4,Win32,60,,,1,0,340,9,1,339,ratio12_3_9_5.png,,,,,,,,,,,,
,,,,,,,,,,,,More than half,Few,None,Less than half,All,Many,Half,Most,Some,0.496398915,0.031855949,1,0,0,QQQ2,,,,,,,,English,2020-06-16_09h48.55.824,Experiment_English,3.2.4,Win32,60,,,1,0,340,151,1,339,ratio19_2_20_4.png,,,,,,,,,,,,
,,,,,,,,,,,,Many,Less than half,Half,More than half,Most,Few,None,Some,All,0.065373978,-0.036842113,1,0,0,QQQ5,,,,,,,,English,2020-06-16_09h48.55.824,Experiment_English,3.2.4,Win32,60,,,1,0,340,314,1,339,ratio51_15_18_4.png,,,,,,,,,,,,
,,,,,,,,,,,,Most,None,Many,Few,Some,Less than half,Half,More than half,All,0.049861512,0.215789469,1,0,0,QQQ4,,,,,,,,English,2020-06-16_09h48.55.824,Experiment_English,3.2.4,Win32,60,,,1,0,340,121,1,339,ratio15_1_6_4.png,,,,,,,,,,,,
,,,,,,,,,,,,Few,Half,Many,None,Some,Less than half,More than half,All,Most,-0.383379491,-0.314958461,1,0,0,QQQ9,,,,,,,,English,2020-06-16_09h48.55.824,Experiment_English,3.2.4,Win32,60,,,1,0,340,339,1,339,ratio91_18_20_19.png,0.392243924,-0.427977853,1,0,0,continue_button_pause,1,0,1,0,1,0
,,,,,,,,,,,,,,,,,,,,,,,,,,,,,,,,,,English,2020-06-16_09h48.55.824,Experiment_English,3.2.4,Win32,60,,,1,0,340,339,1,339,ratio91_18_20_19.png,,,,,,,,,,,,
,,,,,,,,,,,,Less than half,Most,None,More than half,Half,All,Few,Some,Many,0.435457086,0.022991683,1,0,0,QQQ2,,,,,,,,English,2020-06-16_09h48.55.824,Experiment_English,3.2.4,Win32,60,,,1,0,340,301,1,339,ratio51_5_6_4.png,,,,,,,,,,,,
,,,,,,,,,,,,Many,Half,Most,More than half,None,Less than half,Few,Some,All,0.437673153,-0.050138512,1,0,0,QQQ2,,,,,,,,English,2020-06-16_09h48.55.824,Experiment_English,3.2.4,Win32,60,,,1,0,340,227,1,339,ratio32_6_10_6.png,,,,,,,,,,,,
,,,,,,,,,,,,Some,All,Few,Many,Half,Less than half,Most,More than half,None,0.436565255,0.052908547,1,0,0,QQQ2,,,,,,,,English,2020-06-16_09h48.55.824,Experiment_English,3.2.4,Win32,60,,,1,0,340,42,1,339,ratioX0_5_5_5.png,,,,,,,,,,,,
,,,,,,,,,,,,All,More than half,Less than half,None,Few,Half,Some,Most,Many,-0.354570627,-0.05900288,1,0,0,QQQ8,,,,,,,,English,2020-06-16_09h48.55.824,Experiment_English,3.2.4,Win32,60,,,1,0,340,328,1,339,ratio91_9_10_15.png,,,,,,,,,,,,
,,,,,,,,,,,,All,Many,Less than half,Few,Most,Some,More than half,Half,None,0.107479242,0.283379481,1,0,0,QQQ4,,,,,,,,English,2020-06-16_09h48.55.824,Experiment_English,3.2.4,Win32,60,,,1,0,340,4,1,339,ratio12_2_6_5.png,,,,,,,,,,,,
,,,,,,,,,,,,Most,None,Few,More than half,All,Half,Some,Many,Less than half,0.581717476,0.297783931,1,0,0,QQQ1,,,,,,,,English,2020-06-16_09h48.55.824,Experiment_English,3.2.4,Win32,60,,,1,0,340,337,1,339,ratio91_18_20_16.png,,,,,,,,,,,,
,,,,,,,,,,,,All,Some,None,Less than half,Many,Most,Few,More than half,Half,-0.49529085,0.266758982,1,0,0,QQQ7,,,,,,,,English,2020-06-16_09h48.55.824,Experiment_English,3.2.4,Win32,60,,,1,0,340,112,1,339,ratio14_3_15_4.png,,,,,,,,,,,,
,,,,,,,,,,,,Some,Less than half,Most,Half,None,Many,All,More than half,Few,-0.374515225,-0.250692532,1,0,0,QQQ9,,,,,,,,English,2020-06-16_09h48.55.824,Experiment_English,3.2.4,Win32,60,,,1,0,340,159,1,339,ratio19_2_20_20.png,,,,,,,,,,,,
,,,,,,,,,,,,None,Less than half,Many,Few,Most,Half,More than half,All,Some,0.040997314,0.278947365,1,0,0,QQQ4,,,,,,,,English,2020-06-16_09h48.55.824,Experiment_English,3.2.4,Win32,60,,,1,0,340,153,1,339,ratio19_2_20_8.png,,,,,,,,,,,,
,,,,,,,,,,,,All,More than half,Most,Many,Some,Few,None,Less than half,Half,-0.003324016,-0.049030479,1,0,0,QQQ5,,,,,,,,English,2020-06-16_09h48.55.824,Experiment_English,3.2.4,Win32,60,,,1,0,340,250,1,339,ratio34_6_14_1.png,,,,,,,,,,,,
,,,,,,,,,,,,Half,All,Many,More than half,Few,Less than half,Some,None,Most,-0.411080323,-0.055678679,1,0,0,QQQ8,,,,,,,,English,2020-06-16_09h48.55.824,Experiment_English,3.2.4,Win32,60,,,1,0,340,63,1,339,ratio0Y_0_6_8.png,,,,,,,,,,,,
,,,,,,,,,,,,None,Some,Less than half,All,Half,More than half,Most,Many,Few,-0.439889187,-0.326038793,1,0,0,QQQ9,,,,,,,,English,2020-06-16_09h48.55.824,Experiment_English,3.2.4,Win32,60,,,1,0,340,7,1,339,ratio12_3_9_2.png,,,,,,,,,,,,
,,,,,,,,,,,,More than half,None,Most,Many,Few,Half,Some,All,Less than half,-0.067590013,0.036288048,1,0,0,QQQ5,,,,,,,,English,2020-06-16_09h48.55.824,Experiment_English,3.2.4,Win32,60,,,1,0,340,102,1,339,ratio14_1_5_8.png,,,,,,,,,,,,
,,,,,,,,,,,,Few,Many,None,All,Some,Most,Half,Less than half,More than half,0.367867057,-0.312742394,1,0,0,QQQ3,,,,,,,,English,2020-06-16_09h48.55.824,Experiment_English,3.2.4,Win32,60,,,1,0,340,61,1,339,ratio0Y_0_4_7.png,,,,,,,,,,,,
,,,,,,,,,,,,Some,None,More than half,Few,Less than half,All,Many,Most,Half,0.027700847,0.343213294,1,0,0,QQQ4,,,,,,,,English,2020-06-16_09h48.55.824,Experiment_English,3.2.4,Win32,60,,,1,0,340,134,1,339,ratio15_3_18_5.png,,,,,,,,,,,,
,,,,,,,,,,,,All,Many,None,Less than half,Most,More than half,Few,Half,Some,-0.475346252,0.245706367,1,0,0,QQQ7,,,,,,,,English,2020-06-16_09h48.55.824,Experiment_English,3.2.4,Win32,60,,,1,0,340,105,1,339,ratio14_2_10_1.png,,,,,,,,,,,,
,,,,,,,,,,,,Half,Many,Less than half,Most,Few,None,All,Some,More than half,0.145152373,-0.016897515,1,0,0,QQQ5,,,,,,,,English,2020-06-16_09h48.55.824,Experiment_English,3.2.4,Win32,60,,,1,0,340,11,1,339,ratio12_4_12_7.png,,,,,,,,,,,,
,,,,,,,,,,,,More than half,Many,Few,None,Half,Less than half,Most,Some,All,-0.408864256,0.271191115,1,0,0,QQQ7,,,,,,,,English,2020-06-16_09h48.55.824,Experiment_English,3.2.4,Win32,60,,,1,0,340,173,1,339,ratio21_8_12_9.png,,,,,,,,,,,,
,,,,,,,,,,,,Most,More than half,All,Few,Some,None,Many,Less than half,Half,0.362326891,0.309972296,1,0,0,QQQ1,,,,,,,,English,2020-06-16_09h48.55.824,Experiment_English,3.2.4,Win32,60,,,1,0,340,214,1,339,ratio31_12_16_5.png,,,,,,,,,,,,
,,,,,,,,,,,,All,Some,None,Half,Few,More than half,Less than half,Many,Most,-0.362326859,-0.222991701,1,0,0,QQQ9,,,,,,,,English,2020-06-16_09h48.55.824,Experiment_English,3.2.4,Win32,60,,,1,0,340,269,1,339,ratio41_8_10_6.png,,,,,,,,,,,,
,,,,,,,,,,,,Half,Less than half,Most,Some,Few,None,All,More than half,Many,-0.008864183,0.016343483,1,0,0,QQQ5,,,,,,,,English,2020-06-16_09h48.55.824,Experiment_English,3.2.4,Win32,60,,,1,0,340,154,1,339,ratio19_2_20_11.png,,,,,,,,,,,,
,,,,,,,,,,,,Most,Some,Less than half,None,All,Half,Few,More than half,Many,-0.39667589,0.236842101,1,0,0,QQQ7,,,,,,,,English,2020-06-16_09h48.55.824,Experiment_English,3.2.4,Win32,60,,,1,0,340,156,1,339,ratio19_2_20_14.png,,,,,,,,,,,,
,,,,,,,,,,,,Less than half,Many,Some,More than half,Half,Most,All,None,Few,-0.519667548,-0.27396123,1,0,0,QQQ9,,,,,,,,English,2020-06-16_09h48.55.824,Experiment_English,3.2.4,Win32,60,,,1,0,340,97,1,339,ratio13_5_20_2.png,,,,,,,,,,,,
,,,,,,,,,,,,Half,Few,Many,Some,None,Less than half,More than half,Most,All,-0.39667589,-0.217451534,1,0,0,QQQ9,,,,,,,,English,2020-06-16_09h48.55.824,Experiment_English,3.2.4,Win32,60,,,1,0,340,40,1,339,ratioX0_3_3_5.png,,,,,,,,,,,,
,,,,,,,,,,,,None,All,Most,Less than half,Half,Few,Some,Many,More than half,0.077562344,-0.036842113,1,0,0,QQQ5,,,,,,,,English,2020-06-16_09h48.55.824,Experiment_English,3.2.4,Win32,60,,,1,0,340,39,1,339,ratio11_10_20_6.png,,,,,,,,,,,,
,,,,,,,,,,,,More than half,Some,Less than half,Most,None,All,Few,Half,Many,0.059833812,-0.044598346,1,0,0,QQQ5,,,,,,,,English,2020-06-16_09h48.55.824,Experiment_English,3.2.4,Win32,60,,,1,0,340,69,1,339,ratio0Y_0_11_6.png,,,,,,,,,,,,
,,,,,,,,,,,,None,More than half,Most,Few,All,Less than half,Some,Half,Many,0.374515257,-0.271745164,1,0,0,QQQ3,,,,,,,,English,2020-06-16_09h48.55.824,Experiment_English,3.2.4,Win32,60,,,1,0,340,206,1,339,ratio31_6_8_6.png,,,,,,,,,,,,
,,,,,,,,,,,,Many,Half,More than half,All,Few,Some,Most,None,Less than half,0.438781186,-0.330470994,1,0,0,QQQ3,,,,,,,,English,2020-06-16_09h48.55.824,Experiment_English,3.2.4,Win32,60,,,1,0,340,220,1,339,ratio32_3_5_1.png,,,,,,,,,,,,
,,,,,,,,,,,,Few,All,Many,More than half,Most,Some,Half,None,Less than half,0.145152373,-0.062326878,1,0,0,QQQ5,,,,,,,,English,2020-06-16_09h48.55.824,Experiment_English,3.2.4,Win32,60,,,1,0,340,338,1,339,ratio91_18_20_18.png,,,,,,,,,,,,
,,,,,,,,,,,,More than half,Most,Many,Less than half,Some,Few,All,Half,None,0.076454311,-0.238504166,1,0,0,QQQ6,,,,,,,,English,2020-06-16_09h48.55.824,Experiment_English,3.2.4,Win32,60,,,1,0,340,83,1,339,ratio13_1_4_10.png,,,,,,,,,,,,
,,,,,,,,,,,,More than half,Some,Less than half,Few,Half,All,None,Many,Most,0.397784091,0.247922434,1,0,0,QQQ1,,,,,,,,English,2020-06-16_09h48.55.824,Experiment_English,3.2.4,Win32,60,,,1,0,340,161,1,339,ratio21_2_3_8.png,,,,,,,,,,,,
,,,,,,,,,,,,Less than half,More than half,Few,Half,All,Many,Most,Some,None,-0.370083092,-0.000277016,1,0,0,QQQ8,,,,,,,,English,2020-06-16_09h48.55.824,Experiment_English,3.2.4,Win32,60,,,1,0,340,99,1,339,ratio13_5_20_4.png,,,,,,,,,,,,
,,,,,,,,,,,,All,Many,More than half,None,Some,Few,Half,Most,Less than half,0.467590051,0.331024928,1,0,0,QQQ1,,,,,,,,English,2020-06-16_09h48.55.824,Experiment_English,3.2.4,Win32,60,,,1,0,340,59,1,339,ratioX0_20_20_9.png,,,,,,,,,,,,
,,,,,,,,,,,,Many,Half,Most,All,None,More than half,Few,Some,Less than half,0.406648221,-0.214127502,1,0,0,QQQ3,,,,,,,,English,2020-06-16_09h48.55.824,Experiment_English,3.2.4,Win32,60,,,1,0,340,332,1,339,ratio91_18_20_4.png,0.421052654,-0.359279791,1,0,0,continue_button_pause,1,0,1,0,1,0
,,,,,,,,,,,,,,,,,,,,,,,,,,,,,,,,,,English,2020-06-16_09h48.55.824,Experiment_English,3.2.4,Win32,60,,,1,0,340,332,1,339,ratio91_18_20_4.png,,,,,,,,,,,,
,,,,,,,,,,,,Many,None,Some,More than half,Most,All,Half,Few,Less than half,0.084210543,-0.014681448,1,0,0,QQQ5,,,,,,,,English,2020-06-16_09h48.55.824,Experiment_English,3.2.4,Win32,60,,,1,0,340,318,1,339,ratio51_15_18_18.png,,,,,,,,,,,,
,,,,,,,,,,,,Many,All,Some,Most,More than half,None,Less than half,Half,Few,0.427700853,-0.237396133,1,0,0,QQQ3,,,,,,,,English,2020-06-16_09h48.55.824,Experiment_English,3.2.4,Win32,60,,,1,0,340,188,1,339,ratio23_4_10_6.png,,,,,,,,,,,,
,,,,,,,,,,,,Few,Some,More than half,Half,None,All,Many,Less than half,Most,0.405540188,0.311080313,1,0,0,QQQ1,,,,,,,,English,2020-06-16_09h48.55.824,Experiment_English,3.2.4,Win32,60,,,1,0,340,148,1,339,ratio19_1_10_19.png,,,,,,,,,,,,
,,,,,,,,,,,,Few,Some,Many,More than half,None,Half,All,Less than half,Most,-0.442105254,-0.263988999,1,0,0,QQQ9,,,,,,,,English,2020-06-16_09h48.55.824,Experiment_English,3.2.4,Win32,60,,,1,0,340,279,1,339,ratio41_16_20_10.png,,,,,,,,,,,,
,,,,,,,,,,,,Less than half,Many,Most,None,Few,More than half,All,Some,Half,0.004432149,0.284487531,1,0,0,QQQ4,,,,,,,,English,2020-06-16_09h48.55.824,Experiment_English,3.2.4,Win32,60,,,1,0,340,65,1,339,ratio0Y_0_8_4.png,,,,,,,,,,,,
,,,,,,,,,,,,Half,Many,Less than half,More than half,All,None,Most,Few,Some,0.03213298,-0.09778401,1,0,0,QQQ5,,,,,,,,English,2020-06-16_09h48.55.824,Experiment_English,3.2.4,Win32,60,,,1,0,340,51,1,339,ratioX0_12_12_9.png,,,,,,,,,,,,
,,,,,,,,,,,,Less than half,Most,All,Many,More than half,Half,Few,None,Some,-0.39999999,0.261218816,1,0,0,QQQ7,,,,,,,,English,2020-06-16_09h48.55.824,Experiment_English,3.2.4,Win32,60,,,1,0,340,103,1,339,ratio14_1_5_9.png,,,,,,,,,,,,
,,,,,,,,,,,,Half,Few,All,More than half,None,Many,Less than half,Most,Some,-0.40664819,0.268975015,1,0,0,QQQ7,,,,,,,,English,2020-06-16_09h48.55.824,Experiment_English,3.2.4,Win32,60,,,1,0,340,255,1,339,ratio34_6_14_10.png,,,,,,,,,,,,
,,,,,,,,,,,,Most,None,Less than half,More than half,Half,Some,Many,All,Few,0.487534649,0.244598317,1,0,0,QQQ1,,,,,,,,English,2020-06-16_09h48.55.824,Experiment_English,3.2.4,Win32,60,,,1,0,340,310,1,339,ratio51_10_12_12.png,,,,,,,,,,,,
,,,,,,,,,,,,Some,Many,None,All,Few,Half,Most,Less than half,More than half,-0.49196675,0.25567865,1,0,0,QQQ7,,,,,,,,English,2020-06-16_09h48.55.824,Experiment_English,3.2.4,Win32,60,,,1,0,340,212,1,339,ratio31_12_16_1.png,,,,,,,,,,,,
,,,,,,,,,,,,Most,Many,All,Less than half,None,Half,Few,More than half,Some,0.073130211,-0.010249315,1,0,0,QQQ5,,,,,,,,English,2020-06-16_09h48.55.824,Experiment_English,3.2.4,Win32,60,,,1,0,340,68,1,339,ratio0Y_0_11_3.png,,,,,,,,,,,,
,,,,,,,,,,,,Half,None,More than half,Some,Less than half,Many,Most,Few,All,0.025484781,-0.022437681,1,0,0,QQQ5,,,,,,,,English,2020-06-16_09h48.55.824,Experiment_English,3.2.4,Win32,60,,,1,0,340,191,1,339,ratio23_6_15_7.png,,,,,,,,,,,,
,,,,,,,,,,,,Half,Few,Some,All,Less than half,More than half,Many,Most,None,0.025484781,-0.310526328,1,0,0,QQQ6,,,,,,,,English,2020-06-16_09h48.55.824,Experiment_English,3.2.4,Win32,60,,,1,0,340,287,1,339,ratio43_4_7_17.png,,,,,,,,,,,,
,,,,,,,,,,,,Few,Half,Many,All,Most,Less than half,None,More than half,Some,0.023268714,-0.049030479,1,0,0,QQQ5,,,,,,,,English,2020-06-16_09h48.55.824,Experiment_English,3.2.4,Win32,60,,,1,0,340,260,1,339,ratio41_4_5_2.png,,,,,,,,,,,,
,,,,,,,,,,,,Most,Many,More than half,None,Some,Less than half,Half,Few,All,0.481994483,0.319944596,1,0,0,QQQ1,,,,,,,,English,2020-06-16_09h48.55.824,Experiment_English,3.2.4,Win32,60,,,1,0,340,147,1,339,ratio19_1_10_18.png,,,,,,,,,,,,
,,,,,,,,,,,,None,Some,Less than half,Most,Many,Few,Half,More than half,All,-0.034349015,0.274515181,1,0,0,QQQ4,,,,,,,,English,2020-06-16_09h48.55.824,Experiment_English,3.2.4,Win32,60,,,1,0,340,273,1,339,ratio41_12_15_8.png,,,,,,,,,,,,
,,,,,,,,,,,,None,Most,More than half,Some,Half,Few,Many,All,Less than half,0.084210543,-0.278393363,1,0,0,QQQ6,,,,,,,,English,2020-06-16_09h48.55.824,Experiment_English,3.2.4,Win32,60,,,1,0,340,143,1,339,ratio19_1_10_9.png,,,,,,,,,,,,
,,,,,,,,,,,,Some,Less than half,Half,Many,None,All,Most,More than half,Few,0.063157979,0.235734017,1,0,0,QQQ4,,,,,,,,English,2020-06-16_09h48.55.824,Experiment_English,3.2.4,Win32,60,,,1,0,340,235,1,339,ratio32_12_20_1.png,,,,,,,,,,,,
,,,,,,,,,,,,Less than half,Many,Few,Most,Some,None,Half,More than half,All,0.454293651,-0.299445995,1,0,0,QQQ3,,,,,,,,English,2020-06-16_09h48.55.824,Experiment_English,3.2.4,Win32,60,,,1,0,340,187,1,339,ratio23_4_10_5.png,,,,,,,,,,,,
,,,,,,,,,,,,None,Some,Most,Half,All,More than half,Less than half,Few,Many,0.154016639,-0.067867044,1,0,0,QQQ5,,,,,,,,English,2020-06-16_09h48.55.824,Experiment_English,3.2.4,Win32,60,,,1,0,340,52,1,339,ratioX0_13_13_10.png,,,,,,,,,,,,
,,,,,,,,,,,,Less than half,Few,None,Some,Many,Half,Most,More than half,All,0.146260406,-0.018005548,1,0,0,QQQ5,,,,,,,,English,2020-06-16_09h48.55.824,Experiment_English,3.2.4,Win32,60,,,1,0,340,30,1,339,ratio11_6_12_6.png,,,,,,,,,,,,
,,,,,,,,,,,,Few,Less than half,Some,More than half,Half,None,Many,All,Most,0.467590051,0.211357336,1,0,0,QQQ1,,,,,,,,English,2020-06-16_09h48.55.824,Experiment_English,3.2.4,Win32,60,,,1,0,340,100,1,339,ratio14_1_5_3.png,,,,,,,,,,,,
,,,,,,,,,,,,Less than half,All,More than half,Most,None,Many,Few,Some,Half,0.027700847,0.334349028,1,0,0,QQQ4,,,,,,,,English,2020-06-16_09h48.55.824,Experiment_English,3.2.4,Win32,60,,,1,0,340,293,1,339,ratio43_8_14_7.png,,,,,,,,,,,,
,,,,,,,,,,,,Many,All,More than half,Few,Some,Half,Less than half,None,Most,-0.372299159,-0.249584499,1,0,0,QQQ9,,,,,,,,English,2020-06-16_09h48.55.824,Experiment_English,3.2.4,Win32,60,,,1,0,340,317,1,339,ratio51_15_18_13.png,,,,,,,,,,,,
,,,,,,,,,,,,Few,None,Many,Half,Less than half,More than half,Some,All,Most,-0.35567866,-0.276177297,1,0,0,QQQ9,,,,,,,,English,2020-06-16_09h48.55.824,Experiment_English,3.2.4,Win32,60,,,1,0,340,176,1,339,ratio21_10_15_3.png,,,,,,,,,,,,
,,,,,,,,,,,,Few,None,All,Half,Some,Less than half,Many,More than half,Most,0.454293651,0.302216064,1,0,0,QQQ1,,,,,,,,English,2020-06-16_09h48.55.824,Experiment_English,3.2.4,Win32,60,,,1,0,340,132,1,339,ratio15_2_12_16.png,,,,,,,,,,,,
,,,,,,,,,,,,Many,Less than half,None,All,Some,Most,Few,Half,More than half,-0.452077553,0.252354516,1,0,0,QQQ7,,,,,,,,English,2020-06-16_09h48.55.824,Experiment_English,3.2.4,Win32,60,,,1,0,340,85,1,339,ratio13_2_8_5.png,,,,,,,,,,,,
,,,,,,,,,,,,Many,Less than half,Half,None,Some,Most,All,Few,More than half,0.110803342,-0.280609498,1,0,0,QQQ6,,,,,,,,English,2020-06-16_09h48.55.824,Experiment_English,3.2.4,Win32,60,,,1,0,340,234,1,339,ratio32_9_15_10.png,,,,,,,,,,,,
,,,,,,,,,,,,Half,All,Less than half,None,Some,Most,Few,Many,More than half,0.094182843,-0.045706379,1,0,0,QQQ5,,,,,,,,English,2020-06-16_09h48.55.824,Experiment_English,3.2.4,Win32,60,,,1,0,340,233,1,339,ratio32_9_15_9.png,,,,,,,,,,,,
,,,,,,,,,,,,Half,Most,All,Less than half,Few,Some,More than half,Many,None,0.446537419,0.034072015,1,0,0,QQQ2,,,,,,,,English,2020-06-16_09h48.55.824,Experiment_English,3.2.4,Win32,60,,,1,0,340,264,1,339,ratio41_4_5_6.png,,,,,,,,,,,,
,,,,,,,,,,,,Few,Half,Some,Less than half,All,None,More than half,Most,Many,0.453185753,0.259002766,1,0,0,QQQ1,,,,,,,,English,2020-06-16_09h48.55.824,Experiment_English,3.2.4,Win32,60,,,1,0,340,86,1,339,ratio13_2_8_6.png,,,,,,,,,,,,
,,,,,,,,,,,,Half,None,All,Some,Many,Less than half,Most,More than half,Few,-0.519667548,-0.282825496,1,0,0,QQQ9,,,,,,,,English,2020-06-16_09h48.55.824,Experiment_English,3.2.4,Win32,60,,,1,0,340,120,1,339,ratio15_1_6_1.png,,,,,,,,,,,,
,,,,,,,,,,,,All,None,Some,Most,Half,Less than half,Few,Many,More than half,-0.467590019,0.231301935,1,0,0,QQQ7,,,,,,,,English,2020-06-16_09h48.55.824,Experiment_English,3.2.4,Win32,60,,,1,0,340,180,1,339,ratio23_2_5_4.png,,,,,,,,,,,,
,,,,,,,,,,,,None,Less than half,Many,Most,Half,All,Some,More than half,Few,-0.001108017,0.016343483,1,0,0,QQQ5,,,,,,,,English,2020-06-16_09h48.55.824,Experiment_English,3.2.4,Win32,60,,,1,0,340,20,1,339,ratio11_2_4_3.png,0.42659282,-0.383656523,1,0,0,continue_button_pause,1,0,1,0,1,0
,,,,,,,,,,,,,,,,,,,,,,,,,,,,,,,,,,English,2020-06-16_09h48.55.824,Experiment_English,3.2.4,Win32,60,,,1,0,340,20,1,339,ratio11_2_4_3.png,,,,,,,,,,,,
,,,,,,,,,,,,Many,Half,More than half,Few,Some,Most,None,All,Less than half,0.049861512,-0.04127428,1,0,0,QQQ5,,,,,,,,English,2020-06-16_09h48.55.824,Experiment_English,3.2.4,Win32,60,,,1,0,340,247,1,339,ratio34_3_7_12.png,,,,,,,,,,,,
,,,,,,,,,,,,Half,None,Less than half,Many,All,Few,More than half,Some,Most,-0.372299159,-0.067867044,1,0,0,QQQ8,,,,,,,,English,2020-06-16_09h48.55.824,Experiment_English,3.2.4,Win32,60,,,1,0,340,95,1,339,ratio13_4_16_10.png,,,,,,,,,,,,
,,,,,,,,,,,,Half,Most,None,All,Many,Some,Few,Less than half,More than half,-0.45429362,0.295567864,1,0,0,QQQ7,,,,,,,,English,2020-06-16_09h48.55.824,Experiment_English,3.2.4,Win32,60,,,1,0,340,125,1,339,ratio15_1_6_19.png,,,,,,,,,,,,
,,,,,,,,,,,,Some,Less than half,None,Most,Half,More than half,Many,All,Few,0.007756316,0.262326866,1,0,0,QQQ4,,,,,,,,English,2020-06-16_09h48.55.824,Experiment_English,3.2.4,Win32,60,,,1,0,340,236,1,339,ratio32_12_20_2.png,,,,,,,,,,,,
,,,,,,,,,,,,Most,All,Some,Few,More than half,Less than half,Half,Many,None,0.467590051,-0.006925215,1,0,0,QQQ2,,,,,,,,English,2020-06-16_09h48.55.824,Experiment_English,3.2.4,Win32,60,,,1,0,340,48,1,339,ratioX0_10_10_1.png,,,,,,,,,,,,
,,,,,,,,,,,,Some,More than half,Many,None,Half,Less than half,All,Few,Most,-0.089750678,0.008587216,1,0,0,QQQ5,,,,,,,,English,2020-06-16_09h48.55.824,Experiment_English,3.2.4,Win32,60,,,1,0,340,22,1,339,ratio11_3_6_6.png,,,,,,,,,,,,
,,,,,,,,,,,,Some,Many,Few,Most,More than half,All,None,Half,Less than half,0.058725778,-0.065651012,1,0,0,QQQ5,,,,,,,,English,2020-06-16_09h48.55.824,Experiment_English,3.2.4,Win32,60,,,1,0,340,289,1,339,ratio43_4_7_20.png,,,,,,,,,,,,
,,,,,,,,,,,,Many,More than half,Less than half,Half,All,Some,Most,Few,None,0.375623425,0.024099716,1,0,0,QQQ2,,,,,,,,English,2020-06-16_09h48.55.824,Experiment_English,3.2.4,Win32,60,,,1,0,340,166,1,339,ratio21_6_9_1.png,,,,,,,,,,,,
,,,,,,,,,,,,Half,Few,Some,More than half,Most,Less than half,None,Many,All,1.5855E-08,-0.004709149,1,0,0,QQQ5,,,,,,,,English,2020-06-16_09h48.55.824,Experiment_English,3.2.4,Win32,60,,,1,0,340,322,1,339,ratio91_9_10_3.png,,,,,,,,,,,,
,,,,,,,,,,,,Half,More than half,Less than half,Most,Many,Some,All,None,Few,0.356786725,0.028531849,1,0,0,QQQ2,,,,,,,,English,2020-06-16_09h48.55.824,Experiment_English,3.2.4,Win32,60,,,1,0,340,162,1,339,ratio21_2_3_9.png,,,,,,,,,,,,
,,,,,,,,,,,,Few,Half,Some,Less than half,All,Most,None,Many,More than half,0.04210528,-0.269529165,1,0,0,QQQ6,,,,,,,,English,2020-06-16_09h48.55.824,Experiment_English,3.2.4,Win32,60,,,1,0,340,331,1,339,ratio91_18_20_3.png,,,,,,,,,,,,
,,,,,,,,,,,,Less than half,More than half,All,Half,Most,Few,None,Many,Some,-0.008864183,-0.026869814,1,0,0,QQQ5,,,,,,,,English,2020-06-16_09h48.55.824,Experiment_English,3.2.4,Win32,60,,,1,0,340,280,1,339,ratio43_4_7_2.png,,,,,,,,,,,,
,,,,,,,,,,,,None,Less than half,Few,Many,Most,All,More than half,Some,Half,-0.006648184,-0.022437681,1,0,0,QQQ5,,,,,,,,English,2020-06-16_09h48.55.824,Experiment_English,3.2.4,Win32,60,,,1,0,340,204,1,339,ratio31_6_8_1.png,,,,,,,,,,,,
,,,,,,,,,,,,All,Less than half,Many,Some,None,Most,Few,Half,More than half,0.04210528,0.322160645,1,0,0,QQQ4,,,,,,,,English,2020-06-16_09h48.55.824,Experiment_English,3.2.4,Win32,60,,,1,0,340,16,1,339,ratio12_5_15_6.png,,,,,,,,,,,,
,,,,,,,,,,,,Many,Some,Most,Few,Half,More than half,None,Less than half,All,0.093074809,-0.295013862,1,0,0,QQQ6,,,,,,,,English,2020-06-16_09h48.55.824,Experiment_English,3.2.4,Win32,60,,,1,0,340,281,1,339,ratio43_4_7_4.png,,,,,,,,,,,,
,,,,,,,,,,,,Few,Half,Less than half,Many,Some,All,Most,None,More than half,-0.380055391,0.273407199,1,0,0,QQQ7,,,,,,,,English,2020-06-16_09h48.55.824,Experiment_English,3.2.4,Win32,60,,,1,0,340,218,1,339,ratio31_15_20_7.png,,,,,,,,,,,,
,,,,,,,,,,,,Less than half,None,Half,Most,Few,Many,More than half,All,Some,-0.511911349,-0.006925215,1,0,0,QQQ8,,,,,,,,English,2020-06-16_09h48.55.824,Experiment_English,3.2.4,Win32,60,,,1,0,340,56,1,339,ratioX0_17_17_10.png,,,,,,,,,,,,
,,,,,,,,,,,,Most,Some,Half,None,All,Many,Less than half,Few,More than half,0.446537419,0.008587216,1,0,0,QQQ2,,,,,,,,English,2020-06-16_09h48.55.824,Experiment_English,3.2.4,Win32,60,,,1,0,340,10,1,339,ratio12_4_12_4.png,,,,,,,,,,,,
,,,,,,,,,,,,Most,More than half,Few,Many,None,All,Some,Half,Less than half,0.400000022,-0.287257629,1,0,0,QQQ3,,,,,,,,English,2020-06-16_09h48.55.824,Experiment_English,3.2.4,Win32,60,,,1,0,340,158,1,339,ratio19_2_20_17.png,,,,,,,,,,,,
,,,,,,,,,,,,More than half,Less than half,Some,All,Half,Most,Few,Many,None,-0.433240988,0.297783931,1,0,0,QQQ7,,,,,,,,English,2020-06-16_09h48.55.824,Experiment_English,3.2.4,Win32,60,,,1,0,340,109,1,339,ratio14_2_10_9.png,,,,,,,,,,,,
,,,,,,,,,,,,Few,Many,Some,More than half,Most,None,All,Half,Less than half,0.13739614,-0.002493116,1,0,0,QQQ5,,,,,,,,English,2020-06-16_09h48.55.824,Experiment_English,3.2.4,Win32,60,,,1,0,340,311,1,339,ratio51_10_12_14.png,,,,,,,,,,,,
,,,,,,,,,,,,Less than half,None,All,Some,More than half,Many,Most,Half,Few,-0.383379491,0.275623265,1,0,0,QQQ7,,,,,,,,English,2020-06-16_09h48.55.824,Experiment_English,3.2.4,Win32,60,,,1,0,340,268,1,339,ratio41_8_10_5.png,,,,,,,,,,,,
,,,,,,,,,,,,Less than half,Few,Most,Half,None,More than half,Many,Some,All,-0.443213287,-0.031301947,1,0,0,QQQ8,,,,,,,,English,2020-06-16_09h48.55.824,Experiment_English,3.2.4,Win32,60,,,1,0,340,35,1,339,ratio11_8_16_10.png,,,,,,,,,,,,
,,,,,,,,,,,,None,Most,More than half,All,Few,Less than half,Many,Some,Half,0.464266086,-0.000277016,1,0,0,QQQ2,,,,,,,,English,2020-06-16_09h48.55.824,Experiment_English,3.2.4,Win32,60,,,1,0,340,303,1,339,ratio51_5_6_6.png,,,,,,,,,,,,
,,,,,,,,,,,,Less than half,Most,Few,All,None,Some,Many,Half,More than half,0.43324102,-0.026869814,1,0,0,QQQ2,,,,,,,,English,2020-06-16_09h48.55.824,Experiment_English,3.2.4,Win32,60,,,1,0,340,291,1,339,ratio43_8_14_5.png,,,,,,,,,,,,
,,,,,,,,,,,,Half,Less than half,None,Some,All,Many,Few,Most,More than half,0.536288248,0.29999998,1,0,0,QQQ1,,,,,,,,English,2020-06-16_09h48.55.824,Experiment_English,3.2.4,Win32,60,,,1,0,340,25,1,339,ratio11_4_8_10.png,,,,,,,,,,,,
,,,,,,,,,,,,Most,None,Less than half,Some,Half,Many,All,More than half,Few,-0.360110793,-0.272853197,1,0,0,QQQ9,,,,,,,,English,2020-06-16_09h48.55.824,Experiment_English,3.2.4,Win32,60,,,1,0,340,127,1,339,ratio15_2_12_2.png,,,,,,,,,,,,
,,,,,,,,,,,,Most,All,Few,More than half,Less than half,Many,None,Some,Half,-0.497506883,0.035180048,1,0,0,QQQ8,,,,,,,,English,2020-06-16_09h48.55.824,Experiment_English,3.2.4,Win32,60,,,1,0,340,89,1,339,ratio13_3_12_6.png,,,,,,,,,,,,
,,,,,,,,,,,,Some,None,Many,Most,All,Half,Less than half,Few,More than half,-0.427700822,-0.022437681,1,0,0,QQQ8,,,,,,,,English,2020-06-16_09h48.55.824,Experiment_English,3.2.4,Win32,60,,,1,0,340,80,1,339,ratio13_1_4_3.png,,,,,,,,,,,,
,,,,,,,,,,,,Some,Many,More than half,Half,None,All,Less than half,Few,Most,0.446537419,0.317728529,1,0,0,QQQ1,,,,,,,,English,2020-06-16_09h48.55.824,Experiment_English,3.2.4,Win32,60,,,1,0,340,195,1,339,ratio23_8_20_1.png,,,,,,,,,,,,
,,,,,,,,,,,,More than half,Half,Some,None,Many,Less than half,Most,All,Few,-0.365650959,0.224653685,1,0,0,QQQ7,,,,,,,,English,2020-06-16_09h48.55.824,Experiment_English,3.2.4,Win32,60,,,1,0,340,237,1,339,ratio32_12_20_5.png,,,,,,,,,,,,
,,,,,,,,,,,,All,Many,Less than half,None,More than half,Some,Most,Few,Half,-0.366758992,0.286703598,1,0,0,QQQ7,,,,,,,,English,2020-06-16_09h48.55.824,Experiment_English,3.2.4,Win32,60,,,1,0,340,306,1,339,ratio51_5_6_18.png,,,,,,,,,,,,
,,,,,,,,,,,,All,Less than half,Many,Some,Few,More than half,Most,None,Half,-0.530747881,-0.298337962,1,0,0,QQQ9,,,,,,,,English,2020-06-16_09h48.55.824,Experiment_English,3.2.4,Win32,60,,,1,0,340,21,1,339,ratio11_2_4_10.png,,,,,,,,,,,,
,,,,,,,,,,,,None,Few,Some,Half,Most,Many,Less than half,All,More than half,0.421052654,-0.006925215,1,0,0,QQQ2,,,,,,,,English,2020-06-16_09h48.55.824,Experiment_English,3.2.4,Win32,60,,,1,0,340,2,1,339,ratio12_1_3_10.png,0.351246558,-0.411357354,1,0,0,continue_button_pause,1,0,1,0,1,0
,,,,,,,,,,,,,,,,,,,,,,,,,,,,,,,,,,English,2020-06-16_09h48.55.824,Experiment_English,3.2.4,Win32,60,,,1,0,340,2,1,339,ratio12_1_3_10.png,,,,,,,,,,,,
,,,,,,,,,,,,Many,More than half,Most,None,Some,Few,Less than half,All,Half,-0.057617714,-0.290581729,1,0,0,QQQ6,,,,,,,,English,2020-06-16_09h48.55.824,Experiment_English,3.2.4,Win32,60,,,1,0,340,146,1,339,ratio19_1_10_17.png,,,,,,,,,,,,
,,,,,,,,,,,,Many,More than half,Few,All,Most,Half,None,Some,Less than half,0.024376815,0.013019383,1,0,0,QQQ5,,,,,,,,English,2020-06-16_09h48.55.824,Experiment_English,3.2.4,Win32,60,,,1,0,340,33,1,339,ratio11_7_14_8.png,,,,,,,,,,,,
,,,,,,,,,,,,Few,None,Half,Most,Many,More than half,All,Less than half,Some,-0.364542926,-0.270637131,1,0,0,QQQ9,,,,,,,,English,2020-06-16_09h48.55.824,Experiment_English,3.2.4,Win32,60,,,1,0,340,222,1,339,ratio32_3_5_4.png,,,,,,,,,,,,
,,,,,,,,,,,,Many,Less than half,All,Half,None,More than half,Some,Few,Most,-0.381163425,-0.343767326,1,0,0,QQQ9,,,,,,,,English,2020-06-16_09h48.55.824,Experiment_English,3.2.4,Win32,60,,,1,0,340,34,1,339,ratio11_8_16_8.png,,,,,,,,,,,,
,,,,,,,,,,,,More than half,Most,Few,Many,None,Less than half,All,Half,Some,-0.40664819,-0.282825496,1,0,0,QQQ9,,,,,,,,English,2020-06-16_09h48.55.824,Experiment_English,3.2.4,Win32,60,,,1,0,340,13,1,339,ratio12_5_15_3.png,,,,,,,,,,,,
,,,,,,,,,,,,None,Some,Less than half,All,Most,Few,More than half,Half,Many,0.483102516,0.284487531,1,0,0,QQQ1,,,,,,,,English,2020-06-16_09h48.55.824,Experiment_English,3.2.4,Win32,60,,,1,0,340,67,1,339,ratio0Y_0_10_10.png,,,,,,,,,,,,
,,,,,,,,,,,,Few,None,More than half,Many,Less than half,Some,Half,All,Most,-0.407756223,-0.286149664,1,0,0,QQQ9,,,,,,,,English,2020-06-16_09h48.55.824,Experiment_English,3.2.4,Win32,60,,,1,0,340,319,1,339,ratio51_15_18_20.png,,,,,,,,,,,,
,,,,,,,,,,,,Few,Most,All,Less than half,Some,None,Half,More than half,Many,-0.003324016,0.295567864,1,0,0,QQQ4,,,,,,,,English,2020-06-16_09h48.55.824,Experiment_English,3.2.4,Win32,60,,,1,0,340,244,1,339,ratio34_3_7_9.png,,,,,,,,,,,,
,,,,,,,,,,,,Some,All,Few,Many,Half,More than half,Less than half,Most,None,0.416620521,0.261218816,1,0,0,QQQ1,,,,,,,,English,2020-06-16_09h48.55.824,Experiment_English,3.2.4,Win32,60,,,1,0,340,252,1,339,ratio34_6_14_3.png,,,,,,,,,,,,
,,,,,,,,,,,,More than half,Half,None,All,Many,Few,Most,Some,Less than half,-0.44764542,0.271191115,1,0,0,QQQ7,,,,,,,,English,2020-06-16_09h48.55.824,Experiment_English,3.2.4,Win32,60,,,1,0,340,330,1,339,ratio91_18_20_2.png,,,,,,,,,,,,
,,,,,,,,,,,,Many,Few,None,Half,All,More than half,Less than half,Some,Most,-0.423268689,-0.026869814,1,0,0,QQQ8,,,,,,,,English,2020-06-16_09h48.55.824,Experiment_English,3.2.4,Win32,60,,,1,0,340,259,1,339,ratio34_6_14_19.png,,,,,,,,,,,,
,,,,,,,,,,,,All,Most,Few,Many,Less than half,Half,None,Some,More than half,0.42659282,-0.051246546,1,0,0,QQQ2,,,,,,,,English,2020-06-16_09h48.55.824,Experiment_English,3.2.4,Win32,60,,,1,0,340,179,1,339,ratio21_12_18_8.png,,,,,,,,,,,,
,,,,,,,,,,,,Some,All,Less than half,Few,Most,None,More than half,Many,Half,-0.366758992,-0.257340732,1,0,0,QQQ9,,,,,,,,English,2020-06-16_09h48.55.824,Experiment_English,3.2.4,Win32,60,,,1,0,340,246,1,339,ratio34_3_7_11.png,,,,,,,,,,,,
,,,,,,,,,,,,None,All,Some,Many,More than half,Most,Less than half,Half,Few,0.072022178,-0.304986162,1,0,0,QQQ6,,,,,,,,English,2020-06-16_09h48.55.824,Experiment_English,3.2.4,Win32,60,,,1,0,340,336,1,339,ratio91_18_20_12.png,,,,,,,,,,,,
,,,,,,,,,,,,Few,Many,Half,More than half,Most,Some,None,Less than half,All,0.037673147,-0.269529165,1,0,0,QQQ6,,,,,,,,English,2020-06-16_09h48.55.824,Experiment_English,3.2.4,Win32,60,,,1,0,340,31,1,339,ratio11_6_12_9.png,,,,,,,,,,,,
,,,,,,,,,,,,Most,Half,Some,None,Many,Less than half,More than half,Few,All,0.454293651,0.233517985,1,0,0,QQQ1,,,,,,,,English,2020-06-16_09h48.55.824,Experiment_English,3.2.4,Win32,60,,,1,0,340,325,1,339,ratio91_9_10_8.png,,,,,,,,,,,,
,,,,,,,,,,,,None,All,More than half,Some,Less than half,Half,Few,Many,Most,-0.579501378,-0.231855967,1,0,0,QQQ9,,,,,,,,English,2020-06-16_09h48.55.824,Experiment_English,3.2.4,Win32,60,,,1,0,340,165,1,339,ratio21_4_6_10.png,,,,,,,,,,,,
,,,,,,,,,,,,All,Few,Many,None,Less than half,Half,More than half,Some,Most,0.42326872,0.039612182,1,0,0,QQQ2,,,,,,,,English,2020-06-16_09h48.55.824,Experiment_English,3.2.4,Win32,60,,,1,0,340,3,1,339,ratio12_2_6_3.png,,,,,,,,,,,,
,,,,,,,,,,,,Few,Some,None,Most,More than half,Less than half,Half,All,Many,0.015512481,0.306648197,1,0,0,QQQ4,,,,,,,,English,2020-06-16_09h48.55.824,Experiment_English,3.2.4,Win32,60,,,1,0,340,277,1,339,ratio41_16_20_8.png,,,,,,,,,,,,
,,,,,,,,,,,,More than half,Half,Some,All,Few,Less than half,None,Many,Most,-0.429916888,0.25567865,1,0,0,QQQ7,,,,,,,,English,2020-06-16_09h48.55.824,Experiment_English,3.2.4,Win32,60,,,1,0,340,60,1,339,ratio0Y_0_3_5.png,,,,,,,,,,,,
,,,,,,,,,,,,More than half,Most,None,Some,Less than half,Few,Half,Many,All,-0.394459824,-0.266204998,1,0,0,QQQ9,,,,,,,,English,2020-06-16_09h48.55.824,Experiment_English,3.2.4,Win32,60,,,1,0,340,41,1,339,ratioX0_4_4_9.png,,,,,,,,,,,,
,,,,,,,,,,,,Most,More than half,Many,Half,Some,All,Less than half,None,Few,0.352354592,-0.019113615,1,0,0,QQQ2,,,,,,,,English,2020-06-16_09h48.55.824,Experiment_English,3.2.4,Win32,60,,,1,0,340,224,1,339,ratio32_3_5_10.png,,,,,,,,,,,,
,,,,,,,,,,,,None,Less than half,More than half,Many,Most,All,Few,Half,Some,-0.096398878,-0.04127428,1,0,0,QQQ5,,,,,,,,English,2020-06-16_09h48.55.824,Experiment_English,3.2.4,Win32,60,,,1,0,340,213,1,339,ratio31_12_16_2.png,,,,,,,,,,,,
,,,,,,,,,,,,Few,All,None,Many,Half,Less than half,Most,Some,More than half,0.390027722,0.29113568,1,0,0,QQQ1,,,,,,,,English,2020-06-16_09h48.55.824,Experiment_English,3.2.4,Win32,60,,,1,0,340,93,1,339,ratio13_4_16_7.png,,,,,,,,,,,,
,,,,,,,,,,,,Most,Few,More than half,None,Many,Less than half,Some,Half,All,-0.489750684,0.277839315,1,0,0,QQQ7,,,,,,,,English,2020-06-16_09h48.55.824,Experiment_English,3.2.4,Win32,60,,,1,0,340,185,1,339,ratio23_4_10_1.png,,,,,,,,,,,,
,,,,,,,,,,,,All,More than half,Less than half,Most,Many,Half,None,Few,Some,-0.422160655,0.263434849,1,0,0,QQQ7,,,,,,,,English,2020-06-16_09h48.55.824,Experiment_English,3.2.4,Win32,60,,,1,0,340,72,1,339,ratio0Y_0_13_4.png,,,,,,,,,,,,
,,,,,,,,,,,,Many,Some,Most,None,More than half,All,Half,Few,Less than half,-0.064265845,0.270083099,1,0,0,QQQ4,,,,,,,,English,2020-06-16_09h48.55.824,Experiment_English,3.2.4,Win32,60,,,1,0,340,46,1,339,ratioX0_9_9_3.png,,,,,,,,,,,,
,,,,,,,,,,,,All,Less than half,Many,Some,None,Few,More than half,Half,Most,-0.346814326,-0.29168983,1,0,0,QQQ9,,,,,,,,English,2020-06-16_09h48.55.824,Experiment_English,3.2.4,Win32,60,,,1,0,340,201,1,339,ratio31_3_4_7.png,,,,,,,,,,,,
,,,,,,,,,,,,Many,All,Few,More than half,Half,Some,Most,None,Less than half,0.374515257,-0.27396123,1,0,0,QQQ3,,,,,,,,English,2020-06-16_09h48.55.824,Experiment_English,3.2.4,Win32,60,,,1,0,340,107,1,339,ratio14_2_10_5.png,,,,,,,,,,,,
,,,,,,,,,,,,Many,Half,Less than half,All,Some,None,More than half,Most,Few,-0.425484755,0.009695284,1,0,0,QQQ8,,,,,,,,English,2020-06-16_09h48.55.824,Experiment_English,3.2.4,Win32,60,,,1,0,340,208,1,339,ratio31_9_12_3.png,,,,,,,,,,,,
,,,,,,,,,,,,All,Some,Half,Most,Less than half,More than half,Few,None,Many,0.47091415,-0.016897515,1,0,0,QQQ2,,,,,,,,English,2020-06-16_09h48.55.824,Experiment_English,3.2.4,Win32,60,,,1,0,340,254,1,339,ratio34_6_14_9.png,,,,,,,,,,,,
,,,,,,,,,,,,All,None,Few,More than half,Many,Most,Half,Some,Less than half,-0.008864183,-0.281717463,1,0,0,QQQ6,,,,,,,,English,2020-06-16_09h48.55.824,Experiment_English,3.2.4,Win32,60,,,1,0,340,209,1,339,ratio31_9_12_6.png,,,,,,,,,,,,
,,,,,,,,,,,,All,Most,Many,None,More than half,Few,Less than half,Half,Some,0.037673147,-0.37922439,1,0,0,QQQ6,,,,,,,,English,2020-06-16_09h48.55.824,Experiment_English,3.2.4,Win32,60,,,1,0,340,111,1,339,ratio14_3_15_3.png,,,,,,,,,,,,
,,,,,,,,,,,,Less than half,None,Many,All,Half,More than half,Most,Few,Some,-0.442105254,0.278947365,1,0,0,QQQ7,,,,,,,,English,2020-06-16_09h48.55.824,Experiment_English,3.2.4,Win32,60,,,1,0,340,262,1,339,ratio41_4_5_4.png,0.305817195,-0.398060955,1,0,0,continue_button_pause,1,0,1,0,1,0
,,,,,,,,,,,,,,,,,,,,,,,,,,,,,,,,,,English,2020-06-16_09h48.55.824,Experiment_English,3.2.4,Win32,60,,,1,0,340,262,1,339,ratio41_4_5_4.png,,,,,,,,,,,,
,,,,,,,,,,,,Some,Many,Less than half,More than half,None,Half,Few,Most,All,0.447645587,0.218005536,1,0,0,QQQ1,,,,,,,,English,2020-06-16_09h48.55.824,Experiment_English,3.2.4,Win32,60,,,1,0,340,94,1,339,ratio13_4_16_8.png,,,,,,,,,,,,
,,,,,,,,,,,,Half,More than half,Most,Many,None,Less than half,All,Some,Few,-0.44432132,-0.020221614,1,0,0,QQQ8,,,,,,,,English,2020-06-16_09h48.55.824,Experiment_English,3.2.4,Win32,60,,,1,0,340,190,1,339,ratio23_6_15_3.png,,,,,,,,,,,,
,,,,,,,,,,,,Most,Many,All,Some,Less than half,Half,None,Few,More than half,0.510803348,0.266758982,1,0,0,QQQ1,,,,,,,,English,2020-06-16_09h48.55.824,Experiment_English,3.2.4,Win32,60,,,1,0,340,229,1,339,ratio32_6_10_9.png,,,,,,,,,,,,
,,,,,,,,,,,,Many,Some,All,Less than half,Half,Few,None,More than half,Most,0.360110825,-0.006925215,1,0,0,QQQ2,,,,,,,,English,2020-06-16_09h48.55.824,Experiment_English,3.2.4,Win32,60,,,1,0,340,28,1,339,ratio11_5_10_9.png,,,,,,,,,,,,
,,,,,,,,,,,,Some,More than half,Half,Few,All,Most,Less than half,Many,None,0.370083259,-0.322714694,1,0,0,QQQ3,,,,,,,,English,2020-06-16_09h48.55.824,Experiment_English,3.2.4,Win32,60,,,1,0,340,245,1,339,ratio34_3_7_10.png,,,,,,,,,,,,
,,,,,,,,,,,,Some,More than half,Few,All,Half,Most,Less than half,Many,None,-0.472022152,0.203601104,1,0,0,QQQ7,,,,,,,,English,2020-06-16_09h48.55.824,Experiment_English,3.2.4,Win32,60,,,1,0,340,248,1,339,ratio34_3_7_19.png,,,,,,,,,,,,
,,,,,,,,,,,,Many,None,Most,Half,All,More than half,Less than half,Some,Few,0.023268714,-0.2296399,1,0,0,QQQ6,,,,,,,,English,2020-06-16_09h48.55.824,Experiment_English,3.2.4,Win32,60,,,1,0,340,50,1,339,ratioX0_12_12_3.png,,,,,,,,,,,,
,,,,,,,,,,,,Most,Few,None,Some,Many,Half,All,More than half,Less than half,0.486426751,0.232409951,1,0,0,QQQ1,,,,,,,,English,2020-06-16_09h48.55.824,Experiment_English,3.2.4,Win32,60,,,1,0,340,298,1,339,ratio43_8_14_14.png,,,,,,,,,,,,
,,,,,,,,,,,,Some,More than half,Less than half,None,Many,Half,Most,All,Few,-0.470914119,-0.244044332,1,0,0,QQQ9,,,,,,,,English,2020-06-16_09h48.55.824,Experiment_English,3.2.4,Win32,60,,,1,0,340,155,1,339,ratio19_2_20_13.png,,,,,,,,,,,,
,,,,,,,,,,,,Half,Many,None,Few,Less than half,Some,All,Most,More than half,0.142936306,-0.319390662,1,0,0,QQQ6,,,,,,,,English,2020-06-16_09h48.55.824,Experiment_English,3.2.4,Win32,60,,,1,0,340,32,1,339,ratio11_7_14_5.png,,,,,,,,,,,,
,,,,,,,,,,,,All,Few,Some,Half,None,Most,Many,Less than half,More than half,0.453185753,0.333240978,1,0,0,QQQ1,,,,,,,,English,2020-06-16_09h48.55.824,Experiment_English,3.2.4,Win32,60,,,1,0,340,49,1,339,ratioX0_11_11_2.png,,,,,,,,,,,,
,,,,,,,,,,,,Few,Many,Some,More than half,Most,All,Less than half,Half,None,0.118559574,0.036288048,1,0,0,QQQ5,,,,,,,,English,2020-06-16_09h48.55.824,Experiment_English,3.2.4,Win32,60,,,1,0,340,274,1,339,ratio41_12_15_9.png,,,,,,,,,,,,
,,,,,,,,,,,,None,Most,Few,Half,Many,More than half,All,Some,Less than half,0.443213319,0.030747882,1,0,0,QQQ2,,,,,,,,English,2020-06-16_09h48.55.824,Experiment_English,3.2.4,Win32,60,,,1,0,340,304,1,339,ratio51_5_6_13.png,,,,,,,,,,,,
,,,,,,,,,,,,More than half,All,None,Less than half,Half,Many,Most,Few,Some,-0.462049853,0.272299149,1,0,0,QQQ7,,,,,,,,English,2020-06-16_09h48.55.824,Experiment_English,3.2.4,Win32,60,,,1,0,340,163,1,339,ratio21_4_6_1.png,,,,,,,,,,,,
,,,,,,,,,,,,None,Less than half,Half,Most,Some,Few,Many,More than half,All,-0.095290844,-0.246260399,1,0,0,QQQ6,,,,,,,,English,2020-06-16_09h48.55.824,Experiment_English,3.2.4,Win32,60,,,1,0,340,90,1,339,ratio13_3_12_7.png,,,,,,,,,,,,
,,,,,,,,,,,,Most,All,More than half,Half,Many,Some,Less than half,None,Few,-0.001108017,-0.317174527,1,0,0,QQQ6,,,,,,,,English,2020-06-16_09h48.55.824,Experiment_English,3.2.4,Win32,60,,,1,0,340,258,1,339,ratio34_6_14_14.png,,,,,,,,,,,,
,,,,,,,,,,,,Less than half,Few,Many,Most,Some,None,More than half,All,Half,-0.002216051,0.243490284,1,0,0,QQQ4,,,,,,,,English,2020-06-16_09h48.55.824,Experiment_English,3.2.4,Win32,60,,,1,0,340,292,1,339,ratio43_8_14_6.png,,,,,,,,,,,,
,,,,,,,,,,,,Less than half,Few,Many,None,Most,More than half,Half,All,Some,0.027700847,-0.025761781,1,0,0,QQQ5,,,,,,,,English,2020-06-16_09h48.55.824,Experiment_English,3.2.4,Win32,60,,,1,0,340,230,1,339,ratio32_9_15_1.png,,,,,,,,,,,,
,,,,,,,,,,,,Few,Many,None,Some,Less than half,All,More than half,Most,Half,0.43324102,0.297783931,1,0,0,QQQ1,,,,,,,,English,2020-06-16_09h48.55.824,Experiment_English,3.2.4,Win32,60,,,1,0,340,240,1,339,ratio34_3_7_4.png,,,,,,,,,,,,
,,,,,,,,,,,,None,Most,Less than half,Some,Few,All,Half,More than half,Many,0.018836649,-0.060110845,1,0,0,QQQ5,,,,,,,,English,2020-06-16_09h48.55.824,Experiment_English,3.2.4,Win32,60,,,1,0,340,110,1,339,ratio14_3_15_2.png,,,,,,,,,,,,
,,,,,,,,,,,,Less than half,None,Few,Many,Some,All,Most,More than half,Half,0.479778416,-0.045706379,1,0,0,QQQ2,,,,,,,,English,2020-06-16_09h48.55.824,Experiment_English,3.2.4,Win32,60,,,1,0,340,75,1,339,ratio0Y_0_16_10.png,,,,,,,,,,,,
,,,,,,,,,,,,Few,All,Less than half,Some,Many,Most,None,More than half,Half,-0.014404349,-0.255124665,1,0,0,QQQ6,,,,,,,,English,2020-06-16_09h48.55.824,Experiment_English,3.2.4,Win32,60,,,1,0,340,265,1,339,ratio41_8_10_1.png,,,,,,,,,,,,
,,,,,,,,,,,,Some,Many,Few,All,None,Most,Half,More than half,Less than half,0.466482017,-0.245152366,1,0,0,QQQ3,,,,,,,,English,2020-06-16_09h48.55.824,Experiment_English,3.2.4,Win32,60,,,1,0,340,5,1,339,ratio12_2_6_9.png,,,,,,,,,,,,
,,,,,,,,,,,,None,More than half,Most,Few,Many,Some,Less than half,Half,All,0.428808887,-0.256232698,1,0,0,QQQ3,,,,,,,,English,2020-06-16_09h48.55.824,Experiment_English,3.2.4,Win32,60,,,1,0,340,205,1,339,ratio31_6_8_2.png,,,,,,,,,,,,
,,,,,,,,,,,,Few,Half,Less than half,Most,All,None,Many,More than half,Some,-0.390027691,-0.29168983,1,0,0,QQQ9,,,,,,,,English,2020-06-16_09h48.55.824,Experiment_English,3.2.4,Win32,60,,,1,0,340,118,1,339,ratio14_4_20_8.png,,,,,,,,,,,,
,,,,,,,,,,,,Many,Few,Some,None,More than half,Most,All,Less than half,Half,-0.405540156,0.322160645,1,0,0,QQQ7,,,,,,,,English,2020-06-16_09h48.55.824,Experiment_English,3.2.4,Win32,60,,,1,0,340,54,1,339,ratioX0_15_15_5.png,,,,,,,,,,,,
,,,,,,,,,,,,All,Half,Many,Some,Few,More than half,Less than half,Most,None,-0.075346178,0.078393346,1,0,0,QQQ5,,,,,,,,English,2020-06-16_09h48.55.824,Experiment_English,3.2.4,Win32,60,,,1,0,340,133,1,339,ratio15_3_18_3.png,,,,,,,,,,,,
,,,,,,,,,,,,Most,Many,None,Some,More than half,Less than half,Half,Few,All,0.38227149,-0.201939069,1,0,0,QQQ3,,,,,,,,English,2020-06-16_09h48.55.824,Experiment_English,3.2.4,Win32,60,,,1,0,340,79,1,339,ratio0Y_0_20_4.png,,,,,,,,,,,,
,,,,,,,,,,,,All,Less than half,Many,Most,Half,More than half,Some,None,Few,-0.125207675,0.342105261,1,0,0,QQQ4,,,,,,,,English,2020-06-16_09h48.55.824,Experiment_English,3.2.4,Win32,60,,,1,0,340,210,1,339,ratio31_9_12_9.png,,,,,,,,,,,,
,,,,,,,,,,,,Many,Half,Some,Few,Less than half,Most,More than half,None,All,0.036565113,0.265650949,1,0,0,QQQ4,,,,,,,,English,2020-06-16_09h48.55.824,Experiment_English,3.2.4,Win32,60,,,1,0,340,137,1,339,ratio15_3_18_16.png,,,,,,,,,,,,
,,,,,,,,,,,,Half,Many,Most,Few,Less than half,Some,None,More than half,All,0.406648221,-0.275069331,1,0,0,QQQ3,,,,,,,,English,2020-06-16_09h48.55.824,Experiment_English,3.2.4,Win32,60,,,1,0,340,223,1,339,ratio32_3_5_5.png,,,,,,,,,,,,
,,,,,,,,,,,,Less than half,Half,All,Some,More than half,Few,Many,Most,None,-0.009972283,-0.276177297,1,0,0,QQQ6,,,,,,,,English,2020-06-16_09h48.55.824,Experiment_English,3.2.4,Win32,60,,,1,0,340,104,1,339,ratio14_1_5_10.png,,,,,,,,,,,,
,,,,,,,,,,,,Some,Most,Many,All,None,Few,Less than half,More than half,Half,0.003324116,0.235734017,1,0,0,QQQ4,,,,,,,,English,2020-06-16_09h48.55.824,Experiment_English,3.2.4,Win32,60,,,1,0,340,58,1,339,ratioX0_19_19_4.png,,,,,,,,,,,,
,,,,,,,,,,,,Half,Most,All,More than half,Many,Some,Less than half,None,Few,-0.513019382,-0.299445995,1,0,0,QQQ9,,,,,,,,English,2020-06-16_09h48.55.824,Experiment_English,3.2.4,Win32,60,,,1,0,340,122,1,339,ratio15_1_6_7.png,0.333518026,-0.398060955,1,0,0,continue_button_pause,1,0,1,0,1,0
,,,,,,,,,,,,,,,,,,,,,,,,,,,,,,,,,,English,2020-06-16_09h48.55.824,Experiment_English,3.2.4,Win32,60,,,1,0,340,122,1,339,ratio15_1_6_7.png,,,,,,,,,,,,
,,,,,,,,,,,,All,Many,More than half,None,Some,Half,Less than half,Few,Most,-0.436565088,0.009695284,1,0,0,QQQ8,,,,,,,,English,2020-06-16_09h48.55.824,Experiment_English,3.2.4,Win32,60,,,1,0,340,108,1,339,ratio14_2_10_6.png,,,,,,,,,,,,
,,,,,,,,,,,,Some,Half,All,Less than half,None,Few,Most,More than half,Many,0.391135756,0.295567864,1,0,0,QQQ1,,,,,,,,English,2020-06-16_09h48.55.824,Experiment_English,3.2.4,Win32,60,,,1,0,340,117,1,339,ratio14_4_20_6.png,,,,,,,,,,,,
,,,,,,,,,,,,More than half,All,None,Some,Less than half,Many,Half,Few,Most,-0.557340713,-0.230748001,1,0,0,QQQ9,,,,,,,,English,2020-06-16_09h48.55.824,Experiment_English,3.2.4,Win32,60,,,1,0,340,253,1,339,ratio34_6_14_5.png,,,,,,,,,,,,
,,,,,,,,,,,,Many,None,Less than half,Half,Some,All,Most,Few,More than half,-0.463157886,0.254570617,1,0,0,QQQ7,,,,,,,,English,2020-06-16_09h48.55.824,Experiment_English,3.2.4,Win32,60,,,1,0,340,271,1,339,ratio41_12_15_6.png,,,,,,,,,,,,
,,,,,,,,,,,,Less than half,Most,Many,Half,None,All,Few,Some,More than half,-0.537396114,0.277839315,1,0,0,QQQ7,,,,,,,,English,2020-06-16_09h48.55.824,Experiment_English,3.2.4,Win32,60,,,1,0,340,181,1,339,ratio23_2_5_6.png,,,,,,,,,,,,
,,,,,,,,,,,,All,Less than half,Most,Many,Few,None,More than half,Half,Some,-0.00554015,-0.006925215,1,0,0,QQQ5,,,,,,,,English,2020-06-16_09h48.55.824,Experiment_English,3.2.4,Win32,60,,,1,0,340,129,1,339,ratio15_2_12_9.png,,,,,,,,,,,,
,,,,,,,,,,,,None,Some,More than half,Most,Half,Few,Less than half,All,Many,0.034349047,0.285595514,1,0,0,QQQ4,,,,,,,,English,2020-06-16_09h48.55.824,Experiment_English,3.2.4,Win32,60,,,1,0,340,211,1,339,ratio31_9_12_10.png,,,,,,,,,,,,
,,,,,,,,,,,,None,More than half,Few,Many,All,Half,Less than half,Some,Most,-0.370083092,-0.29168983,1,0,0,QQQ9,,,,,,,,English,2020-06-16_09h48.55.824,Experiment_English,3.2.4,Win32,60,,,1,0,340,172,1,339,ratio21_8_12_6.png,,,,,,,,,,,,
,,,,,,,,,,,,Less than half,All,Many,Few,Some,Half,None,More than half,Most,-0.44432132,-0.332686993,1,0,0,QQQ9,,,,,,,,English,2020-06-16_09h48.55.824,Experiment_English,3.2.4,Win32,60,,,1,0,340,178,1,339,ratio21_12_18_2.png,,,,,,,,,,,,
,,,,,,,,,,,,Less than half,None,Most,More than half,Many,Few,All,Half,Some,-0.494182817,-0.04127428,1,0,0,QQQ8,,,,,,,,English,2020-06-16_09h48.55.824,Experiment_English,3.2.4,Win32,60,,,1,0,340,36,1,339,ratio11_9_18_1.png,,,,,,,,,,,,
,,,,,,,,,,,,Many,Few,Half,More than half,None,Most,All,Some,Less than half,0.093074809,-0.010249315,1,0,0,QQQ5,,,,,,,,English,2020-06-16_09h48.55.824,Experiment_English,3.2.4,Win32,60,,,1,0,340,62,1,339,ratio0Y_0_5_4.png,,,,,,,,,,,,
,,,,,,,,,,,,Less than half,Half,Many,None,More than half,Few,Some,Most,All,0.064265945,-0.289473696,1,0,0,QQQ6,,,,,,,,English,2020-06-16_09h48.55.824,Experiment_English,3.2.4,Win32,60,,,1,0,340,128,1,339,ratio15_2_12_8.png,,,,,,,,,,,,
,,,,,,,,,,,,Some,Few,Most,None,Less than half,Half,Many,All,More than half,0.375623425,-0.244044332,1,0,0,QQQ3,,,,,,,,English,2020-06-16_09h48.55.824,Experiment_English,3.2.4,Win32,60,,,1,0,340,200,1,339,ratio31_3_4_4.png,,,,,,,,,,,,
,,,,,,,,,,,,Some,Few,All,More than half,Many,Half,None,Less than half,Most,0.374515257,-0.002493116,1,0,0,QQQ2,,,,,,,,English,2020-06-16_09h48.55.824,Experiment_English,3.2.4,Win32,60,,,1,0,340,149,1,339,ratio19_1_10_20.png,,,,,,,,,,,,
,,,,,,,,,,,,None,Half,Many,All,Less than half,Some,More than half,Few,Most,-0.05650968,-0.293905829,1,0,0,QQQ6,,,,,,,,English,2020-06-16_09h48.55.824,Experiment_English,3.2.4,Win32,60,,,1,0,340,24,1,339,ratio11_4_8_3.png,,,,,,,,,,,,
,,,,,,,,,,,,More than half,Many,Few,None,All,Half,Some,Less than half,Most,-0.446537387,0.282271448,1,0,0,QQQ7,,,,,,,,English,2020-06-16_09h48.55.824,Experiment_English,3.2.4,Win32,60,,,1,0,340,189,1,339,ratio23_4_10_8.png,,,,,,,,,,,,
,,,,,,,,,,,,All,None,Most,More than half,Less than half,Some,Half,Few,Many,0.080886444,-0.345983392,1,0,0,QQQ6,,,,,,,,English,2020-06-16_09h48.55.824,Experiment_English,3.2.4,Win32,60,,,1,0,340,15,1,339,ratio12_5_15_5.png,,,,,,,,,,,,
,,,,,,,,,,,,Less than half,All,Some,More than half,None,Few,Many,Half,Most,0.011080348,-0.292797796,1,0,0,QQQ6,,,,,,,,English,2020-06-16_09h48.55.824,Experiment_English,3.2.4,Win32,60,,,1,0,340,113,1,339,ratio14_3_15_8.png,,,,,,,,,,,,
,,,,,,,,,,,,None,Few,Less than half,All,Most,Half,Some,More than half,Many,-0.438781154,0.251246534,1,0,0,QQQ7,,,,,,,,English,2020-06-16_09h48.55.824,Experiment_English,3.2.4,Win32,60,,,1,0,340,290,1,339,ratio43_8_14_3.png,,,,,,,,,,,,
,,,,,,,,,,,,Some,More than half,Few,Most,Many,Half,None,All,Less than half,0.004432149,0.229085869,1,0,0,QQQ4,,,,,,,,English,2020-06-16_09h48.55.824,Experiment_English,3.2.4,Win32,60,,,1,0,340,275,1,339,ratio41_16_20_2.png,,,,,,,,,,,,
,,,,,,,,,,,,None,Many,Most,Some,Few,More than half,Less than half,All,Half,0.059833812,-0.081163511,1,0,0,QQQ5,,,,,,,,English,2020-06-16_09h48.55.824,Experiment_English,3.2.4,Win32,60,,,1,0,340,124,1,339,ratio15_1_6_16.png,,,,,,,,,,,,
,,,,,,,,,,,,Few,Most,Some,All,More than half,None,Many,Less than half,Half,0.373407224,-0.049030479,1,0,0,QQQ2,,,,,,,,English,2020-06-16_09h48.55.824,Experiment_English,3.2.4,Win32,60,,,1,0,340,167,1,339,ratio21_6_9_2.png,,,,,,,,,,,,
,,,,,,,,,,,,All,Half,Few,Many,Most,Less than half,Some,None,More than half,-0.360110793,0.240166201,1,0,0,QQQ7,,,,,,,,English,2020-06-16_09h48.55.824,Experiment_English,3.2.4,Win32,60,,,1,0,340,17,1,339,ratio12_6_18_5.png,,,,,,,,,,,,
,,,,,,,,,,,,More than half,Half,None,Few,Less than half,All,Most,Many,Some,0.448753485,-0.286149664,1,0,0,QQQ3,,,,,,,,English,2020-06-16_09h48.55.824,Experiment_English,3.2.4,Win32,60,,,1,0,340,66,1,339,ratio0Y_0_9_8.png,,,,,,,,,,,,
,,,,,,,,,,,,Most,Few,All,Many,More than half,Less than half,Some,None,Half,-0.402216057,0.032963982,1,0,0,QQQ8,,,,,,,,English,2020-06-16_09h48.55.824,Experiment_English,3.2.4,Win32,60,,,1,0,340,78,1,339,ratio0Y_0_19_1.png,,,,,,,,,,,,
,,,,,,,,,,,,None,Most,All,Few,Less than half,Some,More than half,Half,Many,0.011080348,-0.231855967,1,0,0,QQQ6,,,,,,,,English,2020-06-16_09h48.55.824,Experiment_English,3.2.4,Win32,60,,,1,0,340,19,1,339,ratio12_6_18_9.png,,,,,,,,,,,,
,,,,,,,,,,,,Some,Half,Less than half,None,Few,All,Many,Most,More than half,0.015512481,-0.025761781,1,0,0,QQQ5,,,,,,,,English,2020-06-16_09h48.55.824,Experiment_English,3.2.4,Win32,60,,,1,0,340,88,1,339,ratio13_3_12_5.png,,,,,,,,,,,,
,,,,,,,,,,,,Few,Most,More than half,Less than half,None,All,Many,Some,Half,0.37894739,-0.036842113,1,0,0,QQQ2,,,,,,,,English,2020-06-16_09h48.55.824,Experiment_English,3.2.4,Win32,60,,,1,0,340,232,1,339,ratio32_9_15_8.png,,,,,,,,,,,,
,,,,,,,,,,,,Many,Some,More than half,None,Half,Less than half,Few,All,Most,-0.392243757,0.242382268,1,0,0,QQQ7,,,,,,,,English,2020-06-16_09h48.55.824,Experiment_English,3.2.4,Win32,60,,,1,0,340,140,1,339,ratio19_1_10_1.png,,,,,,,,,,,,
,,,,,,,,,,,,Many,Less than half,Some,All,Few,More than half,None,Half,Most,-0.34570636,-0.251800565,1,0,0,QQQ9,,,,,,,,English,2020-06-16_09h48.55.824,Experiment_English,3.2.4,Win32,60,,,1,0,340,207,1,339,ratio31_6_8_9.png,,,,,,,,,,,,
,,,,,,,,,,,,Few,More than half,All,Some,None,Half,Less than half,Most,Many,-0.047645347,-0.32160666,1,0,0,QQQ6,,,,,,,,English,2020-06-16_09h48.55.824,Experiment_English,3.2.4,Win32,60,,,1,0,340,285,1,339,ratio43_4_7_14.png,,,,,,,,,,,,
,,,,,,,,,,,,Less than half,Half,All,Many,Most,More than half,Few,Some,None,-0.436565088,-0.267313031,1,0,0,QQQ9,,,,,,,,English,2020-06-16_09h48.55.824,Experiment_English,3.2.4,Win32,60,,,1,0,340,74,1,339,ratio0Y_0_15_10.png,,,,,,,,,,,,
,,,,,,,,,,,,Less than half,Many,Some,More than half,Few,All,None,Most,Half,-0.351246527,0.037396115,1,0,0,QQQ8,,,,,,,,English,2020-06-16_09h48.55.824,Experiment_English,3.2.4,Win32,60,,,1,0,340,334,1,339,ratio91_18_20_9.png,,,,,,,,,,,,
,,,,,,,,,,,,None,Less than half,Few,All,Half,Most,More than half,Many,Some,0.016620515,-0.282825496,1,0,0,QQQ6,,,,,,,,English,2020-06-16_09h48.55.824,Experiment_English,3.2.4,Win32,60,,,1,0,340,309,1,339,ratio51_10_12_10.png,,,,,,,,,,,,
