continue_mouse.x,continue_mouse.y,continue_mouse.leftButton,continue_mouse.midButton,continue_mouse.rightButton,continue_mouse.clicked_name,continue_mouse_2.x,continue_mouse_2.y,continue_mouse_2.leftButton,continue_mouse_2.midButton,continue_mouse_2.rightButton,continue_mouse_2.clicked_name,Q1,Q2,Q3,Q4,Q5,Q6,Q7,Q8,Q9,select_answer.x,select_answer.y,select_answer.leftButton,select_answer.midButton,select_answer.rightButton,select_answer.clicked_name,trial.thisRepN,trial.thisTrialN,trial.thisN,trial.thisIndex,trial.ran,trial.order,trials,Native tongue*,date,expName,psychopyVersion,OS,frameRate,key_resp.keys,key_resp.rt,Actual_Experiment.thisRepN,Actual_Experiment.thisTrialN,Actual_Experiment.thisN,Actual_Experiment.thisIndex,Actual_Experiment.ran,Actual_Experiment.order,Pic,mouse_pause.x,mouse_pause.y,mouse_pause.leftButton,mouse_pause.midButton,mouse_pause.rightButton,mouse_pause.clicked_name,pause.thisRepN,pause.thisTrialN,pause.thisN,pause.thisIndex,pause.ran,pause.order
0.387037037,-0.44537037,1,0,0,continue_button,0.384259259,-0.441666667,1,0,0,continue_button_2,Most,Some,More than half,All,Few,Many,None,Less than half,Half,-0.431481481,-0.318518519,1,0,0,QQQ9,1,0,16,3,1,15,ratio41_8_10_8.png,English,2020-06-16_15h35.32.133,Experiment_English,3.2.4,Win32,60,,,,,,,,,,,,,,,,,,,,,
,,,,,,,,,,,,Few,Half,Less than half,All,Many,More than half,None,Some,Most,-0.103703704,-0.341666667,1,0,0,QQQ6,1,0,16,6,1,15,ratio31_12_16_7.png,English,2020-06-16_15h35.32.133,Experiment_English,3.2.4,Win32,60,,,,,,,,,,,,,,,,,,,,,
,,,,,,,,,,,,Few,Less than half,More than half,Many,Half,Some,None,All,Most,-0.435185185,-0.006481481,1,0,0,QQQ8,1,0,16,15,1,15,ratio0Y_0_14_10.png,English,2020-06-16_15h35.32.133,Experiment_English,3.2.4,Win32,60,,,,,,,,,,,,,,,,,,,,,
,,,,,,,,,,,,Half,Few,Less than half,Many,More than half,Most,None,All,Some,0.051851852,0.257407407,1,0,0,QQQ4,1,0,16,0,1,15,ratio91_9_10_19.png,English,2020-06-16_15h35.32.133,Experiment_English,3.2.4,Win32,60,,,,,,,,,,,,,,,,,,,,,
,,,,,,,,,,,,Half,Less than half,None,Some,Few,More than half,Many,All,Most,0.010185185,-0.237962963,1,0,0,QQQ6,1,0,16,8,1,15,ratio21_12_18_3.png,English,2020-06-16_15h35.32.133,Experiment_English,3.2.4,Win32,60,,,,,,,,,,,,,,,,,,,,,
,,,,,,,,,,,,Some,Many,All,Few,None,Most,More than half,Half,Less than half,-0.364814815,0.264814815,1,0,0,QQQ7,,,,,,,,English,2020-06-16_15h35.32.133,Experiment_English,3.2.4,Win32,60,b,22.83999991,1,0,340,169,1,339,ratio21_6_9_7.png,,,,,,,,,,,,
,,,,,,,,,,,,Some,None,Half,Many,Most,All,Less than half,More than half,Few,-0.403703704,-0.047222222,1,0,0,QQQ8,,,,,,,,English,2020-06-16_15h35.32.133,Experiment_English,3.2.4,Win32,60,,,1,0,340,224,1,339,ratio32_3_5_10.png,,,,,,,,,,,,
,,,,,,,,,,,,Some,More than half,Many,Most,Less than half,Few,All,None,Half,-0.026851852,0.257407407,1,0,0,QQQ4,,,,,,,,English,2020-06-16_15h35.32.133,Experiment_English,3.2.4,Win32,60,,,1,0,340,296,1,339,ratio43_8_14_12.png,,,,,,,,,,,,
,,,,,,,,,,,,Less than half,None,More than half,Many,All,Some,Most,Half,Few,0.592592593,-0.297222222,1,0,0,QQQ3,,,,,,,,English,2020-06-16_15h35.32.133,Experiment_English,3.2.4,Win32,60,,,1,0,340,300,1,339,ratio51_5_6_1.png,,,,,,,,,,,,
,,,,,,,,,,,,More than half,Few,Some,None,Half,Most,All,Less than half,Many,0.023148148,-0.352777778,1,0,0,QQQ6,,,,,,,,English,2020-06-16_15h35.32.133,Experiment_English,3.2.4,Win32,60,,,1,0,340,306,1,339,ratio51_5_6_18.png,,,,,,,,,,,,
,,,,,,,,,,,,More than half,All,Most,None,Many,Less than half,Half,Some,Few,0.075,-0.053703704,1,0,0,QQQ5,,,,,,,,English,2020-06-16_15h35.32.133,Experiment_English,3.2.4,Win32,60,,,1,0,340,338,1,339,ratio91_18_20_18.png,,,,,,,,,,,,
,,,,,,,,,,,,Most,Many,All,None,More than half,Half,Few,Some,Less than half,0.033333333,-0.328703704,1,0,0,QQQ6,,,,,,,,English,2020-06-16_15h35.32.133,Experiment_English,3.2.4,Win32,60,,,1,0,340,24,1,339,ratio11_4_8_3.png,,,,,,,,,,,,
,,,,,,,,,,,,Half,Few,More than half,All,Less than half,Most,Some,Many,None,0.528703704,0.275925926,1,0,0,QQQ1,,,,,,,,English,2020-06-16_15h35.32.133,Experiment_English,3.2.4,Win32,60,,,1,0,340,292,1,339,ratio43_8_14_6.png,,,,,,,,,,,,
,,,,,,,,,,,,Most,Few,None,More than half,Some,Many,Less than half,Half,All,0.099074074,0.258333333,1,0,0,QQQ4,,,,,,,,English,2020-06-16_15h35.32.133,Experiment_English,3.2.4,Win32,60,,,1,0,340,221,1,339,ratio32_3_5_3.png,,,,,,,,,,,,
,,,,,,,,,,,,Some,Half,Most,Less than half,Many,More than half,Few,All,None,0.032407407,0.041666667,1,0,0,QQQ5,,,,,,,,English,2020-06-16_15h35.32.133,Experiment_English,3.2.4,Win32,60,,,1,0,340,269,1,339,ratio41_8_10_6.png,,,,,,,,,,,,
,,,,,,,,,,,,Few,Half,More than half,Many,Less than half,All,Some,Most,None,-0.352777778,0.016666667,1,0,0,QQQ8,,,,,,,,English,2020-06-16_15h35.32.133,Experiment_English,3.2.4,Win32,60,,,1,0,340,260,1,339,ratio41_4_5_2.png,,,,,,,,,,,,
,,,,,,,,,,,,Half,Most,More than half,Less than half,Many,Some,None,All,Few,0.016666667,-0.012962963,1,0,0,QQQ5,,,,,,,,English,2020-06-16_15h35.32.133,Experiment_English,3.2.4,Win32,60,,,1,0,340,310,1,339,ratio51_10_12_12.png,,,,,,,,,,,,
,,,,,,,,,,,,Most,Many,Less than half,Few,Half,All,None,More than half,Some,0.142592593,0.019444444,1,0,0,QQQ5,,,,,,,,English,2020-06-16_15h35.32.133,Experiment_English,3.2.4,Win32,60,,,1,0,340,21,1,339,ratio11_2_4_10.png,,,,,,,,,,,,
,,,,,,,,,,,,All,Most,Less than half,More than half,Many,Some,Half,None,Few,0.142592593,0.019444444,1,0,0,QQQ5,,,,,,,,English,2020-06-16_15h35.32.133,Experiment_English,3.2.4,Win32,60,,,1,0,340,235,1,339,ratio32_12_20_1.png,,,,,,,,,,,,
,,,,,,,,,,,,Most,More than half,Some,All,Half,None,Few,Less than half,Many,0.059259259,-0.387037037,1,0,0,QQQ6,,,,,,,,English,2020-06-16_15h35.32.133,Experiment_English,3.2.4,Win32,60,,,1,0,340,71,1,339,ratio0Y_0_12_10.png,,,,,,,,,,,,
,,,,,,,,,,,,Half,Most,More than half,Some,Many,Few,None,Less than half,All,0.037962963,-0.019444444,1,0,0,QQQ5,,,,,,,,English,2020-06-16_15h35.32.133,Experiment_English,3.2.4,Win32,60,,,1,0,340,275,1,339,ratio41_16_20_2.png,,,,,,,,,,,,
,,,,,,,,,,,,Half,More than half,Most,Some,Few,None,Many,All,Less than half,-0.412037037,-0.062037037,1,0,0,QQQ8,,,,,,,,English,2020-06-16_15h35.32.133,Experiment_English,3.2.4,Win32,60,,,1,0,340,41,1,339,ratioX0_4_4_9.png,,,,,,,,,,,,
,,,,,,,,,,,,Few,Many,All,Half,None,Most,Less than half,More than half,Some,-0.388888889,0.284259259,1,0,0,QQQ7,,,,,,,,English,2020-06-16_15h35.32.133,Experiment_English,3.2.4,Win32,60,,,1,0,340,159,1,339,ratio19_2_20_20.png,,,,,,,,,,,,
,,,,,,,,,,,,More than half,Less than half,Most,None,Few,Some,Half,Many,All,0.064814815,0.210185185,1,0,0,QQQ4,,,,,,,,English,2020-06-16_15h35.32.133,Experiment_English,3.2.4,Win32,60,,,1,0,340,75,1,339,ratio0Y_0_16_10.png,,,,,,,,,,,,
,,,,,,,,,,,,Half,Many,Most,Few,Some,More than half,Less than half,All,None,-0.531481481,-0.346296296,1,0,0,QQQ9,,,,,,,,English,2020-06-16_15h35.32.133,Experiment_English,3.2.4,Win32,60,,,1,0,340,67,1,339,ratio0Y_0_10_10.png,,,,,,,,,,,,
,,,,,,,,,,,,Many,Most,Less than half,All,Few,None,Half,More than half,Some,0.02962963,-0.086111111,1,0,0,QQQ5,,,,,,,,English,2020-06-16_15h35.32.133,Experiment_English,3.2.4,Win32,60,,,1,0,340,228,1,339,ratio32_6_10_7.png,,,,,,,,,,,,
,,,,,,,,,,,,All,Few,Some,More than half,Less than half,Many,Most,None,Half,0.537037037,-0.077777778,1,0,0,QQQ2,,,,,,,,English,2020-06-16_15h35.32.133,Experiment_English,3.2.4,Win32,60,,,1,0,340,136,1,339,ratio15_3_18_8.png,,,,,,,,,,,,
,,,,,,,,,,,,Many,Most,Some,Few,Less than half,Half,None,All,More than half,0.091666667,-0.056481481,1,0,0,QQQ5,,,,,,,,English,2020-06-16_15h35.32.133,Experiment_English,3.2.4,Win32,60,,,1,0,340,10,1,339,ratio12_4_12_4.png,,,,,,,,,,,,
,,,,,,,,,,,,Many,More than half,None,Few,Half,Most,All,Less than half,Some,0.006481481,0.325,1,0,0,QQQ4,,,,,,,,English,2020-06-16_15h35.32.133,Experiment_English,3.2.4,Win32,60,,,1,0,340,193,1,339,ratio23_6_15_9.png,,,,,,,,,,,,
,,,,,,,,,,,,Half,Less than half,Many,Most,Some,All,More than half,Few,None,0.550925926,0.253703704,1,0,0,QQQ1,,,,,,,,English,2020-06-16_15h35.32.133,Experiment_English,3.2.4,Win32,60,,,1,0,340,294,1,339,ratio43_8_14_9.png,,,,,,,,,,,,
,,,,,,,,,,,,None,All,Some,Many,Less than half,Most,Half,More than half,Few,0.012962963,-0.266666667,1,0,0,QQQ6,,,,,,,,English,2020-06-16_15h35.32.133,Experiment_English,3.2.4,Win32,60,,,1,0,340,323,1,339,ratio91_9_10_5.png,,,,,,,,,,,,
,,,,,,,,,,,,Few,None,Most,More than half,Many,Less than half,Half,Some,All,0.018518519,0.010185185,1,0,0,QQQ5,,,,,,,,English,2020-06-16_15h35.32.133,Experiment_English,3.2.4,Win32,60,,,1,0,340,312,1,339,ratio51_10_12_16.png,,,,,,,,,,,,
,,,,,,,,,,,,Some,Less than half,Many,Most,More than half,Few,Half,All,None,0.518518519,-0.300925926,1,0,0,QQQ3,,,,,,,,English,2020-06-16_15h35.32.133,Experiment_English,3.2.4,Win32,60,,,1,0,340,313,1,339,ratio51_15_18_2.png,,,,,,,,,,,,
,,,,,,,,,,,,Many,None,Most,Some,All,Half,Less than half,More than half,Few,-0.493518519,0.003703704,1,0,0,QQQ8,,,,,,,,English,2020-06-16_15h35.32.133,Experiment_English,3.2.4,Win32,60,,,1,0,340,164,1,339,ratio21_4_6_6.png,,,,,,,,,,,,
,,,,,,,,,,,,Some,More than half,Many,Most,All,None,Half,Few,Less than half,-0.493518519,0.003703704,1,0,0,QQQ8,,,,,,,,English,2020-06-16_15h35.32.133,Experiment_English,3.2.4,Win32,60,,,1,0,340,98,1,339,ratio13_5_20_3.png,,,,,,,,,,,,
,,,,,,,,,,,,More than half,Some,Half,Many,All,Less than half,Most,Few,None,-0.491666667,0.316666667,1,0,0,QQQ7,,,,,,,,English,2020-06-16_15h35.32.133,Experiment_English,3.2.4,Win32,60,,,1,0,340,325,1,339,ratio91_9_10_8.png,,,,,,,,,,,,
,,,,,,,,,,,,Half,Most,Many,More than half,Few,None,All,Less than half,Some,-0.067592593,0.07962963,1,0,0,QQQ5,,,,,,,,English,2020-06-16_15h35.32.133,Experiment_English,3.2.4,Win32,60,,,1,0,340,35,1,339,ratio11_8_16_10.png,,,,,,,,,,,,
,,,,,,,,,,,,Many,Half,All,None,Less than half,Most,Few,More than half,Some,0.448148148,0.007407407,1,0,0,QQQ2,,,,,,,,English,2020-06-16_15h35.32.133,Experiment_English,3.2.4,Win32,60,,,1,0,340,295,1,339,ratio43_8_14_11.png,,,,,,,,,,,,
,,,,,,,,,,,,Most,Less than half,Few,Some,Many,Half,More than half,All,None,0.448148148,0.007407407,1,0,0,QQQ2,,,,,,,,English,2020-06-16_15h35.32.133,Experiment_English,3.2.4,Win32,60,,,1,0,340,114,1,339,ratio14_3_15_10.png,0.388888889,-0.407407407,1,0,0,continue_button_pause,1,0,1,0,1,0
,,,,,,,,,,,,,,,,,,,,,,,,,,,,,,,,,,English,2020-06-16_15h35.32.133,Experiment_English,3.2.4,Win32,60,,,1,0,340,114,1,339,ratio14_3_15_10.png,,,,,,,,,,,,
,,,,,,,,,,,,Few,Some,None,All,Less than half,Most,Half,More than half,Many,0.119444444,-0.059259259,1,0,0,QQQ5,,,,,,,,English,2020-06-16_15h35.32.133,Experiment_English,3.2.4,Win32,60,,,1,0,340,13,1,339,ratio12_5_15_3.png,,,,,,,,,,,,
,,,,,,,,,,,,Few,Most,Some,Half,All,Many,More than half,None,Less than half,0.490740741,0.282407407,1,0,0,QQQ1,,,,,,,,English,2020-06-16_15h35.32.133,Experiment_English,3.2.4,Win32,60,,,1,0,340,7,1,339,ratio12_3_9_2.png,,,,,,,,,,,,
,,,,,,,,,,,,None,Half,Less than half,Most,Few,More than half,Some,All,Many,0.05,0.014814815,1,0,0,QQQ5,,,,,,,,English,2020-06-16_15h35.32.133,Experiment_English,3.2.4,Win32,60,,,1,0,340,3,1,339,ratio12_2_6_3.png,,,,,,,,,,,,
,,,,,,,,,,,,Half,More than half,None,Most,Less than half,Few,Many,Some,All,0.563888889,-0.082407407,1,0,0,QQQ2,,,,,,,,English,2020-06-16_15h35.32.133,Experiment_English,3.2.4,Win32,60,,,1,0,340,229,1,339,ratio32_6_10_9.png,,,,,,,,,,,,
,,,,,,,,,,,,Half,Most,More than half,All,None,Few,Less than half,Many,Some,0.453703704,-0.039814815,1,0,0,QQQ2,,,,,,,,English,2020-06-16_15h35.32.133,Experiment_English,3.2.4,Win32,60,,,1,0,340,264,1,339,ratio41_4_5_6.png,,,,,,,,,,,,
,,,,,,,,,,,,Few,Many,Most,Less than half,Half,None,More than half,Some,All,0.452777778,-0.042592593,1,0,0,QQQ2,,,,,,,,English,2020-06-16_15h35.32.133,Experiment_English,3.2.4,Win32,60,,,1,0,340,274,1,339,ratio41_12_15_9.png,,,,,,,,,,,,
,,,,,,,,,,,,Many,Most,Half,Some,Less than half,None,Few,All,More than half,0.452777778,-0.042592593,1,0,0,QQQ2,,,,,,,,English,2020-06-16_15h35.32.133,Experiment_English,3.2.4,Win32,60,,,1,0,340,333,1,339,ratio91_18_20_6.png,,,,,,,,,,,,
,,,,,,,,,,,,Half,Some,Less than half,More than half,Few,All,Many,None,Most,0.424074074,0.32962963,1,0,0,QQQ1,,,,,,,,English,2020-06-16_15h35.32.133,Experiment_English,3.2.4,Win32,60,,,1,0,340,23,1,339,ratio11_3_6_9.png,,,,,,,,,,,,
,,,,,,,,,,,,Less than half,None,More than half,Half,Few,All,Some,Many,Most,-0.364814815,0.001851852,1,0,0,QQQ8,,,,,,,,English,2020-06-16_15h35.32.133,Experiment_English,3.2.4,Win32,60,,,1,0,340,330,1,339,ratio91_18_20_2.png,,,,,,,,,,,,
,,,,,,,,,,,,None,Most,All,Less than half,Few,More than half,Half,Many,Some,-0.064814815,0.00462963,1,0,0,QQQ5,,,,,,,,English,2020-06-16_15h35.32.133,Experiment_English,3.2.4,Win32,60,,,1,0,340,124,1,339,ratio15_1_6_16.png,,,,,,,,,,,,
,,,,,,,,,,,,Few,Some,All,Most,Many,Half,More than half,Less than half,None,-0.064814815,0.00462963,1,0,0,QQQ5,,,,,,,,English,2020-06-16_15h35.32.133,Experiment_English,3.2.4,Win32,60,,,1,0,340,240,1,339,ratio34_3_7_4.png,,,,,,,,,,,,
,,,,,,,,,,,,Less than half,Most,More than half,Few,Half,Some,All,Many,None,-0.533333333,-0.294444444,1,0,0,QQQ9,,,,,,,,English,2020-06-16_15h35.32.133,Experiment_English,3.2.4,Win32,60,,,1,0,340,64,1,339,ratio0Y_0_7_1.png,,,,,,,,,,,,
,,,,,,,,,,,,All,More than half,Some,Many,Less than half,None,Half,Most,Few,0.501851852,-0.001851852,1,0,0,QQQ2,,,,,,,,English,2020-06-16_15h35.32.133,Experiment_English,3.2.4,Win32,60,,,1,0,340,320,1,339,ratio91_9_10_1.png,,,,,,,,,,,,
,,,,,,,,,,,,Less than half,Some,None,Half,Few,More than half,Many,Most,All,0.028703704,-0.061111111,1,0,0,QQQ5,,,,,,,,English,2020-06-16_15h35.32.133,Experiment_English,3.2.4,Win32,60,,,1,0,340,130,1,339,ratio15_2_12_12.png,,,,,,,,,,,,
,,,,,,,,,,,,Some,Most,Less than half,All,Many,None,Few,More than half,Half,-0.008333333,0.266666667,1,0,0,QQQ4,,,,,,,,English,2020-06-16_15h35.32.133,Experiment_English,3.2.4,Win32,60,,,1,0,340,47,1,339,ratioX0_9_9_4.png,,,,,,,,,,,,
,,,,,,,,,,,,More than half,Many,All,None,Less than half,Half,Some,Few,Most,0,0.276851852,1,0,0,QQQ4,,,,,,,,English,2020-06-16_15h35.32.133,Experiment_English,3.2.4,Win32,60,,,1,0,340,74,1,339,ratio0Y_0_15_10.png,,,,,,,,,,,,
,,,,,,,,,,,,Most,Less than half,Some,Many,All,Few,None,More than half,Half,-0.419444444,-0.27962963,1,0,0,QQQ9,,,,,,,,English,2020-06-16_15h35.32.133,Experiment_English,3.2.4,Win32,60,,,1,0,340,28,1,339,ratio11_5_10_9.png,,,,,,,,,,,,
,,,,,,,,,,,,More than half,None,Most,Many,Some,Half,All,Less than half,Few,-0.034259259,-0.062037037,1,0,0,QQQ5,,,,,,,,English,2020-06-16_15h35.32.133,Experiment_English,3.2.4,Win32,60,,,1,0,340,253,1,339,ratio34_6_14_5.png,,,,,,,,,,,,
,,,,,,,,,,,,Less than half,Half,Few,None,Most,Some,All,More than half,Many,-0.034259259,-0.062037037,1,0,0,QQQ5,,,,,,,,English,2020-06-16_15h35.32.133,Experiment_English,3.2.4,Win32,60,,,1,0,340,251,1,339,ratio34_6_14_2.png,,,,,,,,,,,,
,,,,,,,,,,,,More than half,Most,Half,None,Many,Few,Some,All,Less than half,0.003703704,-0.286111111,1,0,0,QQQ6,,,,,,,,English,2020-06-16_15h35.32.133,Experiment_English,3.2.4,Win32,60,,,1,0,340,247,1,339,ratio34_3_7_12.png,,,,,,,,,,,,
,,,,,,,,,,,,Many,Less than half,Most,Some,None,Few,Half,More than half,All,0.389814815,-0.255555556,1,0,0,QQQ3,,,,,,,,English,2020-06-16_15h35.32.133,Experiment_English,3.2.4,Win32,60,,,1,0,340,202,1,339,ratio31_3_4_8.png,,,,,,,,,,,,
,,,,,,,,,,,,All,None,Many,Few,Some,Less than half,More than half,Most,Half,0.37962963,-0.25462963,1,0,0,QQQ3,,,,,,,,English,2020-06-16_15h35.32.133,Experiment_English,3.2.4,Win32,60,,,1,0,340,272,1,339,ratio41_12_15_7.png,,,,,,,,,,,,
,,,,,,,,,,,,Less than half,More than half,Some,Many,All,None,Most,Half,Few,-0.476851852,-0.227777778,1,0,0,QQQ9,,,,,,,,English,2020-06-16_15h35.32.133,Experiment_English,3.2.4,Win32,60,,,1,0,340,95,1,339,ratio13_4_16_10.png,,,,,,,,,,,,
,,,,,,,,,,,,Few,All,Half,Many,Some,More than half,None,Most,Less than half,-0.421296296,-0.247222222,1,0,0,QQQ9,,,,,,,,English,2020-06-16_15h35.32.133,Experiment_English,3.2.4,Win32,60,,,1,0,340,139,1,339,ratio15_3_18_20.png,,,,,,,,,,,,
,,,,,,,,,,,,More than half,Most,Few,Some,All,Half,Many,None,Less than half,-0.421296296,-0.247222222,1,0,0,QQQ9,,,,,,,,English,2020-06-16_15h35.32.133,Experiment_English,3.2.4,Win32,60,,,1,0,340,190,1,339,ratio23_6_15_3.png,,,,,,,,,,,,
,,,,,,,,,,,,Few,None,More than half,Half,Many,All,Some,Most,Less than half,0.462037037,0.262037037,1,0,0,QQQ1,,,,,,,,English,2020-06-16_15h35.32.133,Experiment_English,3.2.4,Win32,60,,,1,0,340,85,1,339,ratio13_2_8_5.png,,,,,,,,,,,,
,,,,,,,,,,,,All,More than half,Less than half,Some,Most,Half,Many,Few,None,0.12037037,-0.050925926,1,0,0,QQQ5,,,,,,,,English,2020-06-16_15h35.32.133,Experiment_English,3.2.4,Win32,60,,,1,0,340,328,1,339,ratio91_9_10_15.png,,,,,,,,,,,,
,,,,,,,,,,,,Some,Less than half,None,All,Most,Few,More than half,Half,Many,0.486111111,-0.248148148,1,0,0,QQQ3,,,,,,,,English,2020-06-16_15h35.32.133,Experiment_English,3.2.4,Win32,60,,,1,0,340,77,1,339,ratio0Y_0_18_3.png,,,,,,,,,,,,
,,,,,,,,,,,,Half,None,Few,More than half,Less than half,All,Many,Some,Most,0.085185185,-0.099074074,1,0,0,QQQ5,,,,,,,,English,2020-06-16_15h35.32.133,Experiment_English,3.2.4,Win32,60,,,1,0,340,18,1,339,ratio12_6_18_7.png,,,,,,,,,,,,
,,,,,,,,,,,,All,Some,Half,None,Many,Few,More than half,Less than half,Most,0.057407407,-0.261111111,1,0,0,QQQ6,,,,,,,,English,2020-06-16_15h35.32.133,Experiment_English,3.2.4,Win32,60,,,1,0,340,152,1,339,ratio19_2_20_6.png,,,,,,,,,,,,
,,,,,,,,,,,,Most,Few,All,Some,More than half,None,Half,Less than half,Many,0.116666667,-0.307407407,1,0,0,QQQ6,,,,,,,,English,2020-06-16_15h35.32.133,Experiment_English,3.2.4,Win32,60,,,1,0,340,63,1,339,ratio0Y_0_6_8.png,,,,,,,,,,,,
,,,,,,,,,,,,None,More than half,All,Many,Half,Some,Few,Most,Less than half,0.556481481,-0.068518519,1,0,0,QQQ2,,,,,,,,English,2020-06-16_15h35.32.133,Experiment_English,3.2.4,Win32,60,,,1,0,340,208,1,339,ratio31_9_12_3.png,,,,,,,,,,,,
,,,,,,,,,,,,Some,All,More than half,Most,Many,Less than half,Few,Half,None,0.510185185,-0.262962963,1,0,0,QQQ3,,,,,,,,English,2020-06-16_15h35.32.133,Experiment_English,3.2.4,Win32,60,,,1,0,340,200,1,339,ratio31_3_4_4.png,,,,,,,,,,,,
,,,,,,,,,,,,Less than half,Few,None,Half,More than half,All,Most,Some,Many,0.090740741,-0.073148148,1,0,0,QQQ5,,,,,,,,English,2020-06-16_15h35.32.133,Experiment_English,3.2.4,Win32,60,,,1,0,340,183,1,339,ratio23_2_5_9.png,0.263888889,-0.378703704,1,0,0,continue_button_pause,1,0,1,0,1,0
,,,,,,,,,,,,,,,,,,,,,,,,,,,,,,,,,,English,2020-06-16_15h35.32.133,Experiment_English,3.2.4,Win32,60,,,1,0,340,183,1,339,ratio23_2_5_9.png,,,,,,,,,,,,
,,,,,,,,,,,,All,Half,None,Some,Many,Less than half,More than half,Most,Few,0.505555556,-0.24537037,1,0,0,QQQ3,,,,,,,,English,2020-06-16_15h35.32.133,Experiment_English,3.2.4,Win32,60,,,1,0,340,62,1,339,ratio0Y_0_5_4.png,,,,,,,,,,,,
,,,,,,,,,,,,Few,Most,Many,Half,More than half,Some,None,Less than half,All,0.389814815,0.240740741,1,0,0,QQQ1,,,,,,,,English,2020-06-16_15h35.32.133,Experiment_English,3.2.4,Win32,60,,,1,0,340,90,1,339,ratio13_3_12_7.png,,,,,,,,,,,,
,,,,,,,,,,,,Many,None,Few,More than half,Most,Less than half,Half,Some,All,0.116666667,0.036111111,1,0,0,QQQ5,,,,,,,,English,2020-06-16_15h35.32.133,Experiment_English,3.2.4,Win32,60,,,1,0,340,179,1,339,ratio21_12_18_8.png,,,,,,,,,,,,
,,,,,,,,,,,,Less than half,None,Half,Some,More than half,Few,All,Many,Most,0.091666667,-0.25,1,0,0,QQQ6,,,,,,,,English,2020-06-16_15h35.32.133,Experiment_English,3.2.4,Win32,60,,,1,0,340,142,1,339,ratio19_1_10_6.png,,,,,,,,,,,,
,,,,,,,,,,,,Many,Most,Few,Half,Less than half,All,None,Some,More than half,0.12962963,-0.048148148,1,0,0,QQQ5,,,,,,,,English,2020-06-16_15h35.32.133,Experiment_English,3.2.4,Win32,60,,,1,0,340,233,1,339,ratio32_9_15_9.png,,,,,,,,,,,,
,,,,,,,,,,,,Less than half,Most,More than half,Some,Few,All,Half,None,Many,0.487037037,-0.049074074,1,0,0,QQQ2,,,,,,,,English,2020-06-16_15h35.32.133,Experiment_English,3.2.4,Win32,60,,,1,0,340,167,1,339,ratio21_6_9_2.png,,,,,,,,,,,,
,,,,,,,,,,,,More than half,Less than half,None,All,Some,Many,Half,Most,Few,0.487037037,0.248148148,1,0,0,QQQ1,,,,,,,,English,2020-06-16_15h35.32.133,Experiment_English,3.2.4,Win32,60,,,1,0,340,175,1,339,ratio21_10_15_2.png,,,,,,,,,,,,
,,,,,,,,,,,,None,All,Some,Most,Half,Less than half,Many,More than half,Few,-0.375,-0.230555556,1,0,0,QQQ9,,,,,,,,English,2020-06-16_15h35.32.133,Experiment_English,3.2.4,Win32,60,,,1,0,340,119,1,339,ratio14_4_20_10.png,,,,,,,,,,,,
,,,,,,,,,,,,All,Less than half,Few,None,Half,Some,Most,More than half,Many,-0.442592593,0.014814815,1,0,0,QQQ8,,,,,,,,English,2020-06-16_15h35.32.133,Experiment_English,3.2.4,Win32,60,,,1,0,340,266,1,339,ratio41_8_10_2.png,,,,,,,,,,,,
,,,,,,,,,,,,None,Half,Few,Many,All,More than half,Most,Some,Less than half,-0.42037037,-0.272222222,1,0,0,QQQ9,,,,,,,,English,2020-06-16_15h35.32.133,Experiment_English,3.2.4,Win32,60,,,1,0,340,150,1,339,ratio19_2_20_1.png,,,,,,,,,,,,
,,,,,,,,,,,,All,Some,Less than half,More than half,Most,None,Many,Few,Half,-0.040740741,0.003703704,1,0,0,QQQ5,,,,,,,,English,2020-06-16_15h35.32.133,Experiment_English,3.2.4,Win32,60,,,1,0,340,327,1,339,ratio91_9_10_11.png,,,,,,,,,,,,
,,,,,,,,,,,,Many,More than half,Less than half,Few,All,None,Half,Most,Some,0.487037037,-0.283333333,1,0,0,QQQ3,,,,,,,,English,2020-06-16_15h35.32.133,Experiment_English,3.2.4,Win32,60,,,1,0,340,106,1,339,ratio14_2_10_2.png,,,,,,,,,,,,
,,,,,,,,,,,,Most,More than half,Half,Less than half,Some,Few,Many,All,None,-0.54537037,0.012037037,1,0,0,QQQ8,,,,,,,,English,2020-06-16_15h35.32.133,Experiment_English,3.2.4,Win32,60,,,1,0,340,53,1,339,ratioX0_14_14_8.png,,,,,,,,,,,,
,,,,,,,,,,,,Some,None,Most,More than half,All,Many,Few,Half,Less than half,-0.065740741,0.290740741,1,0,0,QQQ4,,,,,,,,English,2020-06-16_15h35.32.133,Experiment_English,3.2.4,Win32,60,,,1,0,340,27,1,339,ratio11_5_10_7.png,,,,,,,,,,,,
,,,,,,,,,,,,Most,Less than half,Some,Half,Few,None,All,More than half,Many,-0.065740741,0.290740741,1,0,0,QQQ4,,,,,,,,English,2020-06-16_15h35.32.133,Experiment_English,3.2.4,Win32,60,,,1,0,340,263,1,339,ratio41_4_5_5.png,,,,,,,,,,,,
,,,,,,,,,,,,Some,More than half,Half,Most,Less than half,All,Few,None,Many,-0.057407407,0.07037037,1,0,0,QQQ5,,,,,,,,English,2020-06-16_15h35.32.133,Experiment_English,3.2.4,Win32,60,,,1,0,340,267,1,339,ratio41_8_10_4.png,,,,,,,,,,,,
,,,,,,,,,,,,More than half,None,All,Less than half,Some,Half,Most,Many,Few,-0.057407407,0.069444444,1,0,0,QQQ5,,,,,,,,English,2020-06-16_15h35.32.133,Experiment_English,3.2.4,Win32,60,,,1,0,340,134,1,339,ratio15_3_18_5.png,,,,,,,,,,,,
,,,,,,,,,,,,All,Many,Few,Less than half,Some,None,Half,More than half,Most,-0.436111111,0.269444444,1,0,0,QQQ7,,,,,,,,English,2020-06-16_15h35.32.133,Experiment_English,3.2.4,Win32,60,,,1,0,340,255,1,339,ratio34_6_14_10.png,,,,,,,,,,,,
,,,,,,,,,,,,All,Half,Some,Less than half,More than half,Few,Most,Many,None,-0.026851852,0.048148148,1,0,0,QQQ5,,,,,,,,English,2020-06-16_15h35.32.133,Experiment_English,3.2.4,Win32,60,,,1,0,340,210,1,339,ratio31_9_12_9.png,,,,,,,,,,,,
,,,,,,,,,,,,Half,Few,Less than half,None,Some,Many,Most,More than half,All,-0.026851852,0.048148148,1,0,0,QQQ5,,,,,,,,English,2020-06-16_15h35.32.133,Experiment_English,3.2.4,Win32,60,,,1,0,340,1,1,339,ratio12_1_3_7.png,,,,,,,,,,,,
,,,,,,,,,,,,None,Less than half,Some,Few,Most,Half,More than half,All,Many,-0.053703704,-0.30462963,1,0,0,QQQ6,,,,,,,,English,2020-06-16_15h35.32.133,Experiment_English,3.2.4,Win32,60,,,1,0,340,234,1,339,ratio32_9_15_10.png,,,,,,,,,,,,
,,,,,,,,,,,,All,Many,Half,Few,Most,None,More than half,Some,Less than half,-0.013888889,-0.066666667,1,0,0,QQQ5,,,,,,,,English,2020-06-16_15h35.32.133,Experiment_English,3.2.4,Win32,60,,,1,0,340,203,1,339,ratio31_3_4_9.png,,,,,,,,,,,,
,,,,,,,,,,,,Some,None,Most,All,Many,Less than half,More than half,Few,Half,-0.527777778,-0.300925926,1,0,0,QQQ9,,,,,,,,English,2020-06-16_15h35.32.133,Experiment_English,3.2.4,Win32,60,,,1,0,340,282,1,339,ratio43_4_7_7.png,,,,,,,,,,,,
,,,,,,,,,,,,More than half,Few,Some,Half,Many,All,Less than half,Most,None,0.464814815,-0.360185185,1,0,0,QQQ3,,,,,,,,English,2020-06-16_15h35.32.133,Experiment_English,3.2.4,Win32,60,,,1,0,340,299,1,339,ratio43_8_14_17.png,,,,,,,,,,,,
,,,,,,,,,,,,Less than half,Many,All,Some,Most,More than half,None,Few,Half,-0.386111111,-0.290740741,1,0,0,QQQ9,,,,,,,,English,2020-06-16_15h35.32.133,Experiment_English,3.2.4,Win32,60,,,1,0,340,232,1,339,ratio32_9_15_8.png,,,,,,,,,,,,
,,,,,,,,,,,,Many,All,Half,Few,None,Most,Some,Less than half,More than half,0.082407407,0.287037037,1,0,0,QQQ4,,,,,,,,English,2020-06-16_15h35.32.133,Experiment_English,3.2.4,Win32,60,,,1,0,340,143,1,339,ratio19_1_10_9.png,,,,,,,,,,,,
,,,,,,,,,,,,None,More than half,Many,Few,Some,Most,Half,Less than half,All,0.082407407,0.287037037,1,0,0,QQQ4,,,,,,,,English,2020-06-16_15h35.32.133,Experiment_English,3.2.4,Win32,60,,,1,0,340,276,1,339,ratio41_16_20_4.png,,,,,,,,,,,,
,,,,,,,,,,,,Less than half,None,Most,Half,Few,All,Many,Some,More than half,0.082407407,0.287037037,1,0,0,QQQ4,,,,,,,,English,2020-06-16_15h35.32.133,Experiment_English,3.2.4,Win32,60,,,1,0,340,115,1,339,ratio14_4_20_1.png,,,,,,,,,,,,
,,,,,,,,,,,,None,Most,Half,Some,Few,All,Less than half,Many,More than half,0.031481481,0.059259259,1,0,0,QQQ5,,,,,,,,English,2020-06-16_15h35.32.133,Experiment_English,3.2.4,Win32,60,,,1,0,340,5,1,339,ratio12_2_6_9.png,,,,,,,,,,,,
,,,,,,,,,,,,Half,All,Less than half,Many,Few,Most,Some,None,More than half,0.031481481,0.058333333,1,0,0,QQQ5,,,,,,,,English,2020-06-16_15h35.32.133,Experiment_English,3.2.4,Win32,60,,,1,0,340,188,1,339,ratio23_4_10_6.png,,,,,,,,,,,,
,,,,,,,,,,,,Many,More than half,All,Most,Some,None,Less than half,Half,Few,0.431481481,-0.011111111,1,0,0,QQQ2,,,,,,,,English,2020-06-16_15h35.32.133,Experiment_English,3.2.4,Win32,60,,,1,0,340,178,1,339,ratio21_12_18_2.png,,,,,,,,,,,,
,,,,,,,,,,,,Most,Many,Some,More than half,None,Less than half,Few,All,Half,0.40462963,-0.016666667,1,0,0,QQQ2,,,,,,,,English,2020-06-16_15h35.32.133,Experiment_English,3.2.4,Win32,60,,,1,0,340,213,1,339,ratio31_12_16_2.png,,,,,,,,,,,,
,,,,,,,,,,,,Many,None,Less than half,All,Few,Half,More than half,Some,Most,0.40462963,-0.016666667,1,0,0,QQQ2,,,,,,,,English,2020-06-16_15h35.32.133,Experiment_English,3.2.4,Win32,60,,,1,0,340,68,1,339,ratio0Y_0_11_3.png,,,,,,,,,,,,
,,,,,,,,,,,,None,Most,Some,More than half,Less than half,Few,Many,All,Half,0.156481481,-0.235185185,1,0,0,QQQ6,,,,,,,,English,2020-06-16_15h35.32.133,Experiment_English,3.2.4,Win32,60,,,1,0,340,126,1,339,ratio15_2_12_1.png,0.337037037,-0.362962963,1,0,0,continue_button_pause,1,0,1,0,1,0
,,,,,,,,,,,,,,,,,,,,,,,,,,,,,,,,,,English,2020-06-16_15h35.32.133,Experiment_English,3.2.4,Win32,60,,,1,0,340,126,1,339,ratio15_2_12_1.png,,,,,,,,,,,,
,,,,,,,,,,,,More than half,Many,All,Some,Less than half,Half,None,Few,Most,0.472222222,-0.05462963,1,0,0,QQQ2,,,,,,,,English,2020-06-16_15h35.32.133,Experiment_English,3.2.4,Win32,60,,,1,0,340,337,1,339,ratio91_18_20_16.png,,,,,,,,,,,,
,,,,,,,,,,,,Few,Some,None,Most,Many,More than half,All,Half,Less than half,0.480555556,0.264814815,1,0,0,QQQ1,,,,,,,,English,2020-06-16_15h35.32.133,Experiment_English,3.2.4,Win32,60,,,1,0,340,149,1,339,ratio19_1_10_20.png,,,,,,,,,,,,
,,,,,,,,,,,,Half,Many,All,More than half,Some,Few,Less than half,None,Most,0.505555556,0.002777778,1,0,0,QQQ2,,,,,,,,English,2020-06-16_15h35.32.133,Experiment_English,3.2.4,Win32,60,,,1,0,340,332,1,339,ratio91_18_20_4.png,,,,,,,,,,,,
,,,,,,,,,,,,Few,Some,Many,All,None,Half,Most,More than half,Less than half,0.44537037,-0.005555556,1,0,0,QQQ2,,,,,,,,English,2020-06-16_15h35.32.133,Experiment_English,3.2.4,Win32,60,,,1,0,340,162,1,339,ratio21_2_3_9.png,,,,,,,,,,,,
,,,,,,,,,,,,Some,None,Few,All,Most,Half,Many,Less than half,More than half,0.485185185,-0.282407407,1,0,0,QQQ3,,,,,,,,English,2020-06-16_15h35.32.133,Experiment_English,3.2.4,Win32,60,,,1,0,340,198,1,339,ratio23_8_20_7.png,,,,,,,,,,,,
,,,,,,,,,,,,Half,Less than half,Few,Many,Some,Most,None,All,More than half,0.482407407,-0.282407407,1,0,0,QQQ3,,,,,,,,English,2020-06-16_15h35.32.133,Experiment_English,3.2.4,Win32,60,,,1,0,340,168,1,339,ratio21_6_9_3.png,,,,,,,,,,,,
,,,,,,,,,,,,More than half,Less than half,All,Half,None,Many,Most,Some,Few,0.518518519,0.035185185,1,0,0,QQQ2,,,,,,,,English,2020-06-16_15h35.32.133,Experiment_English,3.2.4,Win32,60,,,1,0,340,111,1,339,ratio14_3_15_3.png,,,,,,,,,,,,
,,,,,,,,,,,,Most,More than half,Half,Many,None,Less than half,Few,Some,All,0.141666667,-0.221296296,1,0,0,QQQ6,,,,,,,,English,2020-06-16_15h35.32.133,Experiment_English,3.2.4,Win32,60,,,1,0,340,117,1,339,ratio14_4_20_6.png,,,,,,,,,,,,
,,,,,,,,,,,,None,Many,Some,Few,Half,Most,All,Less than half,More than half,0.493518519,-0.250925926,1,0,0,QQQ3,,,,,,,,English,2020-06-16_15h35.32.133,Experiment_English,3.2.4,Win32,60,,,1,0,340,125,1,339,ratio15_1_6_19.png,,,,,,,,,,,,
,,,,,,,,,,,,Few,Many,Most,All,More than half,Some,Less than half,Half,None,0.502777778,0.280555556,1,0,0,QQQ1,,,,,,,,English,2020-06-16_15h35.32.133,Experiment_English,3.2.4,Win32,60,,,1,0,340,141,1,339,ratio19_1_10_2.png,,,,,,,,,,,,
,,,,,,,,,,,,Less than half,Few,Most,Some,All,More than half,Many,None,Half,-0.45,0.274074074,1,0,0,QQQ7,,,,,,,,English,2020-06-16_15h35.32.133,Experiment_English,3.2.4,Win32,60,,,1,0,340,331,1,339,ratio91_18_20_3.png,,,,,,,,,,,,
,,,,,,,,,,,,Some,Half,Most,All,None,Less than half,More than half,Few,Many,-0.449074074,0.274074074,1,0,0,QQQ7,,,,,,,,English,2020-06-16_15h35.32.133,Experiment_English,3.2.4,Win32,60,,,1,0,340,329,1,339,ratio91_9_10_20.png,,,,,,,,,,,,
,,,,,,,,,,,,None,Few,All,Less than half,More than half,Some,Many,Most,Half,-0.449074074,0.274074074,1,0,0,QQQ7,,,,,,,,English,2020-06-16_15h35.32.133,Experiment_English,3.2.4,Win32,60,,,1,0,340,241,1,339,ratio34_3_7_5.png,,,,,,,,,,,,
,,,,,,,,,,,,Half,More than half,Few,Some,Many,Less than half,Most,None,All,0.563888889,-0.217592593,1,0,0,QQQ3,,,,,,,,English,2020-06-16_15h35.32.133,Experiment_English,3.2.4,Win32,60,,,1,0,340,146,1,339,ratio19_1_10_17.png,,,,,,,,,,,,
,,,,,,,,,,,,More than half,Many,Few,Some,Less than half,None,All,Most,Half,-0.493518519,-0.260185185,1,0,0,QQQ9,,,,,,,,English,2020-06-16_15h35.32.133,Experiment_English,3.2.4,Win32,60,,,1,0,340,285,1,339,ratio43_4_7_14.png,,,,,,,,,,,,
,,,,,,,,,,,,Many,All,Most,More than half,None,Some,Less than half,Few,Half,-0.023148148,0.022222222,1,0,0,QQQ5,,,,,,,,English,2020-06-16_15h35.32.133,Experiment_English,3.2.4,Win32,60,,,1,0,340,76,1,339,ratio0Y_0_17_10.png,,,,,,,,,,,,
,,,,,,,,,,,,Most,None,Half,Few,Many,Less than half,Some,More than half,All,0.423148148,-0.307407407,1,0,0,QQQ3,,,,,,,,English,2020-06-16_15h35.32.133,Experiment_English,3.2.4,Win32,60,,,1,0,340,34,1,339,ratio11_8_16_8.png,,,,,,,,,,,,
,,,,,,,,,,,,Few,Most,More than half,All,None,Some,Less than half,Many,Half,0.085185185,-0.272222222,1,0,0,QQQ6,,,,,,,,English,2020-06-16_15h35.32.133,Experiment_English,3.2.4,Win32,60,,,1,0,340,284,1,339,ratio43_4_7_11.png,,,,,,,,,,,,
,,,,,,,,,,,,Half,Few,More than half,Many,Most,Some,All,Less than half,None,0.085185185,-0.272222222,1,0,0,QQQ6,,,,,,,,English,2020-06-16_15h35.32.133,Experiment_English,3.2.4,Win32,60,,,1,0,340,181,1,339,ratio23_2_5_6.png,,,,,,,,,,,,
,,,,,,,,,,,,More than half,Half,Few,All,Some,Less than half,None,Many,Most,0.014814815,-0.321296296,1,0,0,QQQ6,,,,,,,,English,2020-06-16_15h35.32.133,Experiment_English,3.2.4,Win32,60,,,1,0,340,97,1,339,ratio13_5_20_2.png,,,,,,,,,,,,
,,,,,,,,,,,,Less than half,More than half,None,Most,Many,Few,All,Half,Some,0.014814815,-0.321296296,1,0,0,QQQ6,,,,,,,,English,2020-06-16_15h35.32.133,Experiment_English,3.2.4,Win32,60,,,1,0,340,154,1,339,ratio19_2_20_11.png,,,,,,,,,,,,
,,,,,,,,,,,,Half,Many,More than half,Less than half,None,Few,Some,All,Most,0.014814815,-0.321296296,1,0,0,QQQ6,,,,,,,,English,2020-06-16_15h35.32.133,Experiment_English,3.2.4,Win32,60,,,1,0,340,249,1,339,ratio34_3_7_20.png,,,,,,,,,,,,
,,,,,,,,,,,,All,Most,Many,Some,More than half,Few,Half,Less than half,None,0.014814815,-0.321296296,1,0,0,QQQ6,,,,,,,,English,2020-06-16_15h35.32.133,Experiment_English,3.2.4,Win32,60,,,1,0,340,103,1,339,ratio14_1_5_9.png,,,,,,,,,,,,
,,,,,,,,,,,,Half,All,Few,More than half,Many,Most,None,Less than half,Some,0.014814815,-0.321296296,1,0,0,QQQ6,,,,,,,,English,2020-06-16_15h35.32.133,Experiment_English,3.2.4,Win32,60,,,1,0,340,87,1,339,ratio13_2_8_8.png,,,,,,,,,,,,
,,,,,,,,,,,,Half,Few,Some,More than half,All,Less than half,None,Many,Most,-0.007407407,-0.071296296,1,0,0,QQQ5,,,,,,,,English,2020-06-16_15h35.32.133,Experiment_English,3.2.4,Win32,60,,,1,0,340,48,1,339,ratioX0_10_10_1.png,,,,,,,,,,,,
,,,,,,,,,,,,Less than half,More than half,Few,All,Many,Some,Half,None,Most,-0.007407407,-0.071296296,1,0,0,QQQ5,,,,,,,,English,2020-06-16_15h35.32.133,Experiment_English,3.2.4,Win32,60,,,1,0,340,166,1,339,ratio21_6_9_1.png,,,,,,,,,,,,
,,,,,,,,,,,,Less than half,More than half,Half,Some,Few,Many,None,Most,All,-0.007407407,-0.071296296,1,0,0,QQQ5,,,,,,,,English,2020-06-16_15h35.32.133,Experiment_English,3.2.4,Win32,60,,,1,0,340,256,1,339,ratio34_6_14_11.png,,,,,,,,,,,,
,,,,,,,,,,,,Many,All,Some,Less than half,None,Few,Most,Half,More than half,-0.024074074,-0.266666667,1,0,0,QQQ6,,,,,,,,English,2020-06-16_15h35.32.133,Experiment_English,3.2.4,Win32,60,,,1,0,340,86,1,339,ratio13_2_8_6.png,,,,,,,,,,,,
,,,,,,,,,,,,More than half,Few,All,None,Many,Half,Some,Most,Less than half,-0.025925926,-0.049074074,1,0,0,QQQ5,,,,,,,,English,2020-06-16_15h35.32.133,Experiment_English,3.2.4,Win32,60,,,1,0,340,204,1,339,ratio31_6_8_1.png,,,,,,,,,,,,
,,,,,,,,,,,,None,More than half,All,Few,Half,Some,Many,Most,Less than half,-0.025925926,-0.049074074,1,0,0,QQQ5,,,,,,,,English,2020-06-16_15h35.32.133,Experiment_English,3.2.4,Win32,60,,,1,0,340,187,1,339,ratio23_4_10_5.png,,,,,,,,,,,,
,,,,,,,,,,,,None,Many,Less than half,More than half,Some,Most,All,Half,Few,0.492592593,-0.296296296,1,0,0,QQQ3,,,,,,,,English,2020-06-16_15h35.32.133,Experiment_English,3.2.4,Win32,60,,,1,0,340,129,1,339,ratio15_2_12_9.png,,,,,,,,,,,,
,,,,,,,,,,,,Many,All,None,More than half,Most,Less than half,Some,Few,Half,0.016666667,-0.052777778,1,0,0,QQQ5,,,,,,,,English,2020-06-16_15h35.32.133,Experiment_English,3.2.4,Win32,60,,,1,0,340,160,1,339,ratio21_2_3_2.png,,,,,,,,,,,,
,,,,,,,,,,,,None,Many,Some,Most,Less than half,Few,More than half,Half,All,0.016666667,-0.052777778,1,0,0,QQQ5,,,,,,,,English,2020-06-16_15h35.32.133,Experiment_English,3.2.4,Win32,60,,,1,0,340,226,1,339,ratio32_6_10_5.png,,,,,,,,,,,,
,,,,,,,,,,,,Some,All,Many,More than half,Most,None,Less than half,Few,Half,-0.37037037,-0.362037037,1,0,0,QQQ9,,,,,,,,English,2020-06-16_15h35.32.133,Experiment_English,3.2.4,Win32,60,,,1,0,340,288,1,339,ratio43_4_7_18.png,0.330555556,-0.422222222,1,0,0,continue_button_pause,1,0,1,0,1,0
,,,,,,,,,,,,,,,,,,,,,,,,,,,,,,,,,,English,2020-06-16_15h35.32.133,Experiment_English,3.2.4,Win32,60,,,1,0,340,288,1,339,ratio43_4_7_18.png,,,,,,,,,,,,
,,,,,,,,,,,,Few,None,Some,More than half,Half,All,Less than half,Many,Most,0.050925926,-0.060185185,1,0,0,QQQ5,,,,,,,,English,2020-06-16_15h35.32.133,Experiment_English,3.2.4,Win32,60,,,1,0,340,277,1,339,ratio41_16_20_8.png,,,,,,,,,,,,
,,,,,,,,,,,,Some,Less than half,None,More than half,Many,Most,All,Few,Half,0.048148148,-0.076851852,1,0,0,QQQ5,,,,,,,,English,2020-06-16_15h35.32.133,Experiment_English,3.2.4,Win32,60,,,1,0,340,268,1,339,ratio41_8_10_5.png,,,,,,,,,,,,
,,,,,,,,,,,,Some,Most,None,More than half,Less than half,Few,Half,All,Many,-0.357407407,-0.021296296,1,0,0,QQQ8,,,,,,,,English,2020-06-16_15h35.32.133,Experiment_English,3.2.4,Win32,60,,,1,0,340,56,1,339,ratioX0_17_17_10.png,,,,,,,,,,,,
,,,,,,,,,,,,More than half,Most,Less than half,Some,None,All,Half,Few,Many,0.655555556,-0.032407407,1,0,0,QQQ2,,,,,,,,English,2020-06-16_15h35.32.133,Experiment_English,3.2.4,Win32,60,,,1,0,340,222,1,339,ratio32_3_5_4.png,,,,,,,,,,,,
,,,,,,,,,,,,None,Most,Few,Many,More than half,Less than half,All,Half,Some,0.115740741,-0.069444444,1,0,0,QQQ5,,,,,,,,English,2020-06-16_15h35.32.133,Experiment_English,3.2.4,Win32,60,,,1,0,340,293,1,339,ratio43_8_14_7.png,,,,,,,,,,,,
,,,,,,,,,,,,Few,Some,All,Many,Half,Less than half,None,Most,More than half,-0.37962963,-0.318518519,1,0,0,QQQ9,,,,,,,,English,2020-06-16_15h35.32.133,Experiment_English,3.2.4,Win32,60,,,1,0,340,311,1,339,ratio51_10_12_14.png,,,,,,,,,,,,
,,,,,,,,,,,,Half,None,More than half,All,Few,Some,Less than half,Most,Many,0.481481481,0.263888889,1,0,0,QQQ1,,,,,,,,English,2020-06-16_15h35.32.133,Experiment_English,3.2.4,Win32,60,,,1,0,340,245,1,339,ratio34_3_7_10.png,,,,,,,,,,,,
,,,,,,,,,,,,Most,Many,Half,None,Less than half,More than half,Few,Some,All,0.449074074,0.019444444,1,0,0,QQQ2,,,,,,,,English,2020-06-16_15h35.32.133,Experiment_English,3.2.4,Win32,60,,,1,0,340,254,1,339,ratio34_6_14_9.png,,,,,,,,,,,,
,,,,,,,,,,,,None,More than half,Many,All,Most,Less than half,Half,Some,Few,0.111111111,-0.001851852,1,0,0,QQQ5,,,,,,,,English,2020-06-16_15h35.32.133,Experiment_English,3.2.4,Win32,60,,,1,0,340,227,1,339,ratio32_6_10_6.png,,,,,,,,,,,,
,,,,,,,,,,,,Half,Many,Most,Some,All,More than half,Few,Less than half,None,0.578703704,0.300925926,1,0,0,QQQ1,,,,,,,,English,2020-06-16_15h35.32.133,Experiment_English,3.2.4,Win32,60,,,1,0,340,33,1,339,ratio11_7_14_8.png,,,,,,,,,,,,
,,,,,,,,,,,,Many,Less than half,More than half,Some,Most,None,Half,All,Few,0.569444444,0.267592593,1,0,0,QQQ1,,,,,,,,English,2020-06-16_15h35.32.133,Experiment_English,3.2.4,Win32,60,,,1,0,340,176,1,339,ratio21_10_15_3.png,,,,,,,,,,,,
,,,,,,,,,,,,Half,Most,Some,None,More than half,Many,Less than half,Few,All,0.387037037,-0.00462963,1,0,0,QQQ2,,,,,,,,English,2020-06-16_15h35.32.133,Experiment_English,3.2.4,Win32,60,,,1,0,340,206,1,339,ratio31_6_8_6.png,,,,,,,,,,,,
,,,,,,,,,,,,More than half,Some,Less than half,Few,Many,Most,Half,None,All,-0.480555556,-0.087962963,1,0,0,QQQ8,,,,,,,,English,2020-06-16_15h35.32.133,Experiment_English,3.2.4,Win32,60,,,1,0,340,73,1,339,ratio0Y_0_14_7.png,,,,,,,,,,,,
,,,,,,,,,,,,Few,Many,All,Less than half,None,Half,Most,More than half,Some,-0.476851852,-0.088888889,1,0,0,QQQ8,,,,,,,,English,2020-06-16_15h35.32.133,Experiment_English,3.2.4,Win32,60,,,1,0,340,189,1,339,ratio23_4_10_8.png,,,,,,,,,,,,
,,,,,,,,,,,,Less than half,None,More than half,Most,Many,Half,Some,All,Few,-0.394444444,-0.311111111,1,0,0,QQQ9,,,,,,,,English,2020-06-16_15h35.32.133,Experiment_English,3.2.4,Win32,60,,,1,0,340,184,1,339,ratio23_2_5_10.png,,,,,,,,,,,,
,,,,,,,,,,,,Few,Half,Less than half,More than half,Most,None,Many,Some,All,0.428703704,-0.252777778,1,0,0,QQQ3,,,,,,,,English,2020-06-16_15h35.32.133,Experiment_English,3.2.4,Win32,60,,,1,0,340,127,1,339,ratio15_2_12_2.png,,,,,,,,,,,,
,,,,,,,,,,,,All,Some,Many,Most,Few,Less than half,Half,More than half,None,-0.425,-0.053703704,1,0,0,QQQ8,,,,,,,,English,2020-06-16_15h35.32.133,Experiment_English,3.2.4,Win32,60,,,1,0,340,305,1,339,ratio51_5_6_14.png,,,,,,,,,,,,
,,,,,,,,,,,,None,Some,Few,More than half,Most,Half,Less than half,All,Many,-0.032407407,-0.015740741,1,0,0,QQQ5,,,,,,,,English,2020-06-16_15h35.32.133,Experiment_English,3.2.4,Win32,60,,,1,0,340,273,1,339,ratio41_12_15_8.png,,,,,,,,,,,,
,,,,,,,,,,,,More than half,Half,None,Some,Many,Less than half,Few,Most,All,-0.573148148,0.259259259,1,0,0,QQQ7,,,,,,,,English,2020-06-16_15h35.32.133,Experiment_English,3.2.4,Win32,60,,,1,0,340,153,1,339,ratio19_2_20_8.png,,,,,,,,,,,,
,,,,,,,,,,,,All,More than half,None,Few,Most,Less than half,Half,Many,Some,-0.156481481,0.237962963,1,0,0,QQQ4,,,,,,,,English,2020-06-16_15h35.32.133,Experiment_English,3.2.4,Win32,60,,,1,0,340,6,1,339,ratio12_3_9_1.png,,,,,,,,,,,,
,,,,,,,,,,,,All,Few,Many,Half,More than half,None,Less than half,Some,Most,-0.008333333,-0.002777778,1,0,0,QQQ5,,,,,,,,English,2020-06-16_15h35.32.133,Experiment_English,3.2.4,Win32,60,,,1,0,340,309,1,339,ratio51_10_12_10.png,,,,,,,,,,,,
,,,,,,,,,,,,All,Some,Most,Many,Half,None,Less than half,Few,More than half,-0.57037037,-0.002777778,1,0,0,QQQ8,,,,,,,,English,2020-06-16_15h35.32.133,Experiment_English,3.2.4,Win32,60,,,1,0,340,81,1,339,ratio13_1_4_5.png,,,,,,,,,,,,
,,,,,,,,,,,,Less than half,Some,Most,None,Many,Few,Half,All,More than half,0.600925926,0.241666667,1,0,0,QQQ1,,,,,,,,English,2020-06-16_15h35.32.133,Experiment_English,3.2.4,Win32,60,,,1,0,340,257,1,339,ratio34_6_14_12.png,,,,,,,,,,,,
,,,,,,,,,,,,Half,All,Many,Most,Few,Less than half,None,More than half,Some,-0.042592593,-0.064814815,1,0,0,QQQ5,,,,,,,,English,2020-06-16_15h35.32.133,Experiment_English,3.2.4,Win32,60,,,1,0,340,96,1,339,ratio13_5_20_1.png,,,,,,,,,,,,
,,,,,,,,,,,,Less than half,Some,All,None,Few,Half,More than half,Many,Most,0.637962963,-0.360185185,1,0,0,QQQ3,,,,,,,,English,2020-06-16_15h35.32.133,Experiment_English,3.2.4,Win32,60,,,1,0,340,54,1,339,ratioX0_15_15_5.png,,,,,,,,,,,,
,,,,,,,,,,,,Many,More than half,Most,Some,Half,Few,None,All,Less than half,0.637962963,-0.360185185,1,0,0,QQQ3,,,,,,,,English,2020-06-16_15h35.32.133,Experiment_English,3.2.4,Win32,60,,,1,0,340,216,1,339,ratio31_15_20_3.png,,,,,,,,,,,,
,,,,,,,,,,,,Less than half,Few,More than half,None,Some,Half,Many,Most,All,0.057407407,-0.043518519,1,0,0,QQQ5,,,,,,,,English,2020-06-16_15h35.32.133,Experiment_English,3.2.4,Win32,60,,,1,0,340,84,1,339,ratio13_2_8_1.png,,,,,,,,,,,,
,,,,,,,,,,,,All,Many,More than half,Some,Less than half,None,Half,Most,Few,0.057407407,-0.043518519,1,0,0,QQQ5,,,,,,,,English,2020-06-16_15h35.32.133,Experiment_English,3.2.4,Win32,60,,,1,0,340,246,1,339,ratio34_3_7_11.png,,,,,,,,,,,,
,,,,,,,,,,,,More than half,Few,Less than half,Many,Most,Half,None,All,Some,0.057407407,-0.043518519,1,0,0,QQQ5,,,,,,,,English,2020-06-16_15h35.32.133,Experiment_English,3.2.4,Win32,60,,,1,0,340,12,1,339,ratio12_4_12_10.png,,,,,,,,,,,,
,,,,,,,,,,,,None,More than half,All,Some,Many,Most,Half,Few,Less than half,-0.512962963,-0.288888889,1,0,0,QQQ9,,,,,,,,English,2020-06-16_15h35.32.133,Experiment_English,3.2.4,Win32,60,,,1,0,340,133,1,339,ratio15_3_18_3.png,,,,,,,,,,,,
,,,,,,,,,,,,Some,Half,More than half,None,Less than half,All,Few,Most,Many,0.461111111,-0.010185185,1,0,0,QQQ2,,,,,,,,English,2020-06-16_15h35.32.133,Experiment_English,3.2.4,Win32,60,,,1,0,340,237,1,339,ratio32_12_20_5.png,,,,,,,,,,,,
,,,,,,,,,,,,Few,More than half,Many,Half,None,Less than half,All,Some,Most,0.401851852,0.24537037,1,0,0,QQQ1,,,,,,,,English,2020-06-16_15h35.32.133,Experiment_English,3.2.4,Win32,60,,,1,0,340,281,1,339,ratio43_4_7_4.png,,,,,,,,,,,,
,,,,,,,,,,,,Many,Most,Half,None,Less than half,Few,All,Some,More than half,-0.121296296,-0.308333333,1,0,0,QQQ6,,,,,,,,English,2020-06-16_15h35.32.133,Experiment_English,3.2.4,Win32,60,,,1,0,340,4,1,339,ratio12_2_6_5.png,,,,,,,,,,,,
,,,,,,,,,,,,Half,More than half,None,Some,All,Few,Many,Less than half,Most,-0.12037037,-0.308333333,1,0,0,QQQ6,,,,,,,,English,2020-06-16_15h35.32.133,Experiment_English,3.2.4,Win32,60,,,1,0,340,151,1,339,ratio19_2_20_4.png,0.435185185,-0.42037037,1,0,0,continue_button_pause,1,0,1,0,1,0
,,,,,,,,,,,,,,,,,,,,,,,,,,,,,,,,,,English,2020-06-16_15h35.32.133,Experiment_English,3.2.4,Win32,60,,,1,0,340,151,1,339,ratio19_2_20_4.png,,,,,,,,,,,,
,,,,,,,,,,,,Half,All,Many,Some,Few,More than half,Less than half,Most,None,0.043518519,-0.036111111,1,0,0,QQQ5,,,,,,,,English,2020-06-16_15h35.32.133,Experiment_English,3.2.4,Win32,60,,,1,0,340,105,1,339,ratio14_2_10_1.png,,,,,,,,,,,,
,,,,,,,,,,,,Half,Few,All,Some,None,Most,More than half,Less than half,Many,-0.530555556,0.031481481,1,0,0,QQQ8,,,,,,,,English,2020-06-16_15h35.32.133,Experiment_English,3.2.4,Win32,60,,,1,0,340,199,1,339,ratio23_8_20_8.png,,,,,,,,,,,,
,,,,,,,,,,,,Some,None,Less than half,All,More than half,Few,Half,Many,Most,0.114814815,-0.043518519,1,0,0,QQQ5,,,,,,,,English,2020-06-16_15h35.32.133,Experiment_English,3.2.4,Win32,60,,,1,0,340,239,1,339,ratio32_12_20_10.png,,,,,,,,,,,,
,,,,,,,,,,,,Most,All,Less than half,More than half,None,Some,Few,Half,Many,0.028703704,0.249074074,1,0,0,QQQ4,,,,,,,,English,2020-06-16_15h35.32.133,Experiment_English,3.2.4,Win32,60,,,1,0,340,302,1,339,ratio51_5_6_5.png,,,,,,,,,,,,
,,,,,,,,,,,,None,Some,All,Less than half,Most,Many,More than half,Few,Half,-0.05,0.257407407,1,0,0,QQQ4,,,,,,,,English,2020-06-16_15h35.32.133,Experiment_English,3.2.4,Win32,60,,,1,0,340,9,1,339,ratio12_3_9_5.png,,,,,,,,,,,,
,,,,,,,,,,,,Most,None,Less than half,All,Some,More than half,Half,Many,Few,-0.051851852,0.251851852,1,0,0,QQQ4,,,,,,,,English,2020-06-16_15h35.32.133,Experiment_English,3.2.4,Win32,60,,,1,0,340,44,1,339,ratioX0_7_7_5.png,,,,,,,,,,,,
,,,,,,,,,,,,More than half,Less than half,Half,Many,Most,Some,All,Few,None,-0.051851852,0.251851852,1,0,0,QQQ4,,,,,,,,English,2020-06-16_15h35.32.133,Experiment_English,3.2.4,Win32,60,,,1,0,340,271,1,339,ratio41_12_15_6.png,,,,,,,,,,,,
,,,,,,,,,,,,Half,All,Less than half,More than half,Few,Most,Some,Many,None,-0.006481481,-0.067592593,1,0,0,QQQ5,,,,,,,,English,2020-06-16_15h35.32.133,Experiment_English,3.2.4,Win32,60,,,1,0,340,155,1,339,ratio19_2_20_13.png,,,,,,,,,,,,
,,,,,,,,,,,,None,Half,More than half,Few,Less than half,All,Most,Many,Some,-0.006481481,-0.067592593,1,0,0,QQQ5,,,,,,,,English,2020-06-16_15h35.32.133,Experiment_English,3.2.4,Win32,60,,,1,0,340,30,1,339,ratio11_6_12_6.png,,,,,,,,,,,,
,,,,,,,,,,,,All,More than half,None,Half,Most,Less than half,Few,Many,Some,-0.006481481,-0.067592593,1,0,0,QQQ5,,,,,,,,English,2020-06-16_15h35.32.133,Experiment_English,3.2.4,Win32,60,,,1,0,340,194,1,339,ratio23_6_15_10.png,,,,,,,,,,,,
,,,,,,,,,,,,Less than half,Half,Many,Most,All,None,Some,More than half,Few,-0.444444444,-0.298148148,1,0,0,QQQ9,,,,,,,,English,2020-06-16_15h35.32.133,Experiment_English,3.2.4,Win32,60,,,1,0,340,118,1,339,ratio14_4_20_8.png,,,,,,,,,,,,
,,,,,,,,,,,,Many,Most,More than half,Few,Less than half,Half,All,Some,None,-0.502777778,0.241666667,1,0,0,QQQ7,,,,,,,,English,2020-06-16_15h35.32.133,Experiment_English,3.2.4,Win32,60,,,1,0,340,59,1,339,ratioX0_20_20_9.png,,,,,,,,,,,,
,,,,,,,,,,,,Many,More than half,Some,None,All,Most,Few,Less than half,Half,-0.502777778,0.07962963,1,0,0,QQQ8,,,,,,,,English,2020-06-16_15h35.32.133,Experiment_English,3.2.4,Win32,60,,,1,0,340,197,1,339,ratio23_8_20_6.png,,,,,,,,,,,,
,,,,,,,,,,,,Some,Few,All,Many,Less than half,More than half,Most,None,Half,-0.021296296,0.264814815,1,0,0,QQQ4,,,,,,,,English,2020-06-16_15h35.32.133,Experiment_English,3.2.4,Win32,60,,,1,0,340,298,1,339,ratio43_8_14_14.png,,,,,,,,,,,,
,,,,,,,,,,,,Half,Few,Some,All,Less than half,Most,None,More than half,Many,0.512037037,0.275925926,1,0,0,QQQ1,,,,,,,,English,2020-06-16_15h35.32.133,Experiment_English,3.2.4,Win32,60,,,1,0,340,22,1,339,ratio11_3_6_6.png,,,,,,,,,,,,
,,,,,,,,,,,,All,More than half,Some,Less than half,Most,Few,None,Half,Many,-0.355555556,0.262037037,1,0,0,QQQ7,,,,,,,,English,2020-06-16_15h35.32.133,Experiment_English,3.2.4,Win32,60,,,1,0,340,60,1,339,ratio0Y_0_3_5.png,,,,,,,,,,,,
,,,,,,,,,,,,Half,Few,Less than half,Most,More than half,All,Some,Many,None,-0.487962963,-0.241666667,1,0,0,QQQ9,,,,,,,,English,2020-06-16_15h35.32.133,Experiment_English,3.2.4,Win32,60,,,1,0,340,66,1,339,ratio0Y_0_9_8.png,,,,,,,,,,,,
,,,,,,,,,,,,Few,All,Some,Most,More than half,Many,None,Half,Less than half,-0.364814815,-0.330555556,1,0,0,QQQ9,,,,,,,,English,2020-06-16_15h35.32.133,Experiment_English,3.2.4,Win32,60,,,1,0,340,113,1,339,ratio14_3_15_8.png,,,,,,,,,,,,
,,,,,,,,,,,,Half,Some,Most,Less than half,None,Few,All,Many,More than half,0.603703704,0.240740741,1,0,0,QQQ1,,,,,,,,English,2020-06-16_15h35.32.133,Experiment_English,3.2.4,Win32,60,,,1,0,340,287,1,339,ratio43_4_7_17.png,,,,,,,,,,,,
,,,,,,,,,,,,Most,Some,More than half,Few,All,None,Many,Less than half,Half,0.038888889,0.267592593,1,0,0,QQQ4,,,,,,,,English,2020-06-16_15h35.32.133,Experiment_English,3.2.4,Win32,60,,,1,0,340,82,1,339,ratio13_1_4_7.png,,,,,,,,,,,,
,,,,,,,,,,,,Some,Few,Less than half,More than half,None,Half,All,Many,Most,0.64537037,-0.010185185,1,0,0,QQQ2,,,,,,,,English,2020-06-16_15h35.32.133,Experiment_English,3.2.4,Win32,60,,,1,0,340,157,1,339,ratio19_2_20_16.png,,,,,,,,,,,,
,,,,,,,,,,,,Most,More than half,Less than half,None,Half,All,Few,Many,Some,-0.425,0.292592593,1,0,0,QQQ7,,,,,,,,English,2020-06-16_15h35.32.133,Experiment_English,3.2.4,Win32,60,,,1,0,340,140,1,339,ratio19_1_10_1.png,,,,,,,,,,,,
,,,,,,,,,,,,Many,Less than half,Half,None,All,Few,Some,Most,More than half,0.080555556,-0.242592593,1,0,0,QQQ6,,,,,,,,English,2020-06-16_15h35.32.133,Experiment_English,3.2.4,Win32,60,,,1,0,340,2,1,339,ratio12_1_3_10.png,,,,,,,,,,,,
,,,,,,,,,,,,All,Most,Less than half,Few,Half,Some,More than half,Many,None,0.032407407,0.266666667,1,0,0,QQQ4,,,,,,,,English,2020-06-16_15h35.32.133,Experiment_English,3.2.4,Win32,60,,,1,0,340,121,1,339,ratio15_1_6_4.png,,,,,,,,,,,,
,,,,,,,,,,,,Less than half,More than half,None,All,Few,Most,Many,Some,Half,0.031481481,0.266666667,1,0,0,QQQ4,,,,,,,,English,2020-06-16_15h35.32.133,Experiment_English,3.2.4,Win32,60,,,1,0,340,110,1,339,ratio14_3_15_2.png,,,,,,,,,,,,
,,,,,,,,,,,,All,Less than half,Many,More than half,Some,Few,Half,None,Most,0.031481481,0.266666667,1,0,0,QQQ4,,,,,,,,English,2020-06-16_15h35.32.133,Experiment_English,3.2.4,Win32,60,,,1,0,340,315,1,339,ratio51_15_18_10.png,,,,,,,,,,,,
,,,,,,,,,,,,Some,None,Half,Most,More than half,Many,Less than half,Few,All,-0.387962963,-0.028703704,1,0,0,QQQ8,,,,,,,,English,2020-06-16_15h35.32.133,Experiment_English,3.2.4,Win32,60,,,1,0,340,101,1,339,ratio14_1_5_7.png,,,,,,,,,,,,
,,,,,,,,,,,,Many,None,Some,More than half,Less than half,Few,All,Most,Half,-0.035185185,-0.058333333,1,0,0,QQQ5,,,,,,,,English,2020-06-16_15h35.32.133,Experiment_English,3.2.4,Win32,60,,,1,0,340,280,1,339,ratio43_4_7_2.png,,,,,,,,,,,,
,,,,,,,,,,,,Half,Less than half,Some,Few,More than half,Most,None,Many,All,-0.035185185,-0.058333333,1,0,0,QQQ5,,,,,,,,English,2020-06-16_15h35.32.133,Experiment_English,3.2.4,Win32,60,,,1,0,340,88,1,339,ratio13_3_12_5.png,,,,,,,,,,,,
,,,,,,,,,,,,Half,Few,Most,Less than half,Many,Some,All,More than half,None,0.577777778,-0.043518519,1,0,0,QQQ2,,,,,,,,English,2020-06-16_15h35.32.133,Experiment_English,3.2.4,Win32,60,,,1,0,340,122,1,339,ratio15_1_6_7.png,,,,,,,,,,,,
,,,,,,,,,,,,Half,Many,Few,None,Some,Most,More than half,Less than half,All,-0.47962963,0.290740741,1,0,0,QQQ7,,,,,,,,English,2020-06-16_15h35.32.133,Experiment_English,3.2.4,Win32,60,,,1,0,340,297,1,339,ratio43_8_14_13.png,,,,,,,,,,,,
,,,,,,,,,,,,Less than half,All,Some,None,Many,More than half,Most,Half,Few,-0.47962963,0.290740741,1,0,0,QQQ7,,,,,,,,English,2020-06-16_15h35.32.133,Experiment_English,3.2.4,Win32,60,,,1,0,340,26,1,339,ratio11_5_10_4.png,,,,,,,,,,,,
,,,,,,,,,,,,All,More than half,Few,Many,Half,None,Some,Less than half,Most,-0.469444444,-0.223148148,1,0,0,QQQ9,,,,,,,,English,2020-06-16_15h35.32.133,Experiment_English,3.2.4,Win32,60,,,1,0,340,177,1,339,ratio21_12_18_1.png,,,,,,,,,,,,
,,,,,,,,,,,,Less than half,Many,Half,All,None,Most,More than half,Some,Few,-0.42037037,0.227777778,1,0,0,QQQ7,,,,,,,,English,2020-06-16_15h35.32.133,Experiment_English,3.2.4,Win32,60,,,1,0,340,173,1,339,ratio21_8_12_9.png,0.361111111,-0.407407407,1,0,0,continue_button_pause,1,0,1,0,1,0
,,,,,,,,,,,,,,,,,,,,,,,,,,,,,,,,,,English,2020-06-16_15h35.32.133,Experiment_English,3.2.4,Win32,60,,,1,0,340,173,1,339,ratio21_8_12_9.png,,,,,,,,,,,,
,,,,,,,,,,,,More than half,Most,Few,Some,All,Less than half,None,Many,Half,0.437962963,-0.049074074,1,0,0,QQQ2,,,,,,,,English,2020-06-16_15h35.32.133,Experiment_English,3.2.4,Win32,60,,,1,0,340,265,1,339,ratio41_8_10_1.png,,,,,,,,,,,,
,,,,,,,,,,,,Many,None,All,Half,Most,Some,Few,More than half,Less than half,-0.055555556,0.260185185,1,0,0,QQQ4,,,,,,,,English,2020-06-16_15h35.32.133,Experiment_English,3.2.4,Win32,60,,,1,0,340,195,1,339,ratio23_8_20_1.png,,,,,,,,,,,,
,,,,,,,,,,,,More than half,Most,Few,Half,Less than half,None,Some,Many,All,-0.030555556,0.036111111,1,0,0,QQQ5,,,,,,,,English,2020-06-16_15h35.32.133,Experiment_English,3.2.4,Win32,60,,,1,0,340,14,1,339,ratio12_5_15_4.png,,,,,,,,,,,,
,,,,,,,,,,,,Many,Most,None,Less than half,More than half,Half,Some,All,Few,-0.034259259,0.268518519,1,0,0,QQQ4,,,,,,,,English,2020-06-16_15h35.32.133,Experiment_English,3.2.4,Win32,60,,,1,0,340,16,1,339,ratio12_5_15_6.png,,,,,,,,,,,,
,,,,,,,,,,,,Most,Half,All,Many,Some,Few,None,Less than half,More than half,-0.489814815,0.311111111,1,0,0,QQQ7,,,,,,,,English,2020-06-16_15h35.32.133,Experiment_English,3.2.4,Win32,60,,,1,0,340,69,1,339,ratio0Y_0_11_6.png,,,,,,,,,,,,
,,,,,,,,,,,,All,More than half,Many,Few,None,Most,Some,Less than half,Half,-0.083333333,0.316666667,1,0,0,QQQ4,,,,,,,,English,2020-06-16_15h35.32.133,Experiment_English,3.2.4,Win32,60,,,1,0,340,242,1,339,ratio34_3_7_6.png,,,,,,,,,,,,
,,,,,,,,,,,,Half,More than half,None,Less than half,Few,Most,Many,All,Some,-0.083333333,0.316666667,1,0,0,QQQ4,,,,,,,,English,2020-06-16_15h35.32.133,Experiment_English,3.2.4,Win32,60,,,1,0,340,236,1,339,ratio32_12_20_2.png,,,,,,,,,,,,
,,,,,,,,,,,,Half,Many,None,More than half,All,Few,Most,Less than half,Some,-0.053703704,0.269444444,1,0,0,QQQ4,,,,,,,,English,2020-06-16_15h35.32.133,Experiment_English,3.2.4,Win32,60,,,1,0,340,231,1,339,ratio32_9_15_2.png,,,,,,,,,,,,
,,,,,,,,,,,,Less than half,Many,Half,Most,More than half,Few,None,Some,All,-0.027777778,0.040740741,1,0,0,QQQ5,,,,,,,,English,2020-06-16_15h35.32.133,Experiment_English,3.2.4,Win32,60,,,1,0,340,186,1,339,ratio23_4_10_2.png,,,,,,,,,,,,
,,,,,,,,,,,,Most,Some,None,More than half,All,Less than half,Many,Few,Half,-0.027777778,0.040740741,1,0,0,QQQ5,,,,,,,,English,2020-06-16_15h35.32.133,Experiment_English,3.2.4,Win32,60,,,1,0,340,262,1,339,ratio41_4_5_4.png,,,,,,,,,,,,
,,,,,,,,,,,,More than half,None,Some,Many,Few,Most,All,Half,Less than half,0.565740741,0.246296296,1,0,0,QQQ1,,,,,,,,English,2020-06-16_15h35.32.133,Experiment_English,3.2.4,Win32,60,,,1,0,340,324,1,339,ratio91_9_10_7.png,,,,,,,,,,,,
,,,,,,,,,,,,All,Some,More than half,Many,None,Less than half,Most,Half,Few,0.002777778,-0.264814815,1,0,0,QQQ6,,,,,,,,English,2020-06-16_15h35.32.133,Experiment_English,3.2.4,Win32,60,,,1,0,340,112,1,339,ratio14_3_15_4.png,,,,,,,,,,,,
,,,,,,,,,,,,Half,More than half,Some,Less than half,All,None,Most,Many,Few,0.053703704,0.226851852,1,0,0,QQQ4,,,,,,,,English,2020-06-16_15h35.32.133,Experiment_English,3.2.4,Win32,60,,,1,0,340,128,1,339,ratio15_2_12_8.png,,,,,,,,,,,,
,,,,,,,,,,,,None,Few,Half,More than half,Some,Less than half,All,Many,Most,0.002777778,-0.02037037,1,0,0,QQQ5,,,,,,,,English,2020-06-16_15h35.32.133,Experiment_English,3.2.4,Win32,60,,,1,0,340,334,1,339,ratio91_18_20_9.png,,,,,,,,,,,,
,,,,,,,,,,,,Some,Most,Less than half,More than half,All,Few,None,Many,Half,-0.399074074,0.312037037,1,0,0,QQQ7,,,,,,,,English,2020-06-16_15h35.32.133,Experiment_English,3.2.4,Win32,60,,,1,0,340,171,1,339,ratio21_8_12_4.png,,,,,,,,,,,,
,,,,,,,,,,,,Half,None,All,Most,Many,Less than half,Some,More than half,Few,0.555555556,-0.222222222,1,0,0,QQQ3,,,,,,,,English,2020-06-16_15h35.32.133,Experiment_English,3.2.4,Win32,60,,,1,0,340,42,1,339,ratioX0_5_5_5.png,,,,,,,,,,,,
,,,,,,,,,,,,Most,Less than half,Few,Some,All,None,Many,Half,More than half,0.101851852,-0.222222222,1,0,0,QQQ6,,,,,,,,English,2020-06-16_15h35.32.133,Experiment_English,3.2.4,Win32,60,,,1,0,340,65,1,339,ratio0Y_0_8_4.png,,,,,,,,,,,,
,,,,,,,,,,,,None,Most,Half,More than half,Less than half,Many,Few,Some,All,0.041666667,0.203703704,1,0,0,QQQ4,,,,,,,,English,2020-06-16_15h35.32.133,Experiment_English,3.2.4,Win32,60,,,1,0,340,303,1,339,ratio51_5_6_6.png,,,,,,,,,,,,
,,,,,,,,,,,,More than half,Half,Few,Less than half,Most,Some,None,All,Many,0.041666667,0.203703704,1,0,0,QQQ4,,,,,,,,English,2020-06-16_15h35.32.133,Experiment_English,3.2.4,Win32,60,,,1,0,340,107,1,339,ratio14_2_10_5.png,,,,,,,,,,,,
,,,,,,,,,,,,Less than half,None,Few,Some,Half,Many,All,Most,More than half,-0.475925926,-0.303703704,1,0,0,QQQ9,,,,,,,,English,2020-06-16_15h35.32.133,Experiment_English,3.2.4,Win32,60,,,1,0,340,278,1,339,ratio41_16_20_9.png,,,,,,,,,,,,
,,,,,,,,,,,,Many,None,Some,Less than half,Most,Half,More than half,Few,All,0.033333333,-0.04537037,1,0,0,QQQ5,,,,,,,,English,2020-06-16_15h35.32.133,Experiment_English,3.2.4,Win32,60,,,1,0,340,218,1,339,ratio31_15_20_7.png,,,,,,,,,,,,
,,,,,,,,,,,,Less than half,Half,More than half,All,Most,Many,Some,Few,None,0.033333333,-0.04537037,1,0,0,QQQ5,,,,,,,,English,2020-06-16_15h35.32.133,Experiment_English,3.2.4,Win32,60,,,1,0,340,321,1,339,ratio91_9_10_2.png,,,,,,,,,,,,
,,,,,,,,,,,,Most,Half,Some,None,All,Less than half,Many,Few,More than half,0.047222222,-0.336111111,1,0,0,QQQ6,,,,,,,,English,2020-06-16_15h35.32.133,Experiment_English,3.2.4,Win32,60,,,1,0,340,244,1,339,ratio34_3_7_9.png,,,,,,,,,,,,
,,,,,,,,,,,,More than half,Less than half,All,Half,Few,None,Some,Most,Many,0.071296296,-0.013888889,1,0,0,QQQ5,,,,,,,,English,2020-06-16_15h35.32.133,Experiment_English,3.2.4,Win32,60,,,1,0,340,147,1,339,ratio19_1_10_18.png,,,,,,,,,,,,
,,,,,,,,,,,,Less than half,Most,Half,More than half,Many,None,Some,All,Few,0.071296296,-0.013888889,1,0,0,QQQ5,,,,,,,,English,2020-06-16_15h35.32.133,Experiment_English,3.2.4,Win32,60,,,1,0,340,205,1,339,ratio31_6_8_2.png,,,,,,,,,,,,
,,,,,,,,,,,,Less than half,Some,More than half,Half,Most,Many,Few,All,None,0.071296296,-0.013888889,1,0,0,QQQ5,,,,,,,,English,2020-06-16_15h35.32.133,Experiment_English,3.2.4,Win32,60,,,1,0,340,252,1,339,ratio34_6_14_3.png,,,,,,,,,,,,
,,,,,,,,,,,,Many,Most,Some,All,Less than half,More than half,Few,None,Half,0.630555556,-0.062962963,1,0,0,QQQ2,,,,,,,,English,2020-06-16_15h35.32.133,Experiment_English,3.2.4,Win32,60,,,1,0,340,304,1,339,ratio51_5_6_13.png,,,,,,,,,,,,
,,,,,,,,,,,,Most,Less than half,Many,Few,Half,None,Some,All,More than half,0.630555556,-0.062962963,1,0,0,QQQ2,,,,,,,,English,2020-06-16_15h35.32.133,Experiment_English,3.2.4,Win32,60,,,1,0,340,93,1,339,ratio13_4_16_7.png,,,,,,,,,,,,
,,,,,,,,,,,,None,Many,Most,All,Half,Some,Few,More than half,Less than half,0.630555556,-0.062962963,1,0,0,QQQ2,,,,,,,,English,2020-06-16_15h35.32.133,Experiment_English,3.2.4,Win32,60,,,1,0,340,209,1,339,ratio31_9_12_6.png,,,,,,,,,,,,
,,,,,,,,,,,,Many,None,Some,All,More than half,Less than half,Half,Few,Most,0.148148148,-0.283333333,1,0,0,QQQ6,,,,,,,,English,2020-06-16_15h35.32.133,Experiment_English,3.2.4,Win32,60,,,1,0,340,138,1,339,ratio15_3_18_17.png,,,,,,,,,,,,
,,,,,,,,,,,,None,All,Some,Few,Most,Many,Less than half,Half,More than half,0.655555556,0.015740741,1,0,0,QQQ2,,,,,,,,English,2020-06-16_15h35.32.133,Experiment_English,3.2.4,Win32,60,,,1,0,340,55,1,339,ratioX0_16_16_3.png,,,,,,,,,,,,
,,,,,,,,,,,,Less than half,All,Many,Most,Some,None,Half,Few,More than half,-0.365740741,0.234259259,1,0,0,QQQ7,,,,,,,,English,2020-06-16_15h35.32.133,Experiment_English,3.2.4,Win32,60,,,1,0,340,291,1,339,ratio43_8_14_5.png,,,,,,,,,,,,
,,,,,,,,,,,,Less than half,Some,Half,Few,More than half,All,Most,None,Many,0.550925926,0.314814815,1,0,0,QQQ1,,,,,,,,English,2020-06-16_15h35.32.133,Experiment_English,3.2.4,Win32,60,,,1,0,340,92,1,339,ratio13_4_16_3.png,,,,,,,,,,,,
,,,,,,,,,,,,Most,Half,Many,More than half,All,Some,Few,None,Less than half,0.456481481,0.000925926,1,0,0,QQQ2,,,,,,,,English,2020-06-16_15h35.32.133,Experiment_English,3.2.4,Win32,60,,,1,0,340,20,1,339,ratio11_2_4_3.png,0.437037037,-0.380555556,1,0,0,continue_button_pause,1,0,1,0,1,0
,,,,,,,,,,,,,,,,,,,,,,,,,,,,,,,,,,English,2020-06-16_15h35.32.133,Experiment_English,3.2.4,Win32,60,,,1,0,340,20,1,339,ratio11_2_4_3.png,,,,,,,,,,,,
,,,,,,,,,,,,Some,Few,All,Most,Half,Less than half,More than half,None,Many,0.467592593,-0.360185185,1,0,0,QQQ3,,,,,,,,English,2020-06-16_15h35.32.133,Experiment_English,3.2.4,Win32,60,,,1,0,340,57,1,339,ratioX0_18_18_1.png,,,,,,,,,,,,
,,,,,,,,,,,,Most,Few,All,More than half,Less than half,Many,Some,None,Half,0.466666667,-0.082407407,1,0,0,QQQ2,,,,,,,,English,2020-06-16_15h35.32.133,Experiment_English,3.2.4,Win32,60,,,1,0,340,109,1,339,ratio14_2_10_9.png,,,,,,,,,,,,
,,,,,,,,,,,,All,Most,Half,None,Few,Many,Some,More than half,Less than half,0.432407407,0.269444444,1,0,0,QQQ1,,,,,,,,English,2020-06-16_15h35.32.133,Experiment_English,3.2.4,Win32,60,,,1,0,340,52,1,339,ratioX0_13_13_10.png,,,,,,,,,,,,
,,,,,,,,,,,,Half,Many,More than half,All,None,Less than half,Few,Some,Most,0.387962963,0.241666667,1,0,0,QQQ1,,,,,,,,English,2020-06-16_15h35.32.133,Experiment_English,3.2.4,Win32,60,,,1,0,340,32,1,339,ratio11_7_14_5.png,,,,,,,,,,,,
,,,,,,,,,,,,Many,Half,Few,More than half,All,None,Some,Most,Less than half,0.114814815,-0.010185185,1,0,0,QQQ5,,,,,,,,English,2020-06-16_15h35.32.133,Experiment_English,3.2.4,Win32,60,,,1,0,340,40,1,339,ratioX0_3_3_5.png,,,,,,,,,,,,
,,,,,,,,,,,,Less than half,Few,All,Many,Most,More than half,Half,None,Some,0.080555556,-0.3,1,0,0,QQQ6,,,,,,,,English,2020-06-16_15h35.32.133,Experiment_English,3.2.4,Win32,60,,,1,0,340,318,1,339,ratio51_15_18_18.png,,,,,,,,,,,,
,,,,,,,,,,,,Few,Less than half,Many,All,More than half,Some,Most,None,Half,0.055555556,-0.041666667,1,0,0,QQQ5,,,,,,,,English,2020-06-16_15h35.32.133,Experiment_English,3.2.4,Win32,60,,,1,0,340,220,1,339,ratio32_3_5_1.png,,,,,,,,,,,,
,,,,,,,,,,,,Most,Some,Less than half,Half,More than half,Many,Few,None,All,0.055555556,-0.041666667,1,0,0,QQQ5,,,,,,,,English,2020-06-16_15h35.32.133,Experiment_English,3.2.4,Win32,60,,,1,0,340,289,1,339,ratio43_4_7_20.png,,,,,,,,,,,,
,,,,,,,,,,,,Few,Some,All,More than half,Less than half,None,Most,Many,Half,0.049074074,0.231481481,1,0,0,QQQ4,,,,,,,,English,2020-06-16_15h35.32.133,Experiment_English,3.2.4,Win32,60,,,1,0,340,308,1,339,ratio51_10_12_9.png,,,,,,,,,,,,
,,,,,,,,,,,,Some,Few,All,Half,Less than half,Most,More than half,Many,None,0.065740741,-0.226851852,1,0,0,QQQ6,,,,,,,,English,2020-06-16_15h35.32.133,Experiment_English,3.2.4,Win32,60,,,1,0,340,174,1,339,ratio21_10_15_1.png,,,,,,,,,,,,
,,,,,,,,,,,,Most,All,Some,Less than half,More than half,Half,None,Many,Few,0.024074074,0.367592593,1,0,0,QQQ4,,,,,,,,English,2020-06-16_15h35.32.133,Experiment_English,3.2.4,Win32,60,,,1,0,340,91,1,339,ratio13_3_12_10.png,,,,,,,,,,,,
,,,,,,,,,,,,More than half,Less than half,Some,Few,Many,None,Most,Half,All,0.013888889,0.037962963,1,0,0,QQQ5,,,,,,,,English,2020-06-16_15h35.32.133,Experiment_English,3.2.4,Win32,60,,,1,0,340,261,1,339,ratio41_4_5_3.png,,,,,,,,,,,,
,,,,,,,,,,,,Many,Less than half,Most,Few,All,More than half,Half,None,Some,-0.010185185,-0.237037037,1,0,0,QQQ6,,,,,,,,English,2020-06-16_15h35.32.133,Experiment_English,3.2.4,Win32,60,,,1,0,340,219,1,339,ratio31_15_20_10.png,,,,,,,,,,,,
,,,,,,,,,,,,Half,None,Some,All,Many,More than half,Few,Less than half,Most,0.481481481,0.003703704,1,0,0,QQQ2,,,,,,,,English,2020-06-16_15h35.32.133,Experiment_English,3.2.4,Win32,60,,,1,0,340,79,1,339,ratio0Y_0_20_4.png,,,,,,,,,,,,
,,,,,,,,,,,,Few,All,More than half,Less than half,Some,Half,Many,None,Most,0.469444444,-0.244444444,1,0,0,QQQ3,,,,,,,,English,2020-06-16_15h35.32.133,Experiment_English,3.2.4,Win32,60,,,1,0,340,211,1,339,ratio31_9_12_10.png,,,,,,,,,,,,
,,,,,,,,,,,,Many,Less than half,More than half,Few,Half,None,Most,Some,All,0.469444444,-0.244444444,1,0,0,QQQ3,,,,,,,,English,2020-06-16_15h35.32.133,Experiment_English,3.2.4,Win32,60,,,1,0,340,238,1,339,ratio32_12_20_9.png,,,,,,,,,,,,
,,,,,,,,,,,,Some,All,Half,Many,More than half,Less than half,Most,Few,None,0.042592593,-0.260185185,1,0,0,QQQ6,,,,,,,,English,2020-06-16_15h35.32.133,Experiment_English,3.2.4,Win32,60,,,1,0,340,145,1,339,ratio19_1_10_15.png,,,,,,,,,,,,
,,,,,,,,,,,,More than half,Half,Few,Most,None,Less than half,All,Many,Some,0.042592593,-0.260185185,1,0,0,QQQ6,,,,,,,,English,2020-06-16_15h35.32.133,Experiment_English,3.2.4,Win32,60,,,1,0,340,158,1,339,ratio19_2_20_17.png,,,,,,,,,,,,
,,,,,,,,,,,,Some,Many,None,More than half,Half,Less than half,All,Most,Few,0.093518519,0.275,1,0,0,QQQ4,,,,,,,,English,2020-06-16_15h35.32.133,Experiment_English,3.2.4,Win32,60,,,1,0,340,214,1,339,ratio31_12_16_5.png,,,,,,,,,,,,
,,,,,,,,,,,,None,More than half,Many,Half,Few,Most,Some,Less than half,All,0.394444444,-0.026851852,1,0,0,QQQ2,,,,,,,,English,2020-06-16_15h35.32.133,Experiment_English,3.2.4,Win32,60,,,1,0,340,225,1,339,ratio32_6_10_4.png,,,,,,,,,,,,
,,,,,,,,,,,,Few,All,More than half,Many,Less than half,Most,None,Some,Half,0.091666667,-0.056481481,1,0,0,QQQ5,,,,,,,,English,2020-06-16_15h35.32.133,Experiment_English,3.2.4,Win32,60,,,1,0,340,144,1,339,ratio19_1_10_11.png,,,,,,,,,,,,
,,,,,,,,,,,,Most,All,Few,Half,Some,More than half,Many,Less than half,None,-0.35462963,-0.047222222,1,0,0,QQQ8,,,,,,,,English,2020-06-16_15h35.32.133,Experiment_English,3.2.4,Win32,60,,,1,0,340,286,1,339,ratio43_4_7_15.png,,,,,,,,,,,,
,,,,,,,,,,,,Many,Half,Some,All,Most,None,Less than half,Few,More than half,-0.005555556,-0.238888889,1,0,0,QQQ6,,,,,,,,English,2020-06-16_15h35.32.133,Experiment_English,3.2.4,Win32,60,,,1,0,340,72,1,339,ratio0Y_0_13_4.png,,,,,,,,,,,,
,,,,,,,,,,,,Many,Half,All,Some,Less than half,None,More than half,Most,Few,0.008333333,-0.02962963,1,0,0,QQQ5,,,,,,,,English,2020-06-16_15h35.32.133,Experiment_English,3.2.4,Win32,60,,,1,0,340,196,1,339,ratio23_8_20_5.png,,,,,,,,,,,,
,,,,,,,,,,,,Most,Some,Less than half,None,Many,More than half,All,Few,Half,0.008333333,-0.02962963,1,0,0,QQQ5,,,,,,,,English,2020-06-16_15h35.32.133,Experiment_English,3.2.4,Win32,60,,,1,0,340,279,1,339,ratio41_16_20_10.png,,,,,,,,,,,,
,,,,,,,,,,,,All,Less than half,Half,More than half,Few,None,Most,Some,Many,0.431481481,-0.286111111,1,0,0,QQQ3,,,,,,,,English,2020-06-16_15h35.32.133,Experiment_English,3.2.4,Win32,60,,,1,0,340,17,1,339,ratio12_6_18_5.png,,,,,,,,,,,,
,,,,,,,,,,,,All,Few,More than half,Many,Half,None,Less than half,Some,Most,-0.425925926,0.252777778,1,0,0,QQQ7,,,,,,,,English,2020-06-16_15h35.32.133,Experiment_English,3.2.4,Win32,60,,,1,0,340,172,1,339,ratio21_8_12_6.png,,,,,,,,,,,,
,,,,,,,,,,,,Few,More than half,Many,None,Less than half,Some,Most,Half,All,0.093518519,-0.018518519,1,0,0,QQQ5,,,,,,,,English,2020-06-16_15h35.32.133,Experiment_English,3.2.4,Win32,60,,,1,0,340,100,1,339,ratio14_1_5_3.png,,,,,,,,,,,,
,,,,,,,,,,,,Half,Many,More than half,Less than half,Most,All,Some,None,Few,0.600925926,0.262037037,1,0,0,QQQ1,,,,,,,,English,2020-06-16_15h35.32.133,Experiment_English,3.2.4,Win32,60,,,1,0,340,170,1,339,ratio21_6_9_8.png,,,,,,,,,,,,
,,,,,,,,,,,,Half,None,More than half,Most,Many,Few,Some,All,Less than half,-0.373148148,-0.3,1,0,0,QQQ9,,,,,,,,English,2020-06-16_15h35.32.133,Experiment_English,3.2.4,Win32,60,,,1,0,340,131,1,339,ratio15_2_12_14.png,,,,,,,,,,,,
,,,,,,,,,,,,More than half,Some,Many,Few,All,Half,None,Most,Less than half,-0.373148148,-0.3,1,0,0,QQQ9,,,,,,,,English,2020-06-16_15h35.32.133,Experiment_English,3.2.4,Win32,60,,,1,0,340,156,1,339,ratio19_2_20_14.png,,,,,,,,,,,,
,,,,,,,,,,,,Few,Less than half,Most,Some,None,All,Half,More than half,Many,-0.380555556,-0.040740741,1,0,0,QQQ8,,,,,,,,English,2020-06-16_15h35.32.133,Experiment_English,3.2.4,Win32,60,,,1,0,340,339,1,339,ratio91_18_20_19.png,,,,,,,,,,,,
,,,,,,,,,,,,All,None,Some,Few,Less than half,Many,More than half,Most,Half,-0.380555556,-0.040740741,1,0,0,QQQ8,,,,,,,,English,2020-06-16_15h35.32.133,Experiment_English,3.2.4,Win32,60,,,1,0,340,39,1,339,ratio11_10_20_6.png,,,,,,,,,,,,
,,,,,,,,,,,,Less than half,Most,None,All,Many,Some,Few,Half,More than half,0.025925926,-0.038888889,1,0,0,QQQ5,,,,,,,,English,2020-06-16_15h35.32.133,Experiment_English,3.2.4,Win32,60,,,1,0,340,259,1,339,ratio34_6_14_19.png,0.257407407,-0.394444444,1,0,0,continue_button_pause,1,0,1,0,1,0
,,,,,,,,,,,,,,,,,,,,,,,,,,,,,,,,,,English,2020-06-16_15h35.32.133,Experiment_English,3.2.4,Win32,60,,,1,0,340,259,1,339,ratio34_6_14_19.png,,,,,,,,,,,,
,,,,,,,,,,,,Some,Most,Few,Half,More than half,Many,Less than half,All,None,0.149074074,0.057407407,1,0,0,QQQ5,,,,,,,,English,2020-06-16_15h35.32.133,Experiment_English,3.2.4,Win32,60,,,1,0,340,163,1,339,ratio21_4_6_1.png,,,,,,,,,,,,
,,,,,,,,,,,,None,All,Less than half,Many,More than half,Most,Few,Some,Half,0.149074074,0.057407407,1,0,0,QQQ5,,,,,,,,English,2020-06-16_15h35.32.133,Experiment_English,3.2.4,Win32,60,,,1,0,340,212,1,339,ratio31_12_16_1.png,,,,,,,,,,,,
,,,,,,,,,,,,Less than half,Few,Some,Many,Most,None,Half,All,More than half,0.415740741,0.008333333,1,0,0,QQQ2,,,,,,,,English,2020-06-16_15h35.32.133,Experiment_English,3.2.4,Win32,60,,,1,0,340,8,1,339,ratio12_3_9_4.png,,,,,,,,,,,,
,,,,,,,,,,,,Few,None,Most,All,Less than half,Half,Some,More than half,Many,0.114814815,-0.008333333,1,0,0,QQQ5,,,,,,,,English,2020-06-16_15h35.32.133,Experiment_English,3.2.4,Win32,60,,,1,0,340,243,1,339,ratio34_3_7_8.png,,,,,,,,,,,,
,,,,,,,,,,,,Half,Few,All,More than half,Many,None,Most,Less than half,Some,0.468518519,-0.312962963,1,0,0,QQQ3,,,,,,,,English,2020-06-16_15h35.32.133,Experiment_English,3.2.4,Win32,60,,,1,0,340,49,1,339,ratioX0_11_11_2.png,,,,,,,,,,,,
,,,,,,,,,,,,Many,Less than half,Few,More than half,Most,Half,None,Some,All,0.466666667,-0.063888889,1,0,0,QQQ2,,,,,,,,English,2020-06-16_15h35.32.133,Experiment_English,3.2.4,Win32,60,,,1,0,340,182,1,339,ratio23_2_5_7.png,,,,,,,,,,,,
,,,,,,,,,,,,Many,Some,Less than half,More than half,Few,All,Half,None,Most,0.466666667,-0.063888889,1,0,0,QQQ2,,,,,,,,English,2020-06-16_15h35.32.133,Experiment_English,3.2.4,Win32,60,,,1,0,340,0,1,339,ratio12_1_3_3.png,,,,,,,,,,,,
,,,,,,,,,,,,Most,Many,Half,Few,All,Less than half,More than half,Some,None,0.466666667,-0.063888889,1,0,0,QQQ2,,,,,,,,English,2020-06-16_15h35.32.133,Experiment_English,3.2.4,Win32,60,,,1,0,340,307,1,339,ratio51_10_12_1.png,,,,,,,,,,,,
,,,,,,,,,,,,Most,Few,Less than half,Some,All,Half,None,Many,More than half,0.466666667,-0.063888889,1,0,0,QQQ2,,,,,,,,English,2020-06-16_15h35.32.133,Experiment_English,3.2.4,Win32,60,,,1,0,340,317,1,339,ratio51_15_18_13.png,,,,,,,,,,,,
,,,,,,,,,,,,Most,Some,Less than half,Half,Few,Many,More than half,All,None,-0.5,-0.098148148,1,0,0,QQQ8,,,,,,,,English,2020-06-16_15h35.32.133,Experiment_English,3.2.4,Win32,60,,,1,0,340,46,1,339,ratioX0_9_9_3.png,,,,,,,,,,,,
,,,,,,,,,,,,Half,None,Less than half,All,Many,More than half,Some,Few,Most,-0.452777778,-0.061111111,1,0,0,QQQ8,,,,,,,,English,2020-06-16_15h35.32.133,Experiment_English,3.2.4,Win32,60,,,1,0,340,137,1,339,ratio15_3_18_16.png,,,,,,,,,,,,
,,,,,,,,,,,,All,Half,None,Few,Most,Less than half,Many,More than half,Some,-0.026851852,-0.034259259,1,0,0,QQQ5,,,,,,,,English,2020-06-16_15h35.32.133,Experiment_English,3.2.4,Win32,60,,,1,0,340,38,1,339,ratio11_10_20_5.png,,,,,,,,,,,,
,,,,,,,,,,,,More than half,Half,Most,All,Few,Many,Less than half,Some,None,-0.026851852,-0.036111111,1,0,0,QQQ5,,,,,,,,English,2020-06-16_15h35.32.133,Experiment_English,3.2.4,Win32,60,,,1,0,340,335,1,339,ratio91_18_20_11.png,,,,,,,,,,,,
,,,,,,,,,,,,More than half,Most,Few,All,Many,Half,Less than half,None,Some,0.40462963,-0.228703704,1,0,0,QQQ3,,,,,,,,English,2020-06-16_15h35.32.133,Experiment_English,3.2.4,Win32,60,,,1,0,340,283,1,339,ratio43_4_7_8.png,,,,,,,,,,,,
,,,,,,,,,,,,Most,More than half,Less than half,None,Half,All,Many,Some,Few,0.043518519,-0.044444444,1,0,0,QQQ5,,,,,,,,English,2020-06-16_15h35.32.133,Experiment_English,3.2.4,Win32,60,,,1,0,340,89,1,339,ratio13_3_12_6.png,,,,,,,,,,,,
,,,,,,,,,,,,Half,Few,All,More than half,Some,None,Many,Most,Less than half,0.02962963,-0.298148148,1,0,0,QQQ6,,,,,,,,English,2020-06-16_15h35.32.133,Experiment_English,3.2.4,Win32,60,,,1,0,340,61,1,339,ratio0Y_0_4_7.png,,,,,,,,,,,,
,,,,,,,,,,,,Many,Few,All,None,Less than half,Most,Half,Some,More than half,0.025925926,-0.049074074,1,0,0,QQQ5,,,,,,,,English,2020-06-16_15h35.32.133,Experiment_English,3.2.4,Win32,60,,,1,0,340,94,1,339,ratio13_4_16_8.png,,,,,,,,,,,,
,,,,,,,,,,,,Half,Many,Some,Few,None,All,Less than half,Most,More than half,-0.150925926,0.305555556,1,0,0,QQQ4,,,,,,,,English,2020-06-16_15h35.32.133,Experiment_English,3.2.4,Win32,60,,,1,0,340,104,1,339,ratio14_1_5_10.png,,,,,,,,,,,,
,,,,,,,,,,,,Few,Many,Less than half,Half,All,Most,More than half,None,Some,0.425,0.303703704,1,0,0,QQQ1,,,,,,,,English,2020-06-16_15h35.32.133,Experiment_English,3.2.4,Win32,60,,,1,0,340,258,1,339,ratio34_6_14_14.png,,,,,,,,,,,,
,,,,,,,,,,,,Most,Less than half,None,Few,More than half,Some,Half,All,Many,0.098148148,0.27037037,1,0,0,QQQ4,,,,,,,,English,2020-06-16_15h35.32.133,Experiment_English,3.2.4,Win32,60,,,1,0,340,135,1,339,ratio15_3_18_7.png,,,,,,,,,,,,
,,,,,,,,,,,,Less than half,Few,Half,Most,Some,All,More than half,None,Many,0.442592593,0.00462963,1,0,0,QQQ2,,,,,,,,English,2020-06-16_15h35.32.133,Experiment_English,3.2.4,Win32,60,,,1,0,340,120,1,339,ratio15_1_6_1.png,,,,,,,,,,,,
,,,,,,,,,,,,Less than half,None,Many,Most,Some,All,Half,Few,More than half,0.525925926,-0.012962963,1,0,0,QQQ2,,,,,,,,English,2020-06-16_15h35.32.133,Experiment_English,3.2.4,Win32,60,,,1,0,340,70,1,339,ratio0Y_0_12_5.png,,,,,,,,,,,,
,,,,,,,,,,,,None,Half,Few,Most,Many,All,Some,More than half,Less than half,0.012037037,-0.257407407,1,0,0,QQQ6,,,,,,,,English,2020-06-16_15h35.32.133,Experiment_English,3.2.4,Win32,60,,,1,0,340,43,1,339,ratioX0_6_6_9.png,,,,,,,,,,,,
,,,,,,,,,,,,None,All,More than half,Many,Most,Half,Less than half,Few,Some,0.017592593,-0.000925926,1,0,0,QQQ5,,,,,,,,English,2020-06-16_15h35.32.133,Experiment_English,3.2.4,Win32,60,,,1,0,340,217,1,339,ratio31_15_20_5.png,,,,,,,,,,,,
,,,,,,,,,,,,All,None,More than half,Some,Half,Less than half,Many,Few,Most,0.019444444,-0.214814815,1,0,0,QQQ6,,,,,,,,English,2020-06-16_15h35.32.133,Experiment_English,3.2.4,Win32,60,,,1,0,340,123,1,339,ratio15_1_6_12.png,,,,,,,,,,,,
,,,,,,,,,,,,Some,Most,Half,None,More than half,Many,Less than half,Few,All,0.019444444,-0.214814815,1,0,0,QQQ6,,,,,,,,English,2020-06-16_15h35.32.133,Experiment_English,3.2.4,Win32,60,,,1,0,340,19,1,339,ratio12_6_18_9.png,,,,,,,,,,,,
,,,,,,,,,,,,Some,Less than half,None,Half,Many,More than half,Few,Most,All,0.019444444,-0.214814815,1,0,0,QQQ6,,,,,,,,English,2020-06-16_15h35.32.133,Experiment_English,3.2.4,Win32,60,,,1,0,340,314,1,339,ratio51_15_18_4.png,,,,,,,,,,,,
,,,,,,,,,,,,More than half,Half,Many,Most,Some,Less than half,Few,All,None,0.025925926,0.259259259,1,0,0,QQQ4,,,,,,,,English,2020-06-16_15h35.32.133,Experiment_English,3.2.4,Win32,60,,,1,0,340,165,1,339,ratio21_4_6_10.png,,,,,,,,,,,,
,,,,,,,,,,,,More than half,Most,Some,Less than half,Half,All,Few,Many,None,0.534259259,0.030555556,1,0,0,QQQ2,,,,,,,,English,2020-06-16_15h35.32.133,Experiment_English,3.2.4,Win32,60,,,1,0,340,326,1,339,ratio91_9_10_10.png,,,,,,,,,,,,
,,,,,,,,,,,,Many,Half,Few,Most,Some,None,Less than half,All,More than half,0.52037037,0.287962963,1,0,0,QQQ1,,,,,,,,English,2020-06-16_15h35.32.133,Experiment_English,3.2.4,Win32,60,,,1,0,340,301,1,339,ratio51_5_6_4.png,,,,,,,,,,,,
,,,,,,,,,,,,Some,Less than half,Many,Few,Most,More than half,All,Half,None,0.040740741,-0.3,1,0,0,QQQ6,,,,,,,,English,2020-06-16_15h35.32.133,Experiment_English,3.2.4,Win32,60,,,1,0,340,191,1,339,ratio23_6_15_7.png,,,,,,,,,,,,
,,,,,,,,,,,,None,More than half,Less than half,Some,Few,Half,Many,Most,All,0.040740741,-0.3,1,0,0,QQQ6,,,,,,,,English,2020-06-16_15h35.32.133,Experiment_English,3.2.4,Win32,60,,,1,0,340,230,1,339,ratio32_9_15_1.png,,,,,,,,,,,,
,,,,,,,,,,,,All,Half,Many,Most,Less than half,Few,None,Some,More than half,-0.378703704,0.249074074,1,0,0,QQQ7,,,,,,,,English,2020-06-16_15h35.32.133,Experiment_English,3.2.4,Win32,60,,,1,0,340,78,1,339,ratio0Y_0_19_1.png,,,,,,,,,,,,
,,,,,,,,,,,,All,Few,Many,More than half,Less than half,Some,Most,Half,None,0.40462963,0.266666667,1,0,0,QQQ1,,,,,,,,English,2020-06-16_15h35.32.133,Experiment_English,3.2.4,Win32,60,,,1,0,340,58,1,339,ratioX0_19_19_4.png,0.403703704,-0.42037037,1,0,0,continue_button_pause,1,0,1,0,1,0
,,,,,,,,,,,,,,,,,,,,,,,,,,,,,,,,,,English,2020-06-16_15h35.32.133,Experiment_English,3.2.4,Win32,60,,,1,0,340,58,1,339,ratioX0_19_19_4.png,,,,,,,,,,,,
,,,,,,,,,,,,All,Most,Some,Many,Less than half,Few,None,More than half,Half,0.415740741,-0.00462963,1,0,0,QQQ2,,,,,,,,English,2020-06-16_15h35.32.133,Experiment_English,3.2.4,Win32,60,,,1,0,340,180,1,339,ratio23_2_5_4.png,,,,,,,,,,,,
,,,,,,,,,,,,Half,Less than half,Some,Few,All,Most,More than half,Many,None,0.415740741,-0.00462963,1,0,0,QQQ2,,,,,,,,English,2020-06-16_15h35.32.133,Experiment_English,3.2.4,Win32,60,,,1,0,340,99,1,339,ratio13_5_20_4.png,,,,,,,,,,,,
,,,,,,,,,,,,None,Some,Most,More than half,Few,Many,Half,All,Less than half,0.025,0.287037037,1,0,0,QQQ4,,,,,,,,English,2020-06-16_15h35.32.133,Experiment_English,3.2.4,Win32,60,,,1,0,340,223,1,339,ratio32_3_5_5.png,,,,,,,,,,,,
,,,,,,,,,,,,More than half,All,Many,Half,None,Few,Less than half,Some,Most,0.122222222,-0.275925926,1,0,0,QQQ6,,,,,,,,English,2020-06-16_15h35.32.133,Experiment_English,3.2.4,Win32,60,,,1,0,340,116,1,339,ratio14_4_20_3.png,,,,,,,,,,,,
,,,,,,,,,,,,More than half,Half,Most,Some,Many,Less than half,All,None,Few,0.122222222,-0.275925926,1,0,0,QQQ6,,,,,,,,English,2020-06-16_15h35.32.133,Experiment_English,3.2.4,Win32,60,,,1,0,340,316,1,339,ratio51_15_18_11.png,,,,,,,,,,,,
,,,,,,,,,,,,None,All,Few,Most,Some,Less than half,Many,Half,More than half,0.02962963,0.025925926,1,0,0,QQQ5,,,,,,,,English,2020-06-16_15h35.32.133,Experiment_English,3.2.4,Win32,60,,,1,0,340,319,1,339,ratio51_15_18_20.png,,,,,,,,,,,,
,,,,,,,,,,,,Few,More than half,Some,All,None,Less than half,Most,Half,Many,0.469444444,0.00462963,1,0,0,QQQ2,,,,,,,,English,2020-06-16_15h35.32.133,Experiment_English,3.2.4,Win32,60,,,1,0,340,201,1,339,ratio31_3_4_7.png,,,,,,,,,,,,
,,,,,,,,,,,,Many,All,Less than half,Half,More than half,Most,None,Few,Some,-0.45462963,0.002777778,1,0,0,QQQ8,,,,,,,,English,2020-06-16_15h35.32.133,Experiment_English,3.2.4,Win32,60,,,1,0,340,248,1,339,ratio34_3_7_19.png,,,,,,,,,,,,
,,,,,,,,,,,,Many,Less than half,Few,All,More than half,Some,Half,None,Most,0.505555556,-0.293518519,1,0,0,QQQ3,,,,,,,,English,2020-06-16_15h35.32.133,Experiment_English,3.2.4,Win32,60,,,1,0,340,15,1,339,ratio12_5_15_5.png,,,,,,,,,,,,
,,,,,,,,,,,,All,Some,None,More than half,Many,Half,Few,Most,Less than half,0.467592593,-0.025925926,1,0,0,QQQ2,,,,,,,,English,2020-06-16_15h35.32.133,Experiment_English,3.2.4,Win32,60,,,1,0,340,250,1,339,ratio34_6_14_1.png,,,,,,,,,,,,
,,,,,,,,,,,,Some,None,Less than half,All,Most,Half,More than half,Few,Many,0.076851852,-0.313888889,1,0,0,QQQ6,,,,,,,,English,2020-06-16_15h35.32.133,Experiment_English,3.2.4,Win32,60,,,1,0,340,25,1,339,ratio11_4_8_10.png,,,,,,,,,,,,
,,,,,,,,,,,,Half,Few,All,More than half,Less than half,Some,Many,Most,None,0.47962963,-0.316666667,1,0,0,QQQ3,,,,,,,,English,2020-06-16_15h35.32.133,Experiment_English,3.2.4,Win32,60,,,1,0,340,45,1,339,ratioX0_8_8_3.png,,,,,,,,,,,,
,,,,,,,,,,,,Some,None,Less than half,Most,All,Many,Few,More than half,Half,0.47962963,-0.316666667,1,0,0,QQQ3,,,,,,,,English,2020-06-16_15h35.32.133,Experiment_English,3.2.4,Win32,60,,,1,0,340,36,1,339,ratio11_9_18_1.png,,,,,,,,,,,,
,,,,,,,,,,,,Many,More than half,All,Half,Some,Less than half,Few,None,Most,0.493518519,-0.044444444,1,0,0,QQQ2,,,,,,,,English,2020-06-16_15h35.32.133,Experiment_English,3.2.4,Win32,60,,,1,0,340,192,1,339,ratio23_6_15_8.png,,,,,,,,,,,,
,,,,,,,,,,,,Most,Some,Many,All,Half,Less than half,None,Few,More than half,0.080555556,-0.282407407,1,0,0,QQQ6,,,,,,,,English,2020-06-16_15h35.32.133,Experiment_English,3.2.4,Win32,60,,,1,0,340,148,1,339,ratio19_1_10_19.png,,,,,,,,,,,,
,,,,,,,,,,,,None,Less than half,All,Half,More than half,Some,Few,Most,Many,0.080555556,-0.282407407,1,0,0,QQQ6,,,,,,,,English,2020-06-16_15h35.32.133,Experiment_English,3.2.4,Win32,60,,,1,0,340,11,1,339,ratio12_4_12_7.png,,,,,,,,,,,,
,,,,,,,,,,,,None,Half,More than half,Many,Some,Less than half,Most,Few,All,0.518518519,-0.281481481,1,0,0,QQQ3,,,,,,,,English,2020-06-16_15h35.32.133,Experiment_English,3.2.4,Win32,60,,,1,0,340,207,1,339,ratio31_6_8_9.png,,,,,,,,,,,,
,,,,,,,,,,,,Half,Most,All,Few,Some,Less than half,Many,None,More than half,-0.537962963,-0.27037037,1,0,0,QQQ9,,,,,,,,English,2020-06-16_15h35.32.133,Experiment_English,3.2.4,Win32,60,,,1,0,340,161,1,339,ratio21_2_3_8.png,,,,,,,,,,,,
,,,,,,,,,,,,None,More than half,Many,Most,Some,Less than half,Half,All,Few,-0.483333333,-0.275925926,1,0,0,QQQ9,,,,,,,,English,2020-06-16_15h35.32.133,Experiment_English,3.2.4,Win32,60,,,1,0,340,185,1,339,ratio23_4_10_1.png,,,,,,,,,,,,
,,,,,,,,,,,,None,Half,Less than half,More than half,Some,Few,Most,All,Many,-0.512037037,-0.302777778,1,0,0,QQQ9,,,,,,,,English,2020-06-16_15h35.32.133,Experiment_English,3.2.4,Win32,60,,,1,0,340,215,1,339,ratio31_12_16_8.png,,,,,,,,,,,,
,,,,,,,,,,,,More than half,All,Some,Many,Less than half,None,Few,Half,Most,-0.351851852,0.24537037,1,0,0,QQQ7,,,,,,,,English,2020-06-16_15h35.32.133,Experiment_English,3.2.4,Win32,60,,,1,0,340,83,1,339,ratio13_1_4_10.png,,,,,,,,,,,,
,,,,,,,,,,,,All,Half,Most,Few,More than half,Some,Many,None,Less than half,-0.00462963,0.262037037,1,0,0,QQQ4,,,,,,,,English,2020-06-16_15h35.32.133,Experiment_English,3.2.4,Win32,60,,,1,0,340,322,1,339,ratio91_9_10_3.png,,,,,,,,,,,,
,,,,,,,,,,,,Half,Less than half,None,Some,More than half,Few,All,Many,Most,-0.003703704,0.262037037,1,0,0,QQQ4,,,,,,,,English,2020-06-16_15h35.32.133,Experiment_English,3.2.4,Win32,60,,,1,0,340,270,1,339,ratio41_12_15_3.png,,,,,,,,,,,,
,,,,,,,,,,,,Few,Less than half,More than half,None,Some,Most,All,Half,Many,0.440740741,0.278703704,1,0,0,QQQ1,,,,,,,,English,2020-06-16_15h35.32.133,Experiment_English,3.2.4,Win32,60,,,1,0,340,80,1,339,ratio13_1_4_3.png,,,,,,,,,,,,
,,,,,,,,,,,,More than half,Some,All,Most,Few,Half,None,Many,Less than half,-0.373148148,0.253703704,1,0,0,QQQ7,,,,,,,,English,2020-06-16_15h35.32.133,Experiment_English,3.2.4,Win32,60,,,1,0,340,50,1,339,ratioX0_12_12_3.png,,,,,,,,,,,,
,,,,,,,,,,,,Half,More than half,Less than half,None,Many,Few,Most,Some,All,0.417592593,0.312962963,1,0,0,QQQ1,,,,,,,,English,2020-06-16_15h35.32.133,Experiment_English,3.2.4,Win32,60,,,1,0,340,290,1,339,ratio43_8_14_3.png,,,,,,,,,,,,
,,,,,,,,,,,,Most,Many,Some,Less than half,Few,All,More than half,None,Half,0.49537037,0.060185185,1,0,0,QQQ2,,,,,,,,English,2020-06-16_15h35.32.133,Experiment_English,3.2.4,Win32,60,,,1,0,340,336,1,339,ratio91_18_20_12.png,,,,,,,,,,,,
,,,,,,,,,,,,Some,More than half,Less than half,None,All,Many,Half,Few,Most,0.49537037,0.059259259,1,0,0,QQQ2,,,,,,,,English,2020-06-16_15h35.32.133,Experiment_English,3.2.4,Win32,60,,,1,0,340,31,1,339,ratio11_6_12_9.png,,,,,,,,,,,,
,,,,,,,,,,,,None,All,Less than half,Most,Few,Many,Some,Half,More than half,-0.348148148,-0.011111111,1,0,0,QQQ8,,,,,,,,English,2020-06-16_15h35.32.133,Experiment_English,3.2.4,Win32,60,,,1,0,340,37,1,339,ratio11_9_18_8.png,,,,,,,,,,,,
,,,,,,,,,,,,Many,Less than half,All,None,Some,Few,Most,Half,More than half,0.52962963,-0.227777778,1,0,0,QQQ3,,,,,,,,English,2020-06-16_15h35.32.133,Experiment_English,3.2.4,Win32,60,,,1,0,340,51,1,339,ratioX0_12_12_9.png,,,,,,,,,,,,
,,,,,,,,,,,,Less than half,Some,Half,Few,More than half,Most,Many,None,All,0.536111111,0.285185185,1,0,0,QQQ1,,,,,,,,English,2020-06-16_15h35.32.133,Experiment_English,3.2.4,Win32,60,,,1,0,340,108,1,339,ratio14_2_10_6.png,,,,,,,,,,,,
,,,,,,,,,,,,All,Half,Most,More than half,Less than half,Some,Few,Many,None,0.128703704,0.006481481,1,0,0,QQQ5,,,,,,,,English,2020-06-16_15h35.32.133,Experiment_English,3.2.4,Win32,60,,,1,0,340,102,1,339,ratio14_1_5_8.png,,,,,,,,,,,,
,,,,,,,,,,,,All,Many,None,Half,More than half,Few,Less than half,Some,Most,-0.393518519,0.30462963,1,0,0,QQQ7,,,,,,,,English,2020-06-16_15h35.32.133,Experiment_English,3.2.4,Win32,60,,,1,0,340,132,1,339,ratio15_2_12_16.png,,,,,,,,,,,,
,,,,,,,,,,,,More than half,Many,Few,Less than half,Some,None,Most,All,Half,0.531481481,-0.219444444,1,0,0,QQQ3,,,,,,,,English,2020-06-16_15h35.32.133,Experiment_English,3.2.4,Win32,60,,,1,0,340,29,1,339,ratio11_6_12_1.png,,,,,,,,,,,,
