continue_mouse.x,continue_mouse.y,continue_mouse.leftButton,continue_mouse.midButton,continue_mouse.rightButton,continue_mouse.clicked_name,continue_mouse_2.x,continue_mouse_2.y,continue_mouse_2.leftButton,continue_mouse_2.midButton,continue_mouse_2.rightButton,continue_mouse_2.clicked_name,Q1,Q2,Q3,Q4,Q5,Q6,Q7,Q8,Q9,select_answer.x,select_answer.y,select_answer.leftButton,select_answer.midButton,select_answer.rightButton,select_answer.clicked_name,trial.thisRepN,trial.thisTrialN,trial.thisN,trial.thisIndex,trial.ran,trial.order,trials,Native tongue*,date,expName,psychopyVersion,OS,frameRate,key_resp.keys,key_resp.rt,Actual_Experiment.thisRepN,Actual_Experiment.thisTrialN,Actual_Experiment.thisN,Actual_Experiment.thisIndex,Actual_Experiment.ran,Actual_Experiment.order,Pic,mouse_pause.x,mouse_pause.y,mouse_pause.leftButton,mouse_pause.midButton,mouse_pause.rightButton,mouse_pause.clicked_name,pause.thisRepN,pause.thisTrialN,pause.thisN,pause.thisIndex,pause.ran,pause.order
0.270370405,-0.411111138,1,0,0,continue_button,0.339814851,-0.436111139,1,0,0,continue_button_2,More than half,None,Some,Half,Many,All,Less than half,Few,Most,0.414814854,-0.30555558,1,0,0,QQQ3,1,0,16,11,1,15,ratio14_1_5_7.png,English,2020-07-02_11h00.53.595,Experiment_English,3.2.4,Win32,60,,,,,,,,,,,,,,,,,,,,,
,,,,,,,,,,,,Less than half,Some,Most,More than half,Many,Half,Few,None,All,-0.022222196,0.263888882,1,0,0,QQQ4,1,0,16,0,1,15,ratio91_9_10_19.png,English,2020-07-02_11h00.53.595,Experiment_English,3.2.4,Win32,60,,,,,,,,,,,,,,,,,,,,,
,,,,,,,,,,,,Most,Many,Few,None,All,More than half,Less than half,Half,Some,0.448148188,-0.300000024,1,0,0,QQQ3,1,0,16,10,1,15,ratio15_2_12_4.png,English,2020-07-02_11h00.53.595,Experiment_English,3.2.4,Win32,60,,,,,,,,,,,,,,,,,,,,,
,,,,,,,,,,,,Many,Half,Few,None,Some,Most,All,Less than half,More than half,-0.434259246,-0.278703727,1,0,0,QQQ9,1,0,16,2,1,15,ratio43_8_14_19.png,English,2020-07-02_11h00.53.595,Experiment_English,3.2.4,Win32,60,,,,,,,,,,,,,,,,,,,,,
,,,,,,,,,,,,Half,None,Many,More than half,All,Some,Less than half,Few,Most,0.380555593,0.237037029,1,0,0,QQQ1,1,0,16,5,1,15,ratio32_6_10_2.png,English,2020-07-02_11h00.53.595,Experiment_English,3.2.4,Win32,60,,,,,,,,,,,,,,,,,,,,,
,,,,,,,,,,,,All,Some,More than half,Many,None,Few,Most,Less than half,Half,0.471296337,-0.324074155,1,0,0,QQQ3,,,,,,,,English,2020-07-02_11h00.53.595,Experiment_English,3.2.4,Win32,60,b,5.055000067,1,0,340,227,1,339,ratio32_6_10_6.png,,,,,,,,,,,,
,,,,,,,,,,,,Half,All,Few,None,Less than half,Some,Many,Most,More than half,0.0953704,-0.281481505,1,0,0,QQQ6,,,,,,,,English,2020-07-02_11h00.53.595,Experiment_English,3.2.4,Win32,60,,,1,0,340,244,1,339,ratio34_3_7_9.png,,,,,,,,,,,,
,,,,,,,,,,,,None,Less than half,More than half,Half,All,Many,Some,Most,Few,-0.403703689,-0.262963042,1,0,0,QQQ9,,,,,,,,English,2020-07-02_11h00.53.595,Experiment_English,3.2.4,Win32,60,,,1,0,340,102,1,339,ratio14_1_5_8.png,,,,,,,,,,,,
,,,,,,,,,,,,Half,None,Some,All,Many,Few,Most,More than half,Less than half,-0.416666653,0.003703689,1,0,0,QQQ8,,,,,,,,English,2020-07-02_11h00.53.595,Experiment_English,3.2.4,Win32,60,,,1,0,340,276,1,339,ratio41_16_20_4.png,,,,,,,,,,,,
,,,,,,,,,,,,Some,Few,Half,Most,Many,All,Less than half,None,More than half,-0.449074033,-0.278703727,1,0,0,QQQ9,,,,,,,,English,2020-07-02_11h00.53.595,Experiment_English,3.2.4,Win32,60,,,1,0,340,223,1,339,ratio32_3_5_5.png,,,,,,,,,,,,
,,,,,,,,,,,,Few,Less than half,Some,All,Many,None,Most,More than half,Half,0.424074113,-0.013888904,1,0,0,QQQ2,,,,,,,,English,2020-07-02_11h00.53.595,Experiment_English,3.2.4,Win32,60,,,1,0,340,99,1,339,ratio13_5_20_4.png,,,,,,,,,,,,
,,,,,,,,,,,,Many,None,Less than half,Most,Some,Half,All,Few,More than half,-0.484259247,-0.032407423,1,0,0,QQQ8,,,,,,,,English,2020-07-02_11h00.53.595,Experiment_English,3.2.4,Win32,60,,,1,0,340,155,1,339,ratio19_2_20_13.png,,,,,,,,,,,,
,,,,,,,,,,,,Half,None,Most,Less than half,All,More than half,Few,Some,Many,0.482407448,-0.338888914,1,0,0,QQQ3,,,,,,,,English,2020-07-02_11h00.53.595,Experiment_English,3.2.4,Win32,60,,,1,0,340,52,1,339,ratioX0_13_13_10.png,,,,,,,,,,,,
,,,,,,,,,,,,Less than half,Most,Some,More than half,Few,None,Half,Many,All,0.482407448,-0.338888914,1,0,0,QQQ3,,,,,,,,English,2020-07-02_11h00.53.595,Experiment_English,3.2.4,Win32,60,,,1,0,340,275,1,339,ratio41_16_20_2.png,,,,,,,,,,,,
,,,,,,,,,,,,Half,All,Most,Many,None,Less than half,Some,Few,More than half,-0.443518477,-0.355555581,1,0,0,QQQ9,,,,,,,,English,2020-07-02_11h00.53.595,Experiment_English,3.2.4,Win32,60,,,1,0,340,328,1,339,ratio91_9_10_15.png,,,,,,,,,,,,
,,,,,,,,,,,,Some,Most,All,None,Half,More than half,Less than half,Few,Many,-0.062962938,-0.311111135,1,0,0,QQQ6,,,,,,,,English,2020-07-02_11h00.53.595,Experiment_English,3.2.4,Win32,60,,,1,0,340,287,1,339,ratio43_4_7_17.png,,,,,,,,,,,,
,,,,,,,,,,,,Less than half,Many,More than half,Half,Most,Few,Some,None,All,0.504629671,-0.064814832,1,0,0,QQQ2,,,,,,,,English,2020-07-02_11h00.53.595,Experiment_English,3.2.4,Win32,60,,,1,0,340,297,1,339,ratio43_8_14_13.png,,,,,,,,,,,,
,,,,,,,,,,,,More than half,Less than half,None,Many,All,Half,Few,Some,Most,-0.391666652,-0.045370387,1,0,0,QQQ8,,,,,,,,English,2020-07-02_11h00.53.595,Experiment_English,3.2.4,Win32,60,,,1,0,340,97,1,339,ratio13_5_20_2.png,,,,,,,,,,,,
,,,,,,,,,,,,Half,Many,Less than half,All,Some,Few,More than half,None,Most,-0.116666644,-0.30462971,1,0,0,QQQ6,,,,,,,,English,2020-07-02_11h00.53.595,Experiment_English,3.2.4,Win32,60,,,1,0,340,150,1,339,ratio19_2_20_1.png,,,,,,,,,,,,
,,,,,,,,,,,,All,Less than half,Half,Many,More than half,Some,Most,Few,None,-0.116666644,-0.30462971,1,0,0,QQQ6,,,,,,,,English,2020-07-02_11h00.53.595,Experiment_English,3.2.4,Win32,60,,,1,0,340,12,1,339,ratio12_4_12_10.png,,,,,,,,,,,,
,,,,,,,,,,,,Some,None,Half,All,Less than half,Few,More than half,Many,Most,-0.437037024,-0.275925949,1,0,0,QQQ9,,,,,,,,English,2020-07-02_11h00.53.595,Experiment_English,3.2.4,Win32,60,,,1,0,340,318,1,339,ratio51_15_18_18.png,,,,,,,,,,,,
,,,,,,,,,,,,All,Few,Many,Half,Less than half,Most,Some,More than half,None,0.475925967,0.021296282,1,0,0,QQQ2,,,,,,,,English,2020-07-02_11h00.53.595,Experiment_English,3.2.4,Win32,60,,,1,0,340,85,1,339,ratio13_2_8_5.png,,,,,,,,,,,,
,,,,,,,,,,,,All,Few,Most,More than half,Less than half,Some,Many,None,Half,-0.492592581,0.006481467,1,0,0,QQQ8,,,,,,,,English,2020-07-02_11h00.53.595,Experiment_English,3.2.4,Win32,60,,,1,0,340,61,1,339,ratio0Y_0_4_7.png,,,,,,,,,,,,
,,,,,,,,,,,,All,None,Half,Most,More than half,Some,Few,Less than half,Many,-0.458333321,0.025925912,1,0,0,QQQ8,,,,,,,,English,2020-07-02_11h00.53.595,Experiment_English,3.2.4,Win32,60,,,1,0,340,254,1,339,ratio34_6_14_9.png,,,,,,,,,,,,
,,,,,,,,,,,,Many,Most,All,Half,More than half,Few,Less than half,None,Some,-0.393518504,-0.297222246,1,0,0,QQQ9,,,,,,,,English,2020-07-02_11h00.53.595,Experiment_English,3.2.4,Win32,60,,,1,0,340,10,1,339,ratio12_4_12_4.png,,,,,,,,,,,,
,,,,,,,,,,,,All,Half,Most,Few,Many,Less than half,Some,None,More than half,0.475925967,-0.283333357,1,0,0,QQQ3,,,,,,,,English,2020-07-02_11h00.53.595,Experiment_English,3.2.4,Win32,60,,,1,0,340,272,1,339,ratio41_12_15_7.png,,,,,,,,,,,,
,,,,,,,,,,,,None,Many,Half,Some,Most,Less than half,All,More than half,Few,-0.370370355,-0.262963042,1,0,0,QQQ9,,,,,,,,English,2020-07-02_11h00.53.595,Experiment_English,3.2.4,Win32,60,,,1,0,340,106,1,339,ratio14_2_10_2.png,,,,,,,,,,,,
,,,,,,,,,,,,More than half,Most,Less than half,None,Few,Half,All,Many,Some,0.424074113,0.29537035,1,0,0,QQQ1,,,,,,,,English,2020-07-02_11h00.53.595,Experiment_English,3.2.4,Win32,60,,,1,0,340,170,1,339,ratio21_6_9_8.png,,,,,,,,,,,,
,,,,,,,,,,,,All,Less than half,Few,More than half,None,Most,Many,Some,Half,0.428703743,-0.032407423,1,0,0,QQQ2,,,,,,,,English,2020-07-02_11h00.53.595,Experiment_English,3.2.4,Win32,60,,,1,0,340,96,1,339,ratio13_5_20_1.png,,,,,,,,,,,,
,,,,,,,,,,,,Half,Less than half,Most,Many,All,Few,None,More than half,Some,0.514814857,0.337037032,1,0,0,QQQ1,,,,,,,,English,2020-07-02_11h00.53.595,Experiment_English,3.2.4,Win32,60,,,1,0,340,38,1,339,ratio11_10_20_5.png,,,,,,,,,,,,
,,,,,,,,,,,,None,Half,Some,Most,More than half,Less than half,Many,All,Few,-0.462037024,-0.328703728,1,0,0,QQQ9,,,,,,,,English,2020-07-02_11h00.53.595,Experiment_English,3.2.4,Win32,60,,,1,0,340,148,1,339,ratio19_1_10_19.png,,,,,,,,,,,,
,,,,,,,,,,,,All,Few,None,Many,Less than half,Most,Some,More than half,Half,0.064814843,-0.30092595,1,0,0,QQQ6,,,,,,,,English,2020-07-02_11h00.53.595,Experiment_English,3.2.4,Win32,60,,,1,0,340,58,1,339,ratioX0_19_19_4.png,,,,,,,,,,,,
,,,,,,,,,,,,Many,Most,Few,Less than half,Half,All,More than half,None,Some,0.494444486,0.033333319,1,0,0,QQQ2,,,,,,,,English,2020-07-02_11h00.53.595,Experiment_English,3.2.4,Win32,60,,,1,0,340,262,1,339,ratio41_4_5_4.png,,,,,,,,,,,,
,,,,,,,,,,,,Few,Many,All,More than half,Most,Less than half,None,Some,Half,-0.010185159,-0.299074154,1,0,0,QQQ6,,,,,,,,English,2020-07-02_11h00.53.595,Experiment_English,3.2.4,Win32,60,,,1,0,340,7,1,339,ratio12_3_9_2.png,,,,,,,,,,,,
,,,,,,,,,,,,None,Most,Some,All,More than half,Half,Few,Less than half,Many,-0.063888864,-0.036111127,1,0,0,QQQ5,,,,,,,,English,2020-07-02_11h00.53.595,Experiment_English,3.2.4,Win32,60,,,1,0,340,256,1,339,ratio34_6_14_11.png,,,,,,,,,,,,
,,,,,,,,,,,,Half,All,None,Some,More than half,Many,Few,Most,Less than half,-0.443518477,0.017592578,1,0,0,QQQ8,,,,,,,,English,2020-07-02_11h00.53.595,Experiment_English,3.2.4,Win32,60,,,1,0,340,314,1,339,ratio51_15_18_4.png,,,,,,,,,,,,
,,,,,,,,,,,,Less than half,More than half,Some,All,Most,Half,Many,None,Few,0.037037065,-0.030555571,1,0,0,QQQ5,,,,,,,,English,2020-07-02_11h00.53.595,Experiment_English,3.2.4,Win32,60,,,1,0,340,51,1,339,ratioX0_12_12_9.png,,,,,,,,,,,,
,,,,,,,,,,,,Half,Few,Some,Most,All,Many,None,More than half,Less than half,0.015740824,0.205555547,1,0,0,QQQ4,,,,,,,,English,2020-07-02_11h00.53.595,Experiment_English,3.2.4,Win32,60,,,1,0,340,269,1,339,ratio41_8_10_6.png,,,,,,,,,,,,
,,,,,,,,,,,,Some,Less than half,None,Half,Many,Most,All,More than half,Few,0.037037065,-0.293518599,1,0,0,QQQ6,,,,,,,,English,2020-07-02_11h00.53.595,Experiment_English,3.2.4,Win32,60,,,1,0,340,130,1,339,ratio15_2_12_12.png,0.310185221,-0.357407489,1,0,0,continue_button_pause,1,0,1,0,1,0
,,,,,,,,,,,,,,,,,,,,,,,,,,,,,,,,,,English,2020-07-02_11h00.53.595,Experiment_English,3.2.4,Win32,60,,,1,0,340,130,1,339,ratio15_2_12_12.png,,,,,,,,,,,,
,,,,,,,,,,,,Less than half,Most,All,Half,Many,More than half,None,Some,Few,0.00833336,-0.37870373,1,0,0,QQQ6,,,,,,,,English,2020-07-02_11h00.53.595,Experiment_English,3.2.4,Win32,60,,,1,0,340,273,1,339,ratio41_12_15_8.png,,,,,,,,,,,,
,,,,,,,,,,,,Less than half,All,Most,More than half,None,Some,Half,Many,Few,-0.501851812,-0.336111136,1,0,0,QQQ9,,,,,,,,English,2020-07-02_11h00.53.595,Experiment_English,3.2.4,Win32,60,,,1,0,340,129,1,339,ratio15_2_12_9.png,,,,,,,,,,,,
,,,,,,,,,,,,Few,None,All,Many,More than half,Most,Half,Some,Less than half,0.525925968,-0.328703728,1,0,0,QQQ3,,,,,,,,English,2020-07-02_11h00.53.595,Experiment_English,3.2.4,Win32,60,,,1,0,340,41,1,339,ratioX0_4_4_9.png,,,,,,,,,,,,
,,,,,,,,,,,,Many,More than half,None,Less than half,All,Half,Few,Some,Most,-0.485185145,0.236111103,1,0,0,QQQ7,,,,,,,,English,2020-07-02_11h00.53.595,Experiment_English,3.2.4,Win32,60,,,1,0,340,152,1,339,ratio19_2_20_6.png,,,,,,,,,,,,
,,,,,,,,,,,,Less than half,All,Many,Most,Some,None,Half,More than half,Few,-0.407407393,0.026851809,1,0,0,QQQ8,,,,,,,,English,2020-07-02_11h00.53.595,Experiment_English,3.2.4,Win32,60,,,1,0,340,207,1,339,ratio31_6_8_9.png,,,,,,,,,,,,
,,,,,,,,,,,,Few,More than half,Most,Many,Less than half,All,Some,Half,None,0.420370409,-0.30092595,1,0,0,QQQ3,,,,,,,,English,2020-07-02_11h00.53.595,Experiment_English,3.2.4,Win32,60,,,1,0,340,265,1,339,ratio41_8_10_1.png,,,,,,,,,,,,
,,,,,,,,,,,,More than half,Some,Many,Most,All,Half,None,Few,Less than half,-0.043518493,0.338888884,1,0,0,QQQ4,,,,,,,,English,2020-07-02_11h00.53.595,Experiment_English,3.2.4,Win32,60,,,1,0,340,332,1,339,ratio91_18_20_4.png,,,,,,,,,,,,
,,,,,,,,,,,,Most,More than half,Some,Half,Many,None,All,Few,Less than half,-0.018518493,0.270370349,1,0,0,QQQ4,,,,,,,,English,2020-07-02_11h00.53.595,Experiment_English,3.2.4,Win32,60,,,1,0,340,323,1,339,ratio91_9_10_5.png,,,,,,,,,,,,
,,,,,,,,,,,,More than half,Less than half,Many,None,Some,All,Most,Half,Few,-0.489814803,-0.233333355,1,0,0,QQQ9,,,,,,,,English,2020-07-02_11h00.53.595,Experiment_English,3.2.4,Win32,60,,,1,0,340,83,1,339,ratio13_1_4_10.png,,,,,,,,,,,,
,,,,,,,,,,,,Few,Some,Less than half,Most,Half,More than half,None,Many,All,0.522222264,0.312037017,1,0,0,QQQ1,,,,,,,,English,2020-07-02_11h00.53.595,Experiment_English,3.2.4,Win32,60,,,1,0,340,122,1,339,ratio15_1_6_7.png,,,,,,,,,,,,
,,,,,,,,,,,,Few,None,All,Most,More than half,Many,Less than half,Half,Some,0.00370373,0.243518511,1,0,0,QQQ4,,,,,,,,English,2020-07-02_11h00.53.595,Experiment_English,3.2.4,Win32,60,,,1,0,340,320,1,339,ratio91_9_10_1.png,,,,,,,,,,,,
,,,,,,,,,,,,All,More than half,Few,None,Some,Less than half,Many,Half,Most,-0.031481399,-0.047222239,1,0,0,QQQ5,,,,,,,,English,2020-07-02_11h00.53.595,Experiment_English,3.2.4,Win32,60,,,1,0,340,88,1,339,ratio13_3_12_5.png,,,,,,,,,,,,
,,,,,,,,,,,,All,Less than half,Many,None,Some,Half,Few,More than half,Most,-0.526851813,-0.05833335,1,0,0,QQQ8,,,,,,,,English,2020-07-02_11h00.53.595,Experiment_English,3.2.4,Win32,60,,,1,0,340,24,1,339,ratio11_4_8_3.png,,,,,,,,,,,,
,,,,,,,,,,,,Half,Some,More than half,Most,Few,Many,None,All,Less than half,-0.477777766,-0.331481506,1,0,0,QQQ9,,,,,,,,English,2020-07-02_11h00.53.595,Experiment_English,3.2.4,Win32,60,,,1,0,340,248,1,339,ratio34_3_7_19.png,,,,,,,,,,,,
,,,,,,,,,,,,All,Some,Few,Most,None,Many,More than half,Less than half,Half,0.005555582,0.26666666,1,0,0,QQQ4,,,,,,,,English,2020-07-02_11h00.53.595,Experiment_English,3.2.4,Win32,60,,,1,0,340,338,1,339,ratio91_18_20_18.png,,,,,,,,,,,,
,,,,,,,,,,,,None,More than half,Less than half,All,Few,Some,Half,Most,Many,0.437963003,0.300925906,1,0,0,QQQ1,,,,,,,,English,2020-07-02_11h00.53.595,Experiment_English,3.2.4,Win32,60,,,1,0,340,67,1,339,ratio0Y_0_10_10.png,,,,,,,,,,,,
,,,,,,,,,,,,More than half,Less than half,Few,Many,Most,None,Some,All,Half,0.41111115,0.221296288,1,0,0,QQQ1,,,,,,,,English,2020-07-02_11h00.53.595,Experiment_English,3.2.4,Win32,60,,,1,0,340,27,1,339,ratio11_5_10_7.png,,,,,,,,,,,,
,,,,,,,,,,,,None,Less than half,Some,More than half,All,Few,Most,Many,Half,0.499074115,-0.350000025,1,0,0,QQQ3,,,,,,,,English,2020-07-02_11h00.53.595,Experiment_English,3.2.4,Win32,60,,,1,0,340,15,1,339,ratio12_5_15_5.png,,,,,,,,,,,,
,,,,,,,,,,,,Many,None,Most,Half,Some,More than half,Less than half,Few,All,0.027777805,-0.328703728,1,0,0,QQQ6,,,,,,,,English,2020-07-02_11h00.53.595,Experiment_English,3.2.4,Win32,60,,,1,0,340,225,1,339,ratio32_6_10_4.png,,,,,,,,,,,,
,,,,,,,,,,,,More than half,Half,Few,None,Some,Most,Many,Less than half,All,0.427777817,-0.020370386,1,0,0,QQQ2,,,,,,,,English,2020-07-02_11h00.53.595,Experiment_English,3.2.4,Win32,60,,,1,0,340,251,1,339,ratio34_6_14_2.png,,,,,,,,,,,,
,,,,,,,,,,,,Less than half,Few,None,More than half,Many,Some,Most,All,Half,-0.431481468,0.309259239,1,0,0,QQQ7,,,,,,,,English,2020-07-02_11h00.53.595,Experiment_English,3.2.4,Win32,60,,,1,0,340,50,1,339,ratioX0_12_12_3.png,,,,,,,,,,,,
,,,,,,,,,,,,Many,None,Some,All,Few,Most,Half,Less than half,More than half,-0.530555545,-0.012037052,1,0,0,QQQ8,,,,,,,,English,2020-07-02_11h00.53.595,Experiment_English,3.2.4,Win32,60,,,1,0,340,242,1,339,ratio34_3_7_6.png,,,,,,,,,,,,
,,,,,,,,,,,,More than half,All,Few,Many,Some,Half,Less than half,Most,None,-0.460185144,-0.022222238,1,0,0,QQQ8,,,,,,,,English,2020-07-02_11h00.53.595,Experiment_English,3.2.4,Win32,60,,,1,0,340,166,1,339,ratio21_6_9_1.png,,,,,,,,,,,,
,,,,,,,,,,,,Most,Many,More than half,Some,Few,None,All,Half,Less than half,0.016666694,-0.289814838,1,0,0,QQQ6,,,,,,,,English,2020-07-02_11h00.53.595,Experiment_English,3.2.4,Win32,60,,,1,0,340,68,1,339,ratio0Y_0_11_3.png,,,,,,,,,,,,
,,,,,,,,,,,,All,Few,Most,Some,More than half,Many,None,Half,Less than half,0.471296337,-0.276851932,1,0,0,QQQ3,,,,,,,,English,2020-07-02_11h00.53.595,Experiment_English,3.2.4,Win32,60,,,1,0,340,208,1,339,ratio31_9_12_3.png,,,,,,,,,,,,
,,,,,,,,,,,,Most,None,Many,Less than half,More than half,Some,Half,All,Few,0.431481521,0.26203703,1,0,0,QQQ1,,,,,,,,English,2020-07-02_11h00.53.595,Experiment_English,3.2.4,Win32,60,,,1,0,340,178,1,339,ratio21_12_18_2.png,,,,,,,,,,,,
,,,,,,,,,,,,None,Most,Less than half,Few,Half,All,More than half,Many,Some,-0.068518494,0.236111103,1,0,0,QQQ4,,,,,,,,English,2020-07-02_11h00.53.595,Experiment_English,3.2.4,Win32,60,,,1,0,340,142,1,339,ratio19_1_10_6.png,,,,,,,,,,,,
,,,,,,,,,,,,None,Many,Less than half,Some,Half,More than half,Most,All,Few,-0.456481469,0.279629623,1,0,0,QQQ7,,,,,,,,English,2020-07-02_11h00.53.595,Experiment_English,3.2.4,Win32,60,,,1,0,340,163,1,339,ratio21_4_6_1.png,,,,,,,,,,,,
,,,,,,,,,,,,Most,All,More than half,Less than half,Few,Many,None,Half,Some,-0.032407382,-0.238888911,1,0,0,QQQ6,,,,,,,,English,2020-07-02_11h00.53.595,Experiment_English,3.2.4,Win32,60,,,1,0,340,216,1,339,ratio31_15_20_3.png,,,,,,,,,,,,
,,,,,,,,,,,,Half,None,Most,Less than half,All,More than half,Some,Many,Few,0.480555596,-0.233333355,1,0,0,QQQ3,,,,,,,,English,2020-07-02_11h00.53.595,Experiment_English,3.2.4,Win32,60,,,1,0,340,202,1,339,ratio31_3_4_8.png,,,,,,,,,,,,
,,,,,,,,,,,,Some,All,None,Few,Most,More than half,Many,Half,Less than half,-0.123148069,-0.302777802,1,0,0,QQQ6,,,,,,,,English,2020-07-02_11h00.53.595,Experiment_English,3.2.4,Win32,60,,,1,0,340,224,1,339,ratio32_3_5_10.png,,,,,,,,,,,,
,,,,,,,,,,,,More than half,Most,Some,All,Half,Less than half,Many,Few,None,0.537037193,-0.011111126,1,0,0,QQQ2,,,,,,,,English,2020-07-02_11h00.53.595,Experiment_English,3.2.4,Win32,60,,,1,0,340,316,1,339,ratio51_15_18_11.png,,,,,,,,,,,,
,,,,,,,,,,,,Less than half,Few,None,Most,More than half,All,Some,Many,Half,-0.044444419,0.004629615,1,0,0,QQQ5,,,,,,,,English,2020-07-02_11h00.53.595,Experiment_English,3.2.4,Win32,60,,,1,0,340,239,1,339,ratio32_12_20_10.png,,,,,,,,,,,,
,,,,,,,,,,,,Half,All,Many,Few,Less than half,None,Some,More than half,Most,-0.461111098,0.023148134,1,0,0,QQQ8,,,,,,,,English,2020-07-02_11h00.53.595,Experiment_English,3.2.4,Win32,60,,,1,0,340,232,1,339,ratio32_9_15_8.png,0.287037072,-0.416666694,1,0,0,continue_button_pause,1,0,1,0,1,0
,,,,,,,,,,,,,,,,,,,,,,,,,,,,,,,,,,English,2020-07-02_11h00.53.595,Experiment_English,3.2.4,Win32,60,,,1,0,340,232,1,339,ratio32_9_15_8.png,,,,,,,,,,,,
,,,,,,,,,,,,Few,Many,Less than half,Some,More than half,All,None,Most,Half,0.500000041,0.007407393,1,0,0,QQQ2,,,,,,,,English,2020-07-02_11h00.53.595,Experiment_English,3.2.4,Win32,60,,,1,0,340,167,1,339,ratio21_6_9_2.png,,,,,,,,,,,,
,,,,,,,,,,,,Less than half,Half,Some,More than half,Many,Most,Few,All,None,0.062037065,0.039814801,1,0,0,QQQ5,,,,,,,,English,2020-07-02_11h00.53.595,Experiment_English,3.2.4,Win32,60,,,1,0,340,331,1,339,ratio91_18_20_3.png,,,,,,,,,,,,
,,,,,,,,,,,,More than half,Most,None,Many,Some,All,Less than half,Half,Few,0.013888916,0.229629622,1,0,0,QQQ4,,,,,,,,English,2020-07-02_11h00.53.595,Experiment_English,3.2.4,Win32,60,,,1,0,340,337,1,339,ratio91_18_20_16.png,,,,,,,,,,,,
,,,,,,,,,,,,Some,Most,Many,All,More than half,Half,None,Few,Less than half,0.477777819,-0.239814837,1,0,0,QQQ3,,,,,,,,English,2020-07-02_11h00.53.595,Experiment_English,3.2.4,Win32,60,,,1,0,340,172,1,339,ratio21_8_12_6.png,,,,,,,,,,,,
,,,,,,,,,,,,None,Half,Few,More than half,Less than half,Most,Many,Some,All,-0.062036956,-0.290740821,1,0,0,QQQ6,,,,,,,,English,2020-07-02_11h00.53.595,Experiment_English,3.2.4,Win32,60,,,1,0,340,302,1,339,ratio51_5_6_5.png,,,,,,,,,,,,
,,,,,,,,,,,,Less than half,Most,All,Few,Half,Many,Some,None,More than half,-0.053703622,0.255555548,1,0,0,QQQ4,,,,,,,,English,2020-07-02_11h00.53.595,Experiment_English,3.2.4,Win32,60,,,1,0,340,135,1,339,ratio15_3_18_7.png,,,,,,,,,,,,
,,,,,,,,,,,,Less than half,None,Most,Half,Few,All,Some,More than half,Many,-0.008333307,0.023148134,1,0,0,QQQ5,,,,,,,,English,2020-07-02_11h00.53.595,Experiment_English,3.2.4,Win32,60,,,1,0,340,138,1,339,ratio15_3_18_17.png,,,,,,,,,,,,
,,,,,,,,,,,,Half,More than half,All,Few,Many,Less than half,Most,None,Some,-0.530555545,0.316666661,1,0,0,QQQ7,,,,,,,,English,2020-07-02_11h00.53.595,Experiment_English,3.2.4,Win32,60,,,1,0,340,260,1,339,ratio41_4_5_2.png,,,,,,,,,,,,
,,,,,,,,,,,,Few,Most,All,Half,More than half,Less than half,Many,Some,None,-0.015740715,0.036111097,1,0,0,QQQ5,,,,,,,,English,2020-07-02_11h00.53.595,Experiment_English,3.2.4,Win32,60,,,1,0,340,231,1,339,ratio32_9_15_2.png,,,,,,,,,,,,
,,,,,,,,,,,,All,Few,Half,Some,More than half,None,Most,Less than half,Many,-0.015740715,0.036111097,1,0,0,QQQ5,,,,,,,,English,2020-07-02_11h00.53.595,Experiment_English,3.2.4,Win32,60,,,1,0,340,26,1,339,ratio11_5_10_4.png,,,,,,,,,,,,
,,,,,,,,,,,,More than half,Many,None,Most,Few,Half,Less than half,All,Some,-0.070370289,0.300925906,1,0,0,QQQ4,,,,,,,,English,2020-07-02_11h00.53.595,Experiment_English,3.2.4,Win32,60,,,1,0,340,211,1,339,ratio31_9_12_10.png,,,,,,,,,,,,
,,,,,,,,,,,,More than half,None,Few,Less than half,Most,All,Many,Some,Half,0.4842593,-0.292592616,1,0,0,QQQ3,,,,,,,,English,2020-07-02_11h00.53.595,Experiment_English,3.2.4,Win32,60,,,1,0,340,128,1,339,ratio15_2_12_8.png,,,,,,,,,,,,
,,,,,,,,,,,,Few,Less than half,More than half,Half,Some,Most,None,Many,All,0.442592632,-0.003703719,1,0,0,QQQ2,,,,,,,,English,2020-07-02_11h00.53.595,Experiment_English,3.2.4,Win32,60,,,1,0,340,241,1,339,ratio34_3_7_5.png,,,,,,,,,,,,
,,,,,,,,,,,,None,Few,All,Less than half,Some,More than half,Most,Half,Many,-0.03518516,0.018518504,1,0,0,QQQ5,,,,,,,,English,2020-07-02_11h00.53.595,Experiment_English,3.2.4,Win32,60,,,1,0,340,107,1,339,ratio14_2_10_5.png,,,,,,,,,,,,
,,,,,,,,,,,,Half,Few,All,More than half,Many,Some,Less than half,None,Most,-0.371296281,0.205555547,1,0,0,QQQ7,,,,,,,,English,2020-07-02_11h00.53.595,Experiment_English,3.2.4,Win32,60,,,1,0,340,198,1,339,ratio23_8_20_7.png,,,,,,,,,,,,
,,,,,,,,,,,,Many,Half,Some,None,Less than half,All,Few,Most,More than half,0.45462967,-0.289814838,1,0,0,QQQ3,,,,,,,,English,2020-07-02_11h00.53.595,Experiment_English,3.2.4,Win32,60,,,1,0,340,144,1,339,ratio19_1_10_11.png,,,,,,,,,,,,
,,,,,,,,,,,,All,Less than half,Most,Half,Some,More than half,None,Many,Few,-0.014814732,-0.029629645,1,0,0,QQQ5,,,,,,,,English,2020-07-02_11h00.53.595,Experiment_English,3.2.4,Win32,60,,,1,0,340,134,1,339,ratio15_3_18_5.png,,,,,,,,,,,,
,,,,,,,,,,,,None,Half,Some,More than half,Few,Less than half,Many,Most,All,-0.014814732,-0.33055558,1,0,0,QQQ6,,,,,,,,English,2020-07-02_11h00.53.595,Experiment_English,3.2.4,Win32,60,,,1,0,340,185,1,339,ratio23_4_10_1.png,,,,,,,,,,,,
,,,,,,,,,,,,None,More than half,Some,Half,Most,Many,Less than half,Few,All,-0.610185177,-0.348148173,1,0,0,QQQ9,,,,,,,,English,2020-07-02_11h00.53.595,Experiment_English,3.2.4,Win32,60,,,1,0,340,49,1,339,ratioX0_11_11_2.png,,,,,,,,,,,,
,,,,,,,,,,,,All,None,Few,More than half,Some,Less than half,Half,Many,Most,0.005555582,-0.017592608,1,0,0,QQQ5,,,,,,,,English,2020-07-02_11h00.53.595,Experiment_English,3.2.4,Win32,60,,,1,0,340,93,1,339,ratio13_4_16_7.png,,,,,,,,,,,,
,,,,,,,,,,,,All,Some,Most,Many,Half,None,More than half,Few,Less than half,0.37685189,-0.028703719,1,0,0,QQQ2,,,,,,,,English,2020-07-02_11h00.53.595,Experiment_English,3.2.4,Win32,60,,,1,0,340,190,1,339,ratio23_6_15_3.png,,,,,,,,,,,,
,,,,,,,,,,,,None,Many,More than half,All,Less than half,Some,Few,Half,Most,-0.451851811,-0.275925949,1,0,0,QQQ9,,,,,,,,English,2020-07-02_11h00.53.595,Experiment_English,3.2.4,Win32,60,,,1,0,340,264,1,339,ratio41_4_5_6.png,,,,,,,,,,,,
,,,,,,,,,,,,Many,Most,More than half,Some,All,None,Few,Less than half,Half,0.013888916,0.240740733,1,0,0,QQQ4,,,,,,,,English,2020-07-02_11h00.53.595,Experiment_English,3.2.4,Win32,60,,,1,0,340,4,1,339,ratio12_2_6_5.png,,,,,,,,,,,,
,,,,,,,,,,,,Half,Some,None,More than half,All,Few,Less than half,Many,Most,0.461111151,-0.013888904,1,0,0,QQQ2,,,,,,,,English,2020-07-02_11h00.53.595,Experiment_English,3.2.4,Win32,60,,,1,0,340,89,1,339,ratio13_3_12_6.png,,,,,,,,,,,,
,,,,,,,,,,,,Half,Many,All,None,Most,Less than half,More than half,Few,Some,-0.076851828,-0.001851867,1,0,0,QQQ5,,,,,,,,English,2020-07-02_11h00.53.595,Experiment_English,3.2.4,Win32,60,,,1,0,340,174,1,339,ratio21_10_15_1.png,,,,,,,,,,,,
,,,,,,,,,,,,Most,Few,All,Half,More than half,Less than half,Some,None,Many,-0.453703691,-0.030555571,1,0,0,QQQ8,,,,,,,,English,2020-07-02_11h00.53.595,Experiment_English,3.2.4,Win32,60,,,1,0,340,64,1,339,ratio0Y_0_7_1.png,,,,,,,,,,,,
,,,,,,,,,,,,Many,More than half,All,None,Most,Few,Some,Half,Less than half,0.08611114,0.048148135,1,0,0,QQQ5,,,,,,,,English,2020-07-02_11h00.53.595,Experiment_English,3.2.4,Win32,60,,,1,0,340,210,1,339,ratio31_9_12_9.png,,,,,,,,,,,,
,,,,,,,,,,,,Most,More than half,Many,None,Less than half,Few,Half,All,Some,-0.481481469,0.237962955,1,0,0,QQQ7,,,,,,,,English,2020-07-02_11h00.53.595,Experiment_English,3.2.4,Win32,60,,,1,0,340,197,1,339,ratio23_8_20_6.png,,,,,,,,,,,,
,,,,,,,,,,,,Most,Half,More than half,Less than half,Many,Some,None,All,Few,-0.012962937,0.337037032,1,0,0,QQQ4,,,,,,,,English,2020-07-02_11h00.53.595,Experiment_English,3.2.4,Win32,60,,,1,0,340,186,1,339,ratio23_4_10_2.png,,,,,,,,,,,,
,,,,,,,,,,,,Less than half,Many,All,None,Half,Some,Few,More than half,Most,-0.512962924,-0.037037053,1,0,0,QQQ8,,,,,,,,English,2020-07-02_11h00.53.595,Experiment_English,3.2.4,Win32,60,,,1,0,340,292,1,339,ratio43_8_14_6.png,,,,,,,,,,,,
,,,,,,,,,,,,More than half,Some,Half,None,Most,Less than half,Many,All,Few,0.559259415,0.018518504,1,0,0,QQQ2,,,,,,,,English,2020-07-02_11h00.53.595,Experiment_English,3.2.4,Win32,60,,,1,0,340,120,1,339,ratio15_1_6_1.png,,,,,,,,,,,,
,,,,,,,,,,,,Few,Many,More than half,Some,Less than half,Most,None,All,Half,-0.034259177,-0.028703719,1,0,0,QQQ5,,,,,,,,English,2020-07-02_11h00.53.595,Experiment_English,3.2.4,Win32,60,,,1,0,340,1,1,339,ratio12_1_3_7.png,,,,,,,,,,,,
,,,,,,,,,,,,More than half,Most,None,Many,Half,Some,Few,Less than half,All,0.006481508,-0.025925942,1,0,0,QQQ5,,,,,,,,English,2020-07-02_11h00.53.595,Experiment_English,3.2.4,Win32,60,,,1,0,340,22,1,339,ratio11_3_6_6.png,,,,,,,,,,,,
,,,,,,,,,,,,Half,None,Few,Less than half,Some,All,Many,Most,More than half,-0.470370358,-0.021296312,1,0,0,QQQ8,,,,,,,,English,2020-07-02_11h00.53.595,Experiment_English,3.2.4,Win32,60,,,1,0,340,334,1,339,ratio91_18_20_9.png,0.377777816,-0.36944447,1,0,0,continue_button_pause,1,0,1,0,1,0
,,,,,,,,,,,,,,,,,,,,,,,,,,,,,,,,,,English,2020-07-02_11h00.53.595,Experiment_English,3.2.4,Win32,60,,,1,0,340,334,1,339,ratio91_18_20_9.png,,,,,,,,,,,,
,,,,,,,,,,,,Some,None,Less than half,All,More than half,Few,Many,Most,Half,0.043518603,-0.000925941,1,0,0,QQQ5,,,,,,,,English,2020-07-02_11h00.53.595,Experiment_English,3.2.4,Win32,60,,,1,0,340,164,1,339,ratio21_4_6_6.png,,,,,,,,,,,,
,,,,,,,,,,,,Most,Half,Less than half,All,None,More than half,Many,Few,Some,-0.018518493,-0.29166669,1,0,0,QQQ6,,,,,,,,English,2020-07-02_11h00.53.595,Experiment_English,3.2.4,Win32,60,,,1,0,340,226,1,339,ratio32_6_10_5.png,,,,,,,,,,,,
,,,,,,,,,,,,All,Half,Some,Many,Less than half,None,More than half,Most,Few,0.015740824,0.009259245,1,0,0,QQQ5,,,,,,,,English,2020-07-02_11h00.53.595,Experiment_English,3.2.4,Win32,60,,,1,0,340,183,1,339,ratio23_2_5_9.png,,,,,,,,,,,,
,,,,,,,,,,,,Few,Some,All,Half,Less than half,None,Many,Most,More than half,-0.462962922,-0.037037053,1,0,0,QQQ8,,,,,,,,English,2020-07-02_11h00.53.595,Experiment_English,3.2.4,Win32,60,,,1,0,340,307,1,339,ratio51_10_12_1.png,,,,,,,,,,,,
,,,,,,,,,,,,Some,Half,Few,Many,All,Most,Less than half,None,More than half,-0.444444431,-0.259259282,1,0,0,QQQ9,,,,,,,,English,2020-07-02_11h00.53.595,Experiment_English,3.2.4,Win32,60,,,1,0,340,280,1,339,ratio43_4_7_2.png,,,,,,,,,,,,
,,,,,,,,,,,,All,Half,None,Most,More than half,Few,Less than half,Many,Some,-0.424074032,0.255555548,1,0,0,QQQ7,,,,,,,,English,2020-07-02_11h00.53.595,Experiment_English,3.2.4,Win32,60,,,1,0,340,196,1,339,ratio23_8_20_5.png,,,,,,,,,,,,
,,,,,,,,,,,,Most,None,All,Less than half,Few,More than half,Many,Some,Half,0.040740825,0.324999995,1,0,0,QQQ4,,,,,,,,English,2020-07-02_11h00.53.595,Experiment_English,3.2.4,Win32,60,,,1,0,340,193,1,339,ratio23_6_15_9.png,,,,,,,,,,,,
,,,,,,,,,,,,Less than half,Some,None,Few,Many,All,Most,Half,More than half,0.413888928,-0.335185267,1,0,0,QQQ3,,,,,,,,English,2020-07-02_11h00.53.595,Experiment_English,3.2.4,Win32,60,,,1,0,340,60,1,339,ratio0Y_0_3_5.png,,,,,,,,,,,,
,,,,,,,,,,,,All,More than half,None,Half,Some,Most,Few,Less than half,Many,-0.008333307,0.039814801,1,0,0,QQQ5,,,,,,,,English,2020-07-02_11h00.53.595,Experiment_English,3.2.4,Win32,60,,,1,0,340,145,1,339,ratio19_1_10_15.png,,,,,,,,,,,,
,,,,,,,,,,,,More than half,Less than half,Half,Some,Many,None,Few,Most,All,0.427777817,0.280555549,1,0,0,QQQ1,,,,,,,,English,2020-07-02_11h00.53.595,Experiment_English,3.2.4,Win32,60,,,1,0,340,220,1,339,ratio32_3_5_1.png,,,,,,,,,,,,
,,,,,,,,,,,,More than half,None,Some,Most,Many,Less than half,All,Few,Half,0.375000038,-0.320370395,1,0,0,QQQ3,,,,,,,,English,2020-07-02_11h00.53.595,Experiment_English,3.2.4,Win32,60,,,1,0,340,101,1,339,ratio14_1_5_7.png,,,,,,,,,,,,
,,,,,,,,,,,,None,More than half,Half,Most,Less than half,Few,Many,Some,All,0.471296337,-0.025000016,1,0,0,QQQ2,,,,,,,,English,2020-07-02_11h00.53.595,Experiment_English,3.2.4,Win32,60,,,1,0,340,222,1,339,ratio32_3_5_4.png,,,,,,,,,,,,
,,,,,,,,,,,,Many,Less than half,None,More than half,Half,Few,Most,All,Some,0.062962991,0.228703696,1,0,0,QQQ4,,,,,,,,English,2020-07-02_11h00.53.595,Experiment_English,3.2.4,Win32,60,,,1,0,340,39,1,339,ratio11_10_20_6.png,,,,,,,,,,,,
,,,,,,,,,,,,Most,Half,Some,None,More than half,Less than half,All,Many,Few,0.498148189,-0.242592615,1,0,0,QQQ3,,,,,,,,English,2020-07-02_11h00.53.595,Experiment_English,3.2.4,Win32,60,,,1,0,340,125,1,339,ratio15_1_6_19.png,,,,,,,,,,,,
,,,,,,,,,,,,Few,All,Some,Many,Most,None,Less than half,Half,More than half,0.476851893,-0.261111134,1,0,0,QQQ3,,,,,,,,English,2020-07-02_11h00.53.595,Experiment_English,3.2.4,Win32,60,,,1,0,340,158,1,339,ratio19_2_20_17.png,,,,,,,,,,,,
,,,,,,,,,,,,Few,Many,Some,Less than half,Most,More than half,All,None,Half,0.476851893,-0.261111134,1,0,0,QQQ3,,,,,,,,English,2020-07-02_11h00.53.595,Experiment_English,3.2.4,Win32,60,,,1,0,340,3,1,339,ratio12_2_6_3.png,,,,,,,,,,,,
,,,,,,,,,,,,Most,Half,All,Less than half,Many,None,Few,Some,More than half,-0.439814801,0.050925913,1,0,0,QQQ8,,,,,,,,English,2020-07-02_11h00.53.595,Experiment_English,3.2.4,Win32,60,,,1,0,340,91,1,339,ratio13_3_12_10.png,,,,,,,,,,,,
,,,,,,,,,,,,Few,Many,Half,None,Some,Less than half,Most,All,More than half,-0.441666653,-0.30092595,1,0,0,QQQ9,,,,,,,,English,2020-07-02_11h00.53.595,Experiment_English,3.2.4,Win32,60,,,1,0,340,162,1,339,ratio21_2_3_9.png,,,,,,,,,,,,
,,,,,,,,,,,,Few,Some,Less than half,All,Many,More than half,Half,None,Most,-0.018518493,-0.022222238,1,0,0,QQQ5,,,,,,,,English,2020-07-02_11h00.53.595,Experiment_English,3.2.4,Win32,60,,,1,0,340,336,1,339,ratio91_18_20_12.png,,,,,,,,,,,,
,,,,,,,,,,,,All,Most,Some,Half,Few,More than half,Less than half,None,Many,0.486111152,-0.244444467,1,0,0,QQQ3,,,,,,,,English,2020-07-02_11h00.53.595,Experiment_English,3.2.4,Win32,60,,,1,0,340,156,1,339,ratio19_2_20_14.png,,,,,,,,,,,,
,,,,,,,,,,,,None,Less than half,Most,Half,Few,Some,All,Many,More than half,0.091666696,-0.255555578,1,0,0,QQQ6,,,,,,,,English,2020-07-02_11h00.53.595,Experiment_English,3.2.4,Win32,60,,,1,0,340,149,1,339,ratio19_1_10_20.png,,,,,,,,,,,,
,,,,,,,,,,,,Less than half,None,Most,Few,More than half,All,Half,Some,Many,-0.059259178,-0.026851868,1,0,0,QQQ5,,,,,,,,English,2020-07-02_11h00.53.595,Experiment_English,3.2.4,Win32,60,,,1,0,340,221,1,339,ratio32_3_5_3.png,,,,,,,,,,,,
,,,,,,,,,,,,Half,Most,None,Some,Few,Many,All,More than half,Less than half,0.001851935,0.025925912,1,0,0,QQQ5,,,,,,,,English,2020-07-02_11h00.53.595,Experiment_English,3.2.4,Win32,60,,,1,0,340,133,1,339,ratio15_3_18_3.png,,,,,,,,,,,,
,,,,,,,,,,,,More than half,Few,Less than half,None,Many,Half,Some,Most,All,-0.521296257,-0.237037059,1,0,0,QQQ9,,,,,,,,English,2020-07-02_11h00.53.595,Experiment_English,3.2.4,Win32,60,,,1,0,340,47,1,339,ratioX0_9_9_4.png,,,,,,,,,,,,
,,,,,,,,,,,,None,Most,All,Half,Some,Less than half,Few,Many,More than half,-0.449074033,0.015740726,1,0,0,QQQ8,,,,,,,,English,2020-07-02_11h00.53.595,Experiment_English,3.2.4,Win32,60,,,1,0,340,278,1,339,ratio41_16_20_9.png,,,,,,,,,,,,
,,,,,,,,,,,,Few,None,Some,Less than half,Many,Half,More than half,Most,All,-0.449074033,0.015740726,1,0,0,QQQ8,,,,,,,,English,2020-07-02_11h00.53.595,Experiment_English,3.2.4,Win32,60,,,1,0,340,261,1,339,ratio41_4_5_3.png,,,,,,,,,,,,
,,,,,,,,,,,,All,Most,Some,More than half,Many,Few,Half,Less than half,None,0.543518561,-0.312963044,1,0,0,QQQ3,,,,,,,,English,2020-07-02_11h00.53.595,Experiment_English,3.2.4,Win32,60,,,1,0,340,140,1,339,ratio19_1_10_1.png,,,,,,,,,,,,
,,,,,,,,,,,,Most,Many,Less than half,None,Few,More than half,Some,All,Half,0.511111153,0.259259252,1,0,0,QQQ1,,,,,,,,English,2020-07-02_11h00.53.595,Experiment_English,3.2.4,Win32,60,,,1,0,340,203,1,339,ratio31_3_4_9.png,,,,,,,,,,,,
,,,,,,,,,,,,More than half,All,None,Most,Half,Many,Less than half,Some,Few,-0.052777753,0.231481473,1,0,0,QQQ4,,,,,,,,English,2020-07-02_11h00.53.595,Experiment_English,3.2.4,Win32,60,,,1,0,340,217,1,339,ratio31_15_20_5.png,,,,,,,,,,,,
,,,,,,,,,,,,Most,All,Some,More than half,Less than half,Half,None,Many,Few,0.37685189,0.272222215,1,0,0,QQQ1,,,,,,,,English,2020-07-02_11h00.53.595,Experiment_English,3.2.4,Win32,60,,,1,0,340,165,1,339,ratio21_4_6_10.png,,,,,,,,,,,,
,,,,,,,,,,,,More than half,Half,Most,None,Some,Many,Less than half,Few,All,0.452777818,-0.33055558,1,0,0,QQQ3,,,,,,,,English,2020-07-02_11h00.53.595,Experiment_English,3.2.4,Win32,60,,,1,0,340,294,1,339,ratio43_8_14_9.png,,,,,,,,,,,,
,,,,,,,,,,,,Less than half,Some,None,Many,Half,All,More than half,Few,Most,-0.456481469,-0.258333356,1,0,0,QQQ9,,,,,,,,English,2020-07-02_11h00.53.595,Experiment_English,3.2.4,Win32,60,,,1,0,340,274,1,339,ratio41_12_15_9.png,,,,,,,,,,,,
,,,,,,,,,,,,All,More than half,Half,Most,Less than half,None,Few,Some,Many,0.075925955,0.249999993,1,0,0,QQQ4,,,,,,,,English,2020-07-02_11h00.53.595,Experiment_English,3.2.4,Win32,60,,,1,0,340,329,1,339,ratio91_9_10_20.png,,,,,,,,,,,,
,,,,,,,,,,,,All,Half,Few,Some,Many,Less than half,Most,More than half,None,0.52777782,0.040740699,1,0,0,QQQ2,,,,,,,,English,2020-07-02_11h00.53.595,Experiment_English,3.2.4,Win32,60,,,1,0,340,37,1,339,ratio11_9_18_8.png,0.338888925,-0.37870373,1,0,0,continue_button_pause,1,0,1,0,1,0
,,,,,,,,,,,,,,,,,,,,,,,,,,,,,,,,,,English,2020-07-02_11h00.53.595,Experiment_English,3.2.4,Win32,60,,,1,0,340,37,1,339,ratio11_9_18_8.png,,,,,,,,,,,,
,,,,,,,,,,,,Few,More than half,Many,Some,Most,None,Half,All,Less than half,-0.022222196,0.274074067,1,0,0,QQQ4,,,,,,,,English,2020-07-02_11h00.53.595,Experiment_English,3.2.4,Win32,60,,,1,0,340,5,1,339,ratio12_2_6_9.png,,,,,,,,,,,,
,,,,,,,,,,,,Less than half,More than half,Some,Most,Many,None,Half,All,Few,0.536111154,-0.003703719,1,0,0,QQQ2,,,,,,,,English,2020-07-02_11h00.53.595,Experiment_English,3.2.4,Win32,60,,,1,0,340,285,1,339,ratio43_4_7_14.png,,,,,,,,,,,,
,,,,,,,,,,,,Less than half,All,More than half,Half,None,Few,Some,Many,Most,-0.062036956,-0.267592615,1,0,0,QQQ6,,,,,,,,English,2020-07-02_11h00.53.595,Experiment_English,3.2.4,Win32,60,,,1,0,340,119,1,339,ratio14_4_20_10.png,,,,,,,,,,,,
,,,,,,,,,,,,Half,Many,Less than half,Most,All,More than half,None,Some,Few,0.550926082,-0.347222247,1,0,0,QQQ3,,,,,,,,English,2020-07-02_11h00.53.595,Experiment_English,3.2.4,Win32,60,,,1,0,340,187,1,339,ratio23_4_10_5.png,,,,,,,,,,,,
,,,,,,,,,,,,All,Few,More than half,Some,None,Half,Less than half,Many,Most,0.521296338,-0.331481506,1,0,0,QQQ3,,,,,,,,English,2020-07-02_11h00.53.595,Experiment_English,3.2.4,Win32,60,,,1,0,340,290,1,339,ratio43_8_14_3.png,,,,,,,,,,,,
,,,,,,,,,,,,Many,More than half,Half,None,Most,All,Some,Less than half,Few,0.461111151,-0.06296298,1,0,0,QQQ2,,,,,,,,English,2020-07-02_11h00.53.595,Experiment_English,3.2.4,Win32,60,,,1,0,340,29,1,339,ratio11_6_12_1.png,,,,,,,,,,,,
,,,,,,,,,,,,Most,All,More than half,None,Few,Some,Less than half,Many,Half,0.425925965,-0.046296313,1,0,0,QQQ2,,,,,,,,English,2020-07-02_11h00.53.595,Experiment_English,3.2.4,Win32,60,,,1,0,340,56,1,339,ratioX0_17_17_10.png,,,,,,,,,,,,
,,,,,,,,,,,,All,Few,Most,Less than half,Many,More than half,None,Some,Half,-0.474074033,0.056481468,1,0,0,QQQ8,,,,,,,,English,2020-07-02_11h00.53.595,Experiment_English,3.2.4,Win32,60,,,1,0,340,9,1,339,ratio12_3_9_5.png,,,,,,,,,,,,
,,,,,,,,,,,,Less than half,Half,None,More than half,All,Most,Few,Many,Some,-0.561111101,-0.322222247,1,0,0,QQQ9,,,,,,,,English,2020-07-02_11h00.53.595,Experiment_English,3.2.4,Win32,60,,,1,0,340,104,1,339,ratio14_1_5_10.png,,,,,,,,,,,,
,,,,,,,,,,,,Few,Some,Less than half,All,Most,Half,More than half,None,Many,0.462963003,-0.005555571,1,0,0,QQQ2,,,,,,,,English,2020-07-02_11h00.53.595,Experiment_English,3.2.4,Win32,60,,,1,0,340,171,1,339,ratio21_8_12_4.png,,,,,,,,,,,,
,,,,,,,,,,,,None,Some,Few,Most,More than half,Many,Half,Less than half,All,0.481481522,0.242592585,1,0,0,QQQ1,,,,,,,,English,2020-07-02_11h00.53.595,Experiment_English,3.2.4,Win32,60,,,1,0,340,72,1,339,ratio0Y_0_13_4.png,,,,,,,,,,,,
,,,,,,,,,,,,All,Few,None,Less than half,Some,Most,Many,Half,More than half,-0.015740715,0.034259245,1,0,0,QQQ5,,,,,,,,English,2020-07-02_11h00.53.595,Experiment_English,3.2.4,Win32,60,,,1,0,340,114,1,339,ratio14_3_15_10.png,,,,,,,,,,,,
,,,,,,,,,,,,More than half,None,Few,Half,Most,All,Less than half,Many,Some,0.480555596,-0.029629645,1,0,0,QQQ2,,,,,,,,English,2020-07-02_11h00.53.595,Experiment_English,3.2.4,Win32,60,,,1,0,340,62,1,339,ratio0Y_0_5_4.png,,,,,,,,,,,,
,,,,,,,,,,,,Few,Some,All,More than half,Many,Most,Less than half,Half,None,-0.038888864,-0.303703728,1,0,0,QQQ6,,,,,,,,English,2020-07-02_11h00.53.595,Experiment_English,3.2.4,Win32,60,,,1,0,340,234,1,339,ratio32_9_15_10.png,,,,,,,,,,,,
,,,,,,,,,,,,None,Many,Few,Most,More than half,All,Half,Some,Less than half,-0.012036954,0.355555551,1,0,0,QQQ4,,,,,,,,English,2020-07-02_11h00.53.595,Experiment_English,3.2.4,Win32,60,,,1,0,340,304,1,339,ratio51_5_6_13.png,,,,,,,,,,,,
,,,,,,,,,,,,Less than half,All,None,Many,More than half,Half,Few,Some,Most,0.469444485,-0.321296377,1,0,0,QQQ3,,,,,,,,English,2020-07-02_11h00.53.595,Experiment_English,3.2.4,Win32,60,,,1,0,340,74,1,339,ratio0Y_0_15_10.png,,,,,,,,,,,,
,,,,,,,,,,,,All,Some,None,More than half,Half,Few,Less than half,Most,Many,0.522222264,0.245370363,1,0,0,QQQ1,,,,,,,,English,2020-07-02_11h00.53.595,Experiment_English,3.2.4,Win32,60,,,1,0,340,53,1,339,ratioX0_14_14_8.png,,,,,,,,,,,,
,,,,,,,,,,,,Most,Less than half,All,Many,Few,None,Some,More than half,Half,0.020370397,0.032407365,1,0,0,QQQ5,,,,,,,,English,2020-07-02_11h00.53.595,Experiment_English,3.2.4,Win32,60,,,1,0,340,113,1,339,ratio14_3_15_8.png,,,,,,,,,,,,
,,,,,,,,,,,,Many,Some,None,Less than half,Half,All,More than half,Few,Most,-0.076851828,-0.083333351,1,0,0,QQQ5,,,,,,,,English,2020-07-02_11h00.53.595,Experiment_English,3.2.4,Win32,60,,,1,0,340,245,1,339,ratio34_3_7_10.png,,,,,,,,,,,,
,,,,,,,,,,,,Half,Some,None,Many,All,More than half,Most,Few,Less than half,-0.510185146,-0.271296376,1,0,0,QQQ9,,,,,,,,English,2020-07-02_11h00.53.595,Experiment_English,3.2.4,Win32,60,,,1,0,340,180,1,339,ratio23_2_5_4.png,,,,,,,,,,,,
,,,,,,,,,,,,Half,None,Most,Some,Less than half,Few,All,More than half,Many,0.046296381,0.384259256,1,0,0,QQQ4,,,,,,,,English,2020-07-02_11h00.53.595,Experiment_English,3.2.4,Win32,60,,,1,0,340,143,1,339,ratio19_1_10_9.png,,,,,,,,,,,,
,,,,,,,,,,,,Less than half,All,Half,More than half,Some,None,Many,Most,Few,-0.453703691,0.235185177,1,0,0,QQQ7,,,,,,,,English,2020-07-02_11h00.53.595,Experiment_English,3.2.4,Win32,60,,,1,0,340,325,1,339,ratio91_9_10_8.png,,,,,,,,,,,,
,,,,,,,,,,,,Few,Some,Half,None,All,Less than half,More than half,Many,Most,-0.496296256,0.21851851,1,0,0,QQQ7,,,,,,,,English,2020-07-02_11h00.53.595,Experiment_English,3.2.4,Win32,60,,,1,0,340,25,1,339,ratio11_4_8_10.png,,,,,,,,,,,,
,,,,,,,,,,,,Some,Most,Less than half,More than half,All,Many,Half,None,Few,0.525925968,-0.395370397,1,0,0,QQQ3,,,,,,,,English,2020-07-02_11h00.53.595,Experiment_English,3.2.4,Win32,60,,,1,0,340,243,1,339,ratio34_3_7_8.png,,,,,,,,,,,,
,,,,,,,,,,,,More than half,Most,Half,Few,Less than half,None,Some,Many,All,-0.087962939,0.262962956,1,0,0,QQQ4,,,,,,,,English,2020-07-02_11h00.53.595,Experiment_English,3.2.4,Win32,60,,,1,0,340,115,1,339,ratio14_4_20_1.png,,,,,,,,,,,,
,,,,,,,,,,,,Most,Half,Some,None,All,Many,More than half,Less than half,Few,-0.493518478,0.076851811,1,0,0,QQQ8,,,,,,,,English,2020-07-02_11h00.53.595,Experiment_English,3.2.4,Win32,60,,,1,0,340,249,1,339,ratio34_3_7_20.png,,,,,,,,,,,,
,,,,,,,,,,,,More than half,Some,All,Few,Half,Most,Less than half,Many,None,-0.550925916,-0.320370395,1,0,0,QQQ9,,,,,,,,English,2020-07-02_11h00.53.595,Experiment_English,3.2.4,Win32,60,,,1,0,340,79,1,339,ratio0Y_0_20_4.png,,,,,,,,,,,,
,,,,,,,,,,,,Less than half,Many,More than half,Half,Few,Some,None,Most,All,-0.462037024,-0.006481497,1,0,0,QQQ8,,,,,,,,English,2020-07-02_11h00.53.595,Experiment_English,3.2.4,Win32,60,,,1,0,340,300,1,339,ratio51_5_6_1.png,,,,,,,,,,,,
,,,,,,,,,,,,All,None,Few,Most,Some,Half,Less than half,Many,More than half,-0.388888874,-0.224074152,1,0,0,QQQ9,,,,,,,,English,2020-07-02_11h00.53.595,Experiment_English,3.2.4,Win32,60,,,1,0,340,28,1,339,ratio11_5_10_9.png,,,,,,,,,,,,
,,,,,,,,,,,,Half,Some,All,None,Few,Many,More than half,Less than half,Most,0.587963007,-0.033333349,1,0,0,QQQ2,,,,,,,,English,2020-07-02_11h00.53.595,Experiment_English,3.2.4,Win32,60,,,1,0,340,82,1,339,ratio13_1_4_7.png,,,,,,,,,,,,
,,,,,,,,,,,,All,Many,None,Few,Less than half,Some,Half,More than half,Most,0.010185268,0.035185143,1,0,0,QQQ5,,,,,,,,English,2020-07-02_11h00.53.595,Experiment_English,3.2.4,Win32,60,,,1,0,340,195,1,339,ratio23_8_20_1.png,,,,,,,,,,,,
,,,,,,,,,,,,Less than half,None,Many,Half,Few,All,More than half,Most,Some,-0.499999988,0.297222216,1,0,0,QQQ7,,,,,,,,English,2020-07-02_11h00.53.595,Experiment_English,3.2.4,Win32,60,,,1,0,340,176,1,339,ratio21_10_15_3.png,,,,,,,,,,,,
,,,,,,,,,,,,None,Many,All,Some,Most,Less than half,More than half,Few,Half,-0.044444419,-0.041666683,1,0,0,QQQ5,,,,,,,,English,2020-07-02_11h00.53.595,Experiment_English,3.2.4,Win32,60,,,1,0,340,214,1,339,ratio31_12_16_5.png,,,,,,,,,,,,
,,,,,,,,,,,,All,None,Many,Some,Most,Half,Few,More than half,Less than half,0.543518561,-0.325925951,1,0,0,QQQ3,,,,,,,,English,2020-07-02_11h00.53.595,Experiment_English,3.2.4,Win32,60,,,1,0,340,305,1,339,ratio51_5_6_14.png,0.391666705,-0.400925953,1,0,0,continue_button_pause,1,0,1,0,1,0
,,,,,,,,,,,,,,,,,,,,,,,,,,,,,,,,,,English,2020-07-02_11h00.53.595,Experiment_English,3.2.4,Win32,60,,,1,0,340,305,1,339,ratio51_5_6_14.png,,,,,,,,,,,,
,,,,,,,,,,,,Most,None,Some,Half,More than half,Less than half,All,Few,Many,-0.084259179,-0.278703727,1,0,0,QQQ6,,,,,,,,English,2020-07-02_11h00.53.595,Experiment_English,3.2.4,Win32,60,,,1,0,340,258,1,339,ratio34_6_14_14.png,,,,,,,,,,,,
,,,,,,,,,,,,Few,Half,Many,None,Less than half,All,More than half,Some,Most,-0.012036954,0.004629615,1,0,0,QQQ5,,,,,,,,English,2020-07-02_11h00.53.595,Experiment_English,3.2.4,Win32,60,,,1,0,340,2,1,339,ratio12_1_3_10.png,,,,,,,,,,,,
,,,,,,,,,,,,None,Half,Most,More than half,Less than half,Some,Many,All,Few,0.422222261,-0.249074153,1,0,0,QQQ3,,,,,,,,English,2020-07-02_11h00.53.595,Experiment_English,3.2.4,Win32,60,,,1,0,340,215,1,339,ratio31_12_16_8.png,,,,,,,,,,,,
,,,,,,,,,,,,All,Many,Half,Some,Most,Few,Less than half,More than half,None,0.560185228,-0.259259282,1,0,0,QQQ3,,,,,,,,English,2020-07-02_11h00.53.595,Experiment_English,3.2.4,Win32,60,,,1,0,340,255,1,339,ratio34_6_14_10.png,,,,,,,,,,,,
,,,,,,,,,,,,Most,Few,Many,Less than half,All,More than half,Half,Some,None,0.491666708,-0.22685193,1,0,0,QQQ3,,,,,,,,English,2020-07-02_11h00.53.595,Experiment_English,3.2.4,Win32,60,,,1,0,340,212,1,339,ratio31_12_16_1.png,,,,,,,,,,,,
,,,,,,,,,,,,Most,Half,None,Few,Many,More than half,Some,All,Less than half,-0.505555544,0.249074067,1,0,0,QQQ7,,,,,,,,English,2020-07-02_11h00.53.595,Experiment_English,3.2.4,Win32,60,,,1,0,340,141,1,339,ratio19_1_10_2.png,,,,,,,,,,,,
,,,,,,,,,,,,Half,Few,Most,Some,All,None,Many,Less than half,More than half,0.068518547,-0.293518599,1,0,0,QQQ6,,,,,,,,English,2020-07-02_11h00.53.595,Experiment_English,3.2.4,Win32,60,,,1,0,340,71,1,339,ratio0Y_0_12_10.png,,,,,,,,,,,,
,,,,,,,,,,,,More than half,Many,Less than half,Few,Most,None,All,Half,Some,-0.492592581,0.250925919,1,0,0,QQQ7,,,,,,,,English,2020-07-02_11h00.53.595,Experiment_English,3.2.4,Win32,60,,,1,0,340,55,1,339,ratioX0_16_16_3.png,,,,,,,,,,,,
,,,,,,,,,,,,Most,More than half,Some,All,Many,None,Less than half,Few,Half,0.498148189,-0.26203706,1,0,0,QQQ3,,,,,,,,English,2020-07-02_11h00.53.595,Experiment_English,3.2.4,Win32,60,,,1,0,340,86,1,339,ratio13_2_8_6.png,,,,,,,,,,,,
,,,,,,,,,,,,All,Some,Half,None,Few,More than half,Less than half,Many,Most,-0.622222214,-0.314814839,1,0,0,QQQ9,,,,,,,,English,2020-07-02_11h00.53.595,Experiment_English,3.2.4,Win32,60,,,1,0,340,310,1,339,ratio51_10_12_12.png,,,,,,,,,,,,
,,,,,,,,,,,,All,Most,Half,More than half,Some,None,Less than half,Few,Many,0.029629714,0.326851847,1,0,0,QQQ4,,,,,,,,English,2020-07-02_11h00.53.595,Experiment_English,3.2.4,Win32,60,,,1,0,340,31,1,339,ratio11_6_12_9.png,,,,,,,,,,,,
,,,,,,,,,,,,Some,Most,All,Many,Half,Less than half,None,Few,More than half,-0.474999988,-0.26666669,1,0,0,QQQ9,,,,,,,,English,2020-07-02_11h00.53.595,Experiment_English,3.2.4,Win32,60,,,1,0,340,228,1,339,ratio32_6_10_7.png,,,,,,,,,,,,
,,,,,,,,,,,,Most,None,All,Less than half,Many,Some,More than half,Half,Few,0.420370409,-0.322222247,1,0,0,QQQ3,,,,,,,,English,2020-07-02_11h00.53.595,Experiment_English,3.2.4,Win32,60,,,1,0,340,45,1,339,ratioX0_8_8_3.png,,,,,,,,,,,,
,,,,,,,,,,,,More than half,None,Most,All,Less than half,Some,Few,Many,Half,0.044444472,-0.040740757,1,0,0,QQQ5,,,,,,,,English,2020-07-02_11h00.53.595,Experiment_English,3.2.4,Win32,60,,,1,0,340,6,1,339,ratio12_3_9_1.png,,,,,,,,,,,,
,,,,,,,,,,,,Most,More than half,Some,Many,None,All,Less than half,Few,Half,-0.374999985,0.255555548,1,0,0,QQQ7,,,,,,,,English,2020-07-02_11h00.53.595,Experiment_English,3.2.4,Win32,60,,,1,0,340,18,1,339,ratio12_6_18_7.png,,,,,,,,,,,,
,,,,,,,,,,,,More than half,Less than half,Few,All,Half,Most,Many,None,Some,0.007407491,-0.306481506,1,0,0,QQQ6,,,,,,,,English,2020-07-02_11h00.53.595,Experiment_English,3.2.4,Win32,60,,,1,0,340,268,1,339,ratio41_8_10_5.png,,,,,,,,,,,,
,,,,,,,,,,,,Some,More than half,Most,All,Less than half,Many,None,Few,Half,0.468518559,0.271296289,1,0,0,QQQ1,,,,,,,,English,2020-07-02_11h00.53.595,Experiment_English,3.2.4,Win32,60,,,1,0,340,137,1,339,ratio15_3_18_16.png,,,,,,,,,,,,
,,,,,,,,,,,,More than half,None,Many,Half,Some,Most,Few,Less than half,All,0.006481508,-1.4912E-08,1,0,0,QQQ5,,,,,,,,English,2020-07-02_11h00.53.595,Experiment_English,3.2.4,Win32,60,,,1,0,340,109,1,339,ratio14_2_10_9.png,,,,,,,,,,,,
,,,,,,,,,,,,None,Few,More than half,Half,Many,Some,Most,All,Less than half,0.476851893,0.269444438,1,0,0,QQQ1,,,,,,,,English,2020-07-02_11h00.53.595,Experiment_English,3.2.4,Win32,60,,,1,0,340,70,1,339,ratio0Y_0_12_5.png,,,,,,,,,,,,
,,,,,,,,,,,,Few,More than half,None,Half,Less than half,Most,Many,All,Some,-0.444444431,0.237037029,1,0,0,QQQ7,,,,,,,,English,2020-07-02_11h00.53.595,Experiment_English,3.2.4,Win32,60,,,1,0,340,326,1,339,ratio91_9_10_10.png,,,,,,,,,,,,
,,,,,,,,,,,,Few,Most,All,Less than half,Half,Many,None,Some,More than half,-0.027777752,-0.022222238,1,0,0,QQQ5,,,,,,,,English,2020-07-02_11h00.53.595,Experiment_English,3.2.4,Win32,60,,,1,0,340,21,1,339,ratio11_2_4_10.png,,,,,,,,,,,,
,,,,,,,,,,,,Some,None,Half,Many,Less than half,All,More than half,Few,Most,-0.514814804,0.311111105,1,0,0,QQQ7,,,,,,,,English,2020-07-02_11h00.53.595,Experiment_English,3.2.4,Win32,60,,,1,0,340,283,1,339,ratio43_4_7_8.png,,,,,,,,,,,,
,,,,,,,,,,,,All,Many,Less than half,Most,More than half,Few,None,Some,Half,-0.050925844,0.018518504,1,0,0,QQQ5,,,,,,,,English,2020-07-02_11h00.53.595,Experiment_English,3.2.4,Win32,60,,,1,0,340,252,1,339,ratio34_6_14_3.png,,,,,,,,,,,,
,,,,,,,,,,,,None,All,Most,Many,Half,Few,More than half,Some,Less than half,-0.5111111,-0.012037052,1,0,0,QQQ8,,,,,,,,English,2020-07-02_11h00.53.595,Experiment_English,3.2.4,Win32,60,,,1,0,340,95,1,339,ratio13_4_16_10.png,,,,,,,,,,,,
,,,,,,,,,,,,Few,None,All,Some,More than half,Many,Less than half,Most,Half,0.052777806,0.228703696,1,0,0,QQQ4,,,,,,,,English,2020-07-02_11h00.53.595,Experiment_English,3.2.4,Win32,60,,,1,0,340,110,1,339,ratio14_3_15_2.png,,,,,,,,,,,,
,,,,,,,,,,,,None,Many,Less than half,Most,More than half,Some,Few,Half,All,-0.076851828,0.253703696,1,0,0,QQQ4,,,,,,,,English,2020-07-02_11h00.53.595,Experiment_English,3.2.4,Win32,60,,,1,0,340,263,1,339,ratio41_4_5_5.png,,,,,,,,,,,,
,,,,,,,,,,,,None,Less than half,Half,More than half,Some,All,Most,Few,Many,0.075925955,-0.275000023,1,0,0,QQQ6,,,,,,,,English,2020-07-02_11h00.53.595,Experiment_English,3.2.4,Win32,60,,,1,0,340,59,1,339,ratioX0_20_20_9.png,,,,,,,,,,,,
,,,,,,,,,,,,Some,All,None,Few,Most,Half,Less than half,Many,More than half,-0.430555542,0.022222208,1,0,0,QQQ8,,,,,,,,English,2020-07-02_11h00.53.595,Experiment_English,3.2.4,Win32,60,,,1,0,340,330,1,339,ratio91_18_20_2.png,,,,,,,,,,,,
,,,,,,,,,,,,More than half,Few,None,Less than half,Many,Some,All,Most,Half,-0.047222197,0.0148148,1,0,0,QQQ5,,,,,,,,English,2020-07-02_11h00.53.595,Experiment_English,3.2.4,Win32,60,,,1,0,340,175,1,339,ratio21_10_15_2.png,,,,,,,,,,,,
,,,,,,,,,,,,Most,Half,Few,Less than half,All,More than half,None,Some,Many,-0.447222209,-0.296296377,1,0,0,QQQ9,,,,,,,,English,2020-07-02_11h00.53.595,Experiment_English,3.2.4,Win32,60,,,1,0,340,169,1,339,ratio21_6_9_7.png,,,,,,,,,,,,
,,,,,,,,,,,,All,Some,None,Most,Half,Less than half,More than half,Many,Few,0.007407491,-0.275925949,1,0,0,QQQ6,,,,,,,,English,2020-07-02_11h00.53.595,Experiment_English,3.2.4,Win32,60,,,1,0,340,194,1,339,ratio23_6_15_10.png,,,,,,,,,,,,
,,,,,,,,,,,,More than half,Many,All,Few,Some,None,Most,Half,Less than half,-0.383333318,-0.257407486,1,0,0,QQQ9,,,,,,,,English,2020-07-02_11h00.53.595,Experiment_English,3.2.4,Win32,60,,,1,0,340,80,1,339,ratio13_1_4_3.png,,,,,,,,,,,,
,,,,,,,,,,,,All,Few,Some,Many,More than half,Half,None,Less than half,Most,0.023148175,-0.326851933,1,0,0,QQQ6,,,,,,,,English,2020-07-02_11h00.53.595,Experiment_English,3.2.4,Win32,60,,,1,0,340,237,1,339,ratio32_12_20_5.png,,,,,,,,,,,,
,,,,,,,,,,,,None,All,Some,Less than half,More than half,Few,Many,Half,Most,0.510185227,-0.28703706,1,0,0,QQQ3,,,,,,,,English,2020-07-02_11h00.53.595,Experiment_English,3.2.4,Win32,60,,,1,0,340,90,1,339,ratio13_3_12_7.png,0.391666705,-0.413888916,1,0,0,continue_button_pause,1,0,1,0,1,0
,,,,,,,,,,,,,,,,,,,,,,,,,,,,,,,,,,English,2020-07-02_11h00.53.595,Experiment_English,3.2.4,Win32,60,,,1,0,340,90,1,339,ratio13_3_12_7.png,,,,,,,,,,,,
,,,,,,,,,,,,Half,Some,Most,All,Few,Many,Less than half,None,More than half,0.038888917,-0.289814838,1,0,0,QQQ6,,,,,,,,English,2020-07-02_11h00.53.595,Experiment_English,3.2.4,Win32,60,,,1,0,340,267,1,339,ratio41_8_10_4.png,,,,,,,,,,,,
,,,,,,,,,,,,All,More than half,Many,Some,Less than half,None,Few,Half,Most,0.555555599,-0.275925949,1,0,0,QQQ3,,,,,,,,English,2020-07-02_11h00.53.595,Experiment_English,3.2.4,Win32,60,,,1,0,340,209,1,339,ratio31_9_12_6.png,,,,,,,,,,,,
,,,,,,,,,,,,Half,All,Most,Less than half,Some,Many,More than half,Few,None,0.443518558,-0.296296377,1,0,0,QQQ3,,,,,,,,English,2020-07-02_11h00.53.595,Experiment_English,3.2.4,Win32,60,,,1,0,340,317,1,339,ratio51_15_18_13.png,,,,,,,,,,,,
,,,,,,,,,,,,Some,All,Many,Less than half,Few,More than half,Half,None,Most,0.408333372,-0.064814832,1,0,0,QQQ2,,,,,,,,English,2020-07-02_11h00.53.595,Experiment_English,3.2.4,Win32,60,,,1,0,340,57,1,339,ratioX0_18_18_1.png,,,,,,,,,,,,
,,,,,,,,,,,,More than half,All,Half,Few,Some,Less than half,Most,Many,None,0.485185226,0.321296291,1,0,0,QQQ1,,,,,,,,English,2020-07-02_11h00.53.595,Experiment_English,3.2.4,Win32,60,,,1,0,340,236,1,339,ratio32_12_20_2.png,,,,,,,,,,,,
,,,,,,,,,,,,Less than half,None,All,Some,Half,More than half,Many,Few,Most,-0.509259248,-0.33981484,1,0,0,QQQ9,,,,,,,,English,2020-07-02_11h00.53.595,Experiment_English,3.2.4,Win32,60,,,1,0,340,277,1,339,ratio41_16_20_8.png,,,,,,,,,,,,
,,,,,,,,,,,,Few,All,Half,More than half,Some,Less than half,None,Many,Most,-0.079629606,-0.256481504,1,0,0,QQQ6,,,,,,,,English,2020-07-02_11h00.53.595,Experiment_English,3.2.4,Win32,60,,,1,0,340,253,1,339,ratio34_6_14_5.png,,,,,,,,,,,,
,,,,,,,,,,,,All,Less than half,None,Half,Most,Many,Some,More than half,Few,0.04259262,-0.064814832,1,0,0,QQQ5,,,,,,,,English,2020-07-02_11h00.53.595,Experiment_English,3.2.4,Win32,60,,,1,0,340,206,1,339,ratio31_6_8_6.png,,,,,,,,,,,,
,,,,,,,,,,,,Many,All,Less than half,Some,More than half,None,Few,Half,Most,-0.414814801,-0.313888913,1,0,0,QQQ9,,,,,,,,English,2020-07-02_11h00.53.595,Experiment_English,3.2.4,Win32,60,,,1,0,340,312,1,339,ratio51_10_12_16.png,,,,,,,,,,,,
,,,,,,,,,,,,Less than half,None,Half,Most,Few,Many,More than half,Some,All,0.448148188,0.256481474,1,0,0,QQQ1,,,,,,,,English,2020-07-02_11h00.53.595,Experiment_English,3.2.4,Win32,60,,,1,0,340,246,1,339,ratio34_3_7_11.png,,,,,,,,,,,,
,,,,,,,,,,,,Less than half,Few,All,Half,Some,None,More than half,Most,Many,0.012963046,0.009259245,1,0,0,QQQ5,,,,,,,,English,2020-07-02_11h00.53.595,Experiment_English,3.2.4,Win32,60,,,1,0,340,157,1,339,ratio19_2_20_16.png,,,,,,,,,,,,
,,,,,,,,,,,,Some,Most,Many,All,Half,None,More than half,Less than half,Few,0.554629673,0.373148144,1,0,0,QQQ1,,,,,,,,English,2020-07-02_11h00.53.595,Experiment_English,3.2.4,Win32,60,,,1,0,340,126,1,339,ratio15_2_12_1.png,,,,,,,,,,,,
,,,,,,,,,,,,More than half,Many,Less than half,Half,Some,All,None,Most,Few,0.507407449,-0.009259274,1,0,0,QQQ2,,,,,,,,English,2020-07-02_11h00.53.595,Experiment_English,3.2.4,Win32,60,,,1,0,340,266,1,339,ratio41_8_10_2.png,,,,,,,,,,,,
,,,,,,,,,,,,All,Many,None,Few,Half,Some,Most,More than half,Less than half,0.450925966,-0.273148171,1,0,0,QQQ3,,,,,,,,English,2020-07-02_11h00.53.595,Experiment_English,3.2.4,Win32,60,,,1,0,340,77,1,339,ratio0Y_0_18_3.png,,,,,,,,,,,,
,,,,,,,,,,,,Few,Half,Many,Less than half,Most,More than half,None,All,Some,-0.03055553,-0.30092595,1,0,0,QQQ6,,,,,,,,English,2020-07-02_11h00.53.595,Experiment_English,3.2.4,Win32,60,,,1,0,340,298,1,339,ratio43_8_14_14.png,,,,,,,,,,,,
,,,,,,,,,,,,Most,More than half,All,Many,None,Some,Less than half,Half,Few,-0.469444432,-0.273148171,1,0,0,QQQ9,,,,,,,,English,2020-07-02_11h00.53.595,Experiment_English,3.2.4,Win32,60,,,1,0,340,118,1,339,ratio14_4_20_8.png,,,,,,,,,,,,
,,,,,,,,,,,,All,None,Less than half,Some,Most,More than half,Few,Half,Many,-0.001851825,-0.285185265,1,0,0,QQQ6,,,,,,,,English,2020-07-02_11h00.53.595,Experiment_English,3.2.4,Win32,60,,,1,0,340,288,1,339,ratio43_4_7_18.png,,,,,,,,,,,,
,,,,,,,,,,,,Most,More than half,Many,Less than half,Few,None,Some,All,Half,-0.492592581,0.243518511,1,0,0,QQQ7,,,,,,,,English,2020-07-02_11h00.53.595,Experiment_English,3.2.4,Win32,60,,,1,0,340,100,1,339,ratio14_1_5_3.png,,,,,,,,,,,,
,,,,,,,,,,,,Some,Less than half,All,More than half,Few,Half,Most,Many,None,-0.475925914,-0.2527778,1,0,0,QQQ9,,,,,,,,English,2020-07-02_11h00.53.595,Experiment_English,3.2.4,Win32,60,,,1,0,340,73,1,339,ratio0Y_0_14_7.png,,,,,,,,,,,,
,,,,,,,,,,,,More than half,All,Few,Less than half,Half,Some,Most,None,Many,0.475925967,-0.026851868,1,0,0,QQQ2,,,,,,,,English,2020-07-02_11h00.53.595,Experiment_English,3.2.4,Win32,60,,,1,0,340,46,1,339,ratioX0_9_9_3.png,,,,,,,,,,,,
,,,,,,,,,,,,All,Less than half,None,Most,Some,Few,Half,Many,More than half,0.009259286,-0.036111127,1,0,0,QQQ5,,,,,,,,English,2020-07-02_11h00.53.595,Experiment_English,3.2.4,Win32,60,,,1,0,340,105,1,339,ratio14_2_10_1.png,,,,,,,,,,,,
,,,,,,,,,,,,More than half,Half,None,Some,Many,All,Few,Less than half,Most,0.502777819,0.362037033,1,0,0,QQQ1,,,,,,,,English,2020-07-02_11h00.53.595,Experiment_English,3.2.4,Win32,60,,,1,0,340,230,1,339,ratio32_9_15_1.png,,,,,,,,,,,,
,,,,,,,,,,,,Less than half,All,More than half,Many,None,Few,Most,Half,Some,0.444444484,-0.314814839,1,0,0,QQQ3,,,,,,,,English,2020-07-02_11h00.53.595,Experiment_English,3.2.4,Win32,60,,,1,0,340,233,1,339,ratio32_9_15_9.png,,,,,,,,,,,,
,,,,,,,,,,,,Less than half,All,Few,Half,Most,Many,None,Some,More than half,-0.417592579,-0.08796298,1,0,0,QQQ8,,,,,,,,English,2020-07-02_11h00.53.595,Experiment_English,3.2.4,Win32,60,,,1,0,340,111,1,339,ratio14_3_15_3.png,,,,,,,,,,,,
,,,,,,,,,,,,Many,More than half,None,Most,Few,Less than half,Some,Half,All,0.529629672,0.284259239,1,0,0,QQQ1,,,,,,,,English,2020-07-02_11h00.53.595,Experiment_English,3.2.4,Win32,60,,,1,0,340,327,1,339,ratio91_9_10_11.png,,,,,,,,,,,,
,,,,,,,,,,,,Most,Many,None,Less than half,Few,Some,All,More than half,Half,0.12962966,-0.29166669,1,0,0,QQQ6,,,,,,,,English,2020-07-02_11h00.53.595,Experiment_English,3.2.4,Win32,60,,,1,0,340,131,1,339,ratio15_2_12_14.png,,,,,,,,,,,,
,,,,,,,,,,,,All,Most,Few,More than half,Less than half,Many,None,Some,Half,-0.533333323,0.258333326,1,0,0,QQQ7,,,,,,,,English,2020-07-02_11h00.53.595,Experiment_English,3.2.4,Win32,60,,,1,0,340,66,1,339,ratio0Y_0_9_8.png,,,,,,,,,,,,
,,,,,,,,,,,,None,Many,Half,Less than half,Most,All,Some,Few,More than half,-0.006481399,0.037037023,1,0,0,QQQ5,,,,,,,,English,2020-07-02_11h00.53.595,Experiment_English,3.2.4,Win32,60,,,1,0,340,311,1,339,ratio51_10_12_14.png,,,,,,,,,,,,
,,,,,,,,,,,,Some,None,Less than half,Many,Few,All,Most,More than half,Half,0.490740782,0.009259245,1,0,0,QQQ2,,,,,,,,English,2020-07-02_11h00.53.595,Experiment_English,3.2.4,Win32,60,,,1,0,340,78,1,339,ratio0Y_0_19_1.png,,,,,,,,,,,,
,,,,,,,,,,,,None,Half,Some,More than half,Few,Less than half,All,Most,Many,-0.494444433,-0.255555578,1,0,0,QQQ9,,,,,,,,English,2020-07-02_11h00.53.595,Experiment_English,3.2.4,Win32,60,,,1,0,340,271,1,339,ratio41_12_15_6.png,,,,,,,,,,,,
,,,,,,,,,,,,All,Half,Most,Few,More than half,Less than half,Many,None,Some,0.030555583,0.281481461,1,0,0,QQQ4,,,,,,,,English,2020-07-02_11h00.53.595,Experiment_English,3.2.4,Win32,60,,,1,0,340,98,1,339,ratio13_5_20_3.png,,,,,,,,,,,,
,,,,,,,,,,,,Less than half,Some,All,Most,None,Many,Half,Few,More than half,0.462963003,-0.018518534,1,0,0,QQQ2,,,,,,,,English,2020-07-02_11h00.53.595,Experiment_English,3.2.4,Win32,60,,,1,0,340,132,1,339,ratio15_2_12_16.png,,,,,,,,,,,,
,,,,,,,,,,,,All,More than half,None,Many,Half,Few,Some,Most,Less than half,-0.541666656,-0.075000017,1,0,0,QQQ8,,,,,,,,English,2020-07-02_11h00.53.595,Experiment_English,3.2.4,Win32,60,,,1,0,340,219,1,339,ratio31_15_20_10.png,,,,,,,,,,,,
,,,,,,,,,,,,Few,All,Most,More than half,Some,None,Many,Less than half,Half,-0.028703622,-0.325000025,1,0,0,QQQ6,,,,,,,,English,2020-07-02_11h00.53.595,Experiment_English,3.2.4,Win32,60,,,1,0,340,76,1,339,ratio0Y_0_17_10.png,0.423148187,-0.411111138,1,0,0,continue_button_pause,1,0,1,0,1,0
,,,,,,,,,,,,,,,,,,,,,,,,,,,,,,,,,,English,2020-07-02_11h00.53.595,Experiment_English,3.2.4,Win32,60,,,1,0,340,76,1,339,ratio0Y_0_17_10.png,,,,,,,,,,,,
,,,,,,,,,,,,Half,More than half,None,Many,Some,All,Less than half,Few,Most,0.481481522,-0.023148164,1,0,0,QQQ2,,,,,,,,English,2020-07-02_11h00.53.595,Experiment_English,3.2.4,Win32,60,,,1,0,340,281,1,339,ratio43_4_7_4.png,,,,,,,,,,,,
,,,,,,,,,,,,Less than half,Some,None,All,Few,Many,Half,Most,More than half,0.507407449,0.29629629,1,0,0,QQQ1,,,,,,,,English,2020-07-02_11h00.53.595,Experiment_English,3.2.4,Win32,60,,,1,0,340,189,1,339,ratio23_4_10_8.png,,,,,,,,,,,,
,,,,,,,,,,,,Some,None,All,Half,Less than half,Most,Few,Many,More than half,0.012963046,0.229629622,1,0,0,QQQ4,,,,,,,,English,2020-07-02_11h00.53.595,Experiment_English,3.2.4,Win32,60,,,1,0,340,291,1,339,ratio43_8_14_5.png,,,,,,,,,,,,
,,,,,,,,,,,,More than half,Many,Few,Some,None,Less than half,Half,Most,All,0.014814842,-0.301851932,1,0,0,QQQ6,,,,,,,,English,2020-07-02_11h00.53.595,Experiment_English,3.2.4,Win32,60,,,1,0,340,13,1,339,ratio12_5_15_3.png,,,,,,,,,,,,
,,,,,,,,,,,,Some,All,Few,Many,Most,Half,More than half,None,Less than half,0.502777819,0.245370363,1,0,0,QQQ1,,,,,,,,English,2020-07-02_11h00.53.595,Experiment_English,3.2.4,Win32,60,,,1,0,340,136,1,339,ratio15_3_18_8.png,,,,,,,,,,,,
,,,,,,,,,,,,Some,More than half,Many,None,Most,Half,Few,Less than half,All,0.448148188,0.265740734,1,0,0,QQQ1,,,,,,,,English,2020-07-02_11h00.53.595,Experiment_English,3.2.4,Win32,60,,,1,0,340,121,1,339,ratio15_1_6_4.png,,,,,,,,,,,,
,,,,,,,,,,,,All,Few,None,Most,Some,Half,More than half,Less than half,Many,-0.368518503,-0.230555577,1,0,0,QQQ9,,,,,,,,English,2020-07-02_11h00.53.595,Experiment_English,3.2.4,Win32,60,,,1,0,340,339,1,339,ratio91_18_20_19.png,,,,,,,,,,,,
,,,,,,,,,,,,None,Less than half,More than half,Some,Few,Most,Many,Half,All,0.482407448,-0.325925951,1,0,0,QQQ3,,,,,,,,English,2020-07-02_11h00.53.595,Experiment_English,3.2.4,Win32,60,,,1,0,340,238,1,339,ratio32_12_20_9.png,,,,,,,,,,,,
,,,,,,,,,,,,Few,None,Some,Most,More than half,Half,Many,Less than half,All,0.486111152,0.050925913,1,0,0,QQQ2,,,,,,,,English,2020-07-02_11h00.53.595,Experiment_English,3.2.4,Win32,60,,,1,0,340,65,1,339,ratio0Y_0_8_4.png,,,,,,,,,,,,
,,,,,,,,,,,,Half,None,All,Less than half,Most,Few,More than half,Many,Some,-0.053703622,-0.33055558,1,0,0,QQQ6,,,,,,,,English,2020-07-02_11h00.53.595,Experiment_English,3.2.4,Win32,60,,,1,0,340,8,1,339,ratio12_3_9_4.png,,,,,,,,,,,,
,,,,,,,,,,,,Less than half,All,Some,Few,Half,Many,None,Most,More than half,-0.515740701,-0.327777802,1,0,0,QQQ9,,,,,,,,English,2020-07-02_11h00.53.595,Experiment_English,3.2.4,Win32,60,,,1,0,340,173,1,339,ratio21_8_12_9.png,,,,,,,,,,,,
,,,,,,,,,,,,Few,Half,Some,Less than half,Most,All,Many,More than half,None,0.475925967,0.21388888,1,0,0,QQQ1,,,,,,,,English,2020-07-02_11h00.53.595,Experiment_English,3.2.4,Win32,60,,,1,0,340,11,1,339,ratio12_4_12_7.png,,,,,,,,,,,,
,,,,,,,,,,,,None,Some,All,Most,More than half,Less than half,Many,Half,Few,-0.463888876,0.263888882,1,0,0,QQQ7,,,,,,,,English,2020-07-02_11h00.53.595,Experiment_English,3.2.4,Win32,60,,,1,0,340,313,1,339,ratio51_15_18_2.png,,,,,,,,,,,,
,,,,,,,,,,,,Some,None,Half,Many,More than half,Most,All,Less than half,Few,0.472222263,0.022222208,1,0,0,QQQ2,,,,,,,,English,2020-07-02_11h00.53.595,Experiment_English,3.2.4,Win32,60,,,1,0,340,75,1,339,ratio0Y_0_16_10.png,,,,,,,,,,,,
,,,,,,,,,,,,Most,Some,More than half,Few,All,Half,Less than half,None,Many,0.545370526,0.372222218,1,0,0,QQQ1,,,,,,,,English,2020-07-02_11h00.53.595,Experiment_English,3.2.4,Win32,60,,,1,0,340,306,1,339,ratio51_5_6_18.png,,,,,,,,,,,,
,,,,,,,,,,,,Less than half,More than half,Some,All,Most,Few,Half,Many,None,0.52314819,-0.243518597,1,0,0,QQQ3,,,,,,,,English,2020-07-02_11h00.53.595,Experiment_English,3.2.4,Win32,60,,,1,0,340,146,1,339,ratio19_1_10_17.png,,,,,,,,,,,,
,,,,,,,,,,,,Many,More than half,Half,Most,Less than half,Few,Some,None,All,0.487963004,-0.044444461,1,0,0,QQQ2,,,,,,,,English,2020-07-02_11h00.53.595,Experiment_English,3.2.4,Win32,60,,,1,0,340,160,1,339,ratio21_2_3_2.png,,,,,,,,,,,,
,,,,,,,,,,,,Less than half,None,Many,Few,More than half,Half,All,Most,Some,0.499074115,0.248148141,1,0,0,QQQ1,,,,,,,,English,2020-07-02_11h00.53.595,Experiment_English,3.2.4,Win32,60,,,1,0,340,182,1,339,ratio23_2_5_7.png,,,,,,,,,,,,
,,,,,,,,,,,,More than half,Some,Few,None,Most,Half,All,Less than half,Many,0.429629669,-0.02407409,1,0,0,QQQ2,,,,,,,,English,2020-07-02_11h00.53.595,Experiment_English,3.2.4,Win32,60,,,1,0,340,108,1,339,ratio14_2_10_6.png,,,,,,,,,,,,
,,,,,,,,,,,,Some,All,More than half,Many,Half,None,Less than half,Few,Most,-0.007407381,-0.309259283,1,0,0,QQQ6,,,,,,,,English,2020-07-02_11h00.53.595,Experiment_English,3.2.4,Win32,60,,,1,0,340,69,1,339,ratio0Y_0_11_6.png,,,,,,,,,,,,
,,,,,,,,,,,,Most,All,Some,Many,More than half,Half,Few,Less than half,None,0.023148175,0.249999993,1,0,0,QQQ4,,,,,,,,English,2020-07-02_11h00.53.595,Experiment_English,3.2.4,Win32,60,,,1,0,340,279,1,339,ratio41_16_20_10.png,,,,,,,,,,,,
,,,,,,,,,,,,Most,Few,More than half,Less than half,Many,Half,All,Some,None,0.068518547,0.25277777,1,0,0,QQQ4,,,,,,,,English,2020-07-02_11h00.53.595,Experiment_English,3.2.4,Win32,60,,,1,0,340,0,1,339,ratio12_1_3_3.png,,,,,,,,,,,,
,,,,,,,,,,,,More than half,Many,None,Some,Half,Most,All,Few,Less than half,-0.024074048,0.260185178,1,0,0,QQQ4,,,,,,,,English,2020-07-02_11h00.53.595,Experiment_English,3.2.4,Win32,60,,,1,0,340,151,1,339,ratio19_2_20_4.png,,,,,,,,,,,,
,,,,,,,,,,,,Half,Many,Less than half,Few,None,Most,All,More than half,Some,0.048148176,-0.332407489,1,0,0,QQQ6,,,,,,,,English,2020-07-02_11h00.53.595,Experiment_English,3.2.4,Win32,60,,,1,0,340,335,1,339,ratio91_18_20_11.png,,,,,,,,,,,,
,,,,,,,,,,,,Most,Many,More than half,Less than half,None,All,Few,Half,Some,0.031481509,-0.29166669,1,0,0,QQQ6,,,,,,,,English,2020-07-02_11h00.53.595,Experiment_English,3.2.4,Win32,60,,,1,0,340,54,1,339,ratioX0_15_15_5.png,,,,,,,,,,,,
,,,,,,,,,,,,Half,Most,More than half,Some,None,Few,Many,Less than half,All,-0.34629628,-0.256481504,1,0,0,QQQ9,,,,,,,,English,2020-07-02_11h00.53.595,Experiment_English,3.2.4,Win32,60,,,1,0,340,43,1,339,ratioX0_6_6_9.png,,,,,,,,,,,,
,,,,,,,,,,,,Few,Many,None,Half,Most,Less than half,All,More than half,Some,-0.482407367,-0.254629709,1,0,0,QQQ9,,,,,,,,English,2020-07-02_11h00.53.595,Experiment_English,3.2.4,Win32,60,,,1,0,340,147,1,339,ratio19_1_10_18.png,,,,,,,,,,,,
,,,,,,,,,,,,All,None,Few,Less than half,Some,Many,More than half,Most,Half,-0.493518478,-0.326851933,1,0,0,QQQ9,,,,,,,,English,2020-07-02_11h00.53.595,Experiment_English,3.2.4,Win32,60,,,1,0,340,35,1,339,ratio11_8_16_10.png,,,,,,,,,,,,
,,,,,,,,,,,,Some,Most,Few,None,Many,Half,Less than half,More than half,All,-0.384259244,0.230555548,1,0,0,QQQ7,,,,,,,,English,2020-07-02_11h00.53.595,Experiment_English,3.2.4,Win32,60,,,1,0,340,192,1,339,ratio23_6_15_8.png,,,,,,,,,,,,
,,,,,,,,,,,,Most,More than half,Some,None,All,Half,Few,Many,Less than half,-0.446296255,0.279629623,1,0,0,QQQ7,,,,,,,,English,2020-07-02_11h00.53.595,Experiment_English,3.2.4,Win32,60,,,1,0,340,117,1,339,ratio14_4_20_6.png,,,,,,,,,,,,
,,,,,,,,,,,,Most,Half,Less than half,All,None,Many,Some,Few,More than half,-0.004629603,-0.229629708,1,0,0,QQQ6,,,,,,,,English,2020-07-02_11h00.53.595,Experiment_English,3.2.4,Win32,60,,,1,0,340,333,1,339,ratio91_18_20_6.png,,,,,,,,,,,,
,,,,,,,,,,,,All,Less than half,More than half,Most,None,Few,Some,Half,Many,-0.477777766,0.269444438,1,0,0,QQQ7,,,,,,,,English,2020-07-02_11h00.53.595,Experiment_English,3.2.4,Win32,60,,,1,0,340,123,1,339,ratio15_1_6_12.png,,,,,,,,,,,,
,,,,,,,,,,,,Many,Half,None,More than half,Less than half,Most,All,Few,Some,0.019444472,0.2574074,1,0,0,QQQ4,,,,,,,,English,2020-07-02_11h00.53.595,Experiment_English,3.2.4,Win32,60,,,1,0,340,286,1,339,ratio43_4_7_15.png,,,,,,,,,,,,
,,,,,,,,,,,,Few,Half,More than half,Some,Many,Most,None,Less than half,All,0.019444472,0.248148141,1,0,0,QQQ4,,,,,,,,English,2020-07-02_11h00.53.595,Experiment_English,3.2.4,Win32,60,,,1,0,340,84,1,339,ratio13_2_8_1.png,0.420370409,-0.427777805,1,0,0,continue_button_pause,1,0,1,0,1,0
,,,,,,,,,,,,,,,,,,,,,,,,,,,,,,,,,,English,2020-07-02_11h00.53.595,Experiment_English,3.2.4,Win32,60,,,1,0,340,84,1,339,ratio13_2_8_1.png,,,,,,,,,,,,
,,,,,,,,,,,,None,All,Most,Half,Few,Less than half,Many,More than half,Some,-0.420370356,-0.258333356,1,0,0,QQQ9,,,,,,,,English,2020-07-02_11h00.53.595,Experiment_English,3.2.4,Win32,60,,,1,0,340,159,1,339,ratio19_2_20_20.png,,,,,,,,,,,,
,,,,,,,,,,,,None,All,Less than half,Some,Most,Half,More than half,Many,Few,-0.452777765,0.337962958,1,0,0,QQQ7,,,,,,,,English,2020-07-02_11h00.53.595,Experiment_English,3.2.4,Win32,60,,,1,0,340,295,1,339,ratio43_8_14_11.png,,,,,,,,,,,,
,,,,,,,,,,,,Half,None,All,Some,Most,Less than half,Few,More than half,Many,2.6491E-08,0.301851846,1,0,0,QQQ4,,,,,,,,English,2020-07-02_11h00.53.595,Experiment_English,3.2.4,Win32,60,,,1,0,340,92,1,339,ratio13_4_16_3.png,,,,,,,,,,,,
,,,,,,,,,,,,More than half,Many,All,Most,Some,Less than half,Few,None,Half,-0.032407382,-0.004629645,1,0,0,QQQ5,,,,,,,,English,2020-07-02_11h00.53.595,Experiment_English,3.2.4,Win32,60,,,1,0,340,322,1,339,ratio91_9_10_3.png,,,,,,,,,,,,
,,,,,,,,,,,,Less than half,Some,All,Half,More than half,Most,Few,None,Many,-0.456481469,-0.283333357,1,0,0,QQQ9,,,,,,,,English,2020-07-02_11h00.53.595,Experiment_English,3.2.4,Win32,60,,,1,0,340,270,1,339,ratio41_12_15_3.png,,,,,,,,,,,,
,,,,,,,,,,,,None,Few,Many,Most,Half,Less than half,All,Some,More than half,-0.499999988,-0.071296313,1,0,0,QQQ8,,,,,,,,English,2020-07-02_11h00.53.595,Experiment_English,3.2.4,Win32,60,,,1,0,340,116,1,339,ratio14_4_20_3.png,,,,,,,,,,,,
,,,,,,,,,,,,Few,None,Most,Half,More than half,All,Many,Some,Less than half,-0.409259245,-0.288888912,1,0,0,QQQ9,,,,,,,,English,2020-07-02_11h00.53.595,Experiment_English,3.2.4,Win32,60,,,1,0,340,259,1,339,ratio34_6_14_19.png,,,,,,,,,,,,
,,,,,,,,,,,,Less than half,More than half,Few,Some,Half,All,None,Most,Many,-0.002777751,-0.08796298,1,0,0,QQQ5,,,,,,,,English,2020-07-02_11h00.53.595,Experiment_English,3.2.4,Win32,60,,,1,0,340,36,1,339,ratio11_9_18_1.png,,,,,,,,,,,,
,,,,,,,,,,,,Less than half,None,Few,More than half,Many,Most,Some,Half,All,0.013888916,0.272222215,1,0,0,QQQ4,,,,,,,,English,2020-07-02_11h00.53.595,Experiment_English,3.2.4,Win32,60,,,1,0,340,229,1,339,ratio32_6_10_9.png,,,,,,,,,,,,
,,,,,,,,,,,,None,Few,More than half,Many,All,Some,Half,Less than half,Most,-0.442592579,0.02870369,1,0,0,QQQ8,,,,,,,,English,2020-07-02_11h00.53.595,Experiment_English,3.2.4,Win32,60,,,1,0,340,240,1,339,ratio34_3_7_4.png,,,,,,,,,,,,
,,,,,,,,,,,,Few,All,Most,Less than half,None,More than half,Many,Some,Half,-0.473148136,-0.005555571,1,0,0,QQQ8,,,,,,,,English,2020-07-02_11h00.53.595,Experiment_English,3.2.4,Win32,60,,,1,0,340,112,1,339,ratio14_3_15_4.png,,,,,,,,,,,,
,,,,,,,,,,,,Less than half,Few,More than half,Some,Half,All,Many,Most,None,0.536111154,0.337962958,1,0,0,QQQ1,,,,,,,,English,2020-07-02_11h00.53.595,Experiment_English,3.2.4,Win32,60,,,1,0,340,17,1,339,ratio12_6_18_5.png,,,,,,,,,,,,
,,,,,,,,,,,,Many,Some,More than half,Few,None,All,Most,Less than half,Half,-0.382407392,-0.011111126,1,0,0,QQQ8,,,,,,,,English,2020-07-02_11h00.53.595,Experiment_English,3.2.4,Win32,60,,,1,0,340,184,1,339,ratio23_2_5_10.png,,,,,,,,,,,,
,,,,,,,,,,,,Many,Most,All,More than half,Half,Some,None,Few,Less than half,0.459259299,0.215740732,1,0,0,QQQ1,,,,,,,,English,2020-07-02_11h00.53.595,Experiment_English,3.2.4,Win32,60,,,1,0,340,308,1,339,ratio51_10_12_9.png,,,,,,,,,,,,
,,,,,,,,,,,,Some,All,Less than half,Few,Half,More than half,Many,Most,None,-0.549074064,-0.017592608,1,0,0,QQQ8,,,,,,,,English,2020-07-02_11h00.53.595,Experiment_English,3.2.4,Win32,60,,,1,0,340,284,1,339,ratio43_4_7_11.png,,,,,,,,,,,,
,,,,,,,,,,,,All,Most,Some,None,Many,Few,Less than half,Half,More than half,-0.038888864,-0.012037052,1,0,0,QQQ5,,,,,,,,English,2020-07-02_11h00.53.595,Experiment_English,3.2.4,Win32,60,,,1,0,340,321,1,339,ratio91_9_10_2.png,,,,,,,,,,,,
,,,,,,,,,,,,Less than half,Most,All,Few,More than half,Half,None,Some,Many,-0.038888864,-0.012037052,1,0,0,QQQ5,,,,,,,,English,2020-07-02_11h00.53.595,Experiment_English,3.2.4,Win32,60,,,1,0,340,200,1,339,ratio31_3_4_4.png,,,,,,,,,,,,
,,,,,,,,,,,,Many,Less than half,Most,All,Few,Some,Half,None,More than half,-0.053703622,-0.335185267,1,0,0,QQQ6,,,,,,,,English,2020-07-02_11h00.53.595,Experiment_English,3.2.4,Win32,60,,,1,0,340,139,1,339,ratio15_3_18_20.png,,,,,,,,,,,,
,,,,,,,,,,,,Most,Few,None,Half,All,Many,Some,Less than half,More than half,0.499074115,-0.260185264,1,0,0,QQQ3,,,,,,,,English,2020-07-02_11h00.53.595,Experiment_English,3.2.4,Win32,60,,,1,0,340,63,1,339,ratio0Y_0_6_8.png,,,,,,,,,,,,
,,,,,,,,,,,,More than half,Most,Many,All,Some,Few,Less than half,Half,None,-0.374999985,0.256481474,1,0,0,QQQ7,,,,,,,,English,2020-07-02_11h00.53.595,Experiment_English,3.2.4,Win32,60,,,1,0,340,81,1,339,ratio13_1_4_5.png,,,,,,,,,,,,
,,,,,,,,,,,,Most,Half,All,Few,More than half,Many,None,Less than half,Some,-0.437962921,-0.348148173,1,0,0,QQQ9,,,,,,,,English,2020-07-02_11h00.53.595,Experiment_English,3.2.4,Win32,60,,,1,0,340,127,1,339,ratio15_2_12_2.png,,,,,,,,,,,,
,,,,,,,,,,,,Half,Many,Most,Some,All,Few,None,More than half,Less than half,-0.446296255,-0.267592615,1,0,0,QQQ9,,,,,,,,English,2020-07-02_11h00.53.595,Experiment_English,3.2.4,Win32,60,,,1,0,340,16,1,339,ratio12_5_15_6.png,,,,,,,,,,,,
,,,,,,,,,,,,Half,Less than half,All,Many,None,More than half,Some,Few,Most,0.497222264,-0.351851934,1,0,0,QQQ3,,,,,,,,English,2020-07-02_11h00.53.595,Experiment_English,3.2.4,Win32,60,,,1,0,340,42,1,339,ratioX0_5_5_5.png,,,,,,,,,,,,
,,,,,,,,,,,,Many,None,Some,Less than half,More than half,All,Few,Most,Half,0.515740783,0.298148128,1,0,0,QQQ1,,,,,,,,English,2020-07-02_11h00.53.595,Experiment_English,3.2.4,Win32,60,,,1,0,340,319,1,339,ratio51_15_18_20.png,,,,,,,,,,,,
,,,,,,,,,,,,More than half,Half,Most,Few,All,None,Some,Less than half,Many,-0.415740698,-0.263888912,1,0,0,QQQ9,,,,,,,,English,2020-07-02_11h00.53.595,Experiment_English,3.2.4,Win32,60,,,1,0,340,218,1,339,ratio31_15_20_7.png,,,,,,,,,,,,
,,,,,,,,,,,,Half,Less than half,Most,More than half,All,None,Many,Few,Some,0.455555596,-0.005555571,1,0,0,QQQ2,,,,,,,,English,2020-07-02_11h00.53.595,Experiment_English,3.2.4,Win32,60,,,1,0,340,188,1,339,ratio23_4_10_6.png,,,,,,,,,,,,
,,,,,,,,,,,,Most,Many,None,Some,Less than half,Half,More than half,Few,All,0.499074115,0.262962956,1,0,0,QQQ1,,,,,,,,English,2020-07-02_11h00.53.595,Experiment_English,3.2.4,Win32,60,,,1,0,340,179,1,339,ratio21_12_18_8.png,,,,,,,,,,,,
,,,,,,,,,,,,Most,Half,Many,More than half,Less than half,None,Some,Few,All,0.0953704,0.043518477,1,0,0,QQQ5,,,,,,,,English,2020-07-02_11h00.53.595,Experiment_English,3.2.4,Win32,60,,,1,0,340,247,1,339,ratio34_3_7_12.png,,,,,,,,,,,,
,,,,,,,,,,,,Some,More than half,Most,None,Few,Half,Many,All,Less than half,0.089814844,0.040740699,1,0,0,QQQ5,,,,,,,,English,2020-07-02_11h00.53.595,Experiment_English,3.2.4,Win32,60,,,1,0,340,94,1,339,ratio13_4_16_8.png,,,,,,,,,,,,
,,,,,,,,,,,,None,All,Many,More than half,Few,Less than half,Some,Most,Half,0.009259286,0.236111103,1,0,0,QQQ4,,,,,,,,English,2020-07-02_11h00.53.595,Experiment_English,3.2.4,Win32,60,,,1,0,340,235,1,339,ratio32_12_20_1.png,,,,,,,,,,,,
,,,,,,,,,,,,Some,Few,More than half,Half,Many,All,None,Most,Less than half,0.502777819,-0.286111135,1,0,0,QQQ3,,,,,,,,English,2020-07-02_11h00.53.595,Experiment_English,3.2.4,Win32,60,,,1,0,340,289,1,339,ratio43_4_7_20.png,,,,,,,,,,,,
,,,,,,,,,,,,All,Many,Half,Most,Less than half,More than half,Some,Few,None,-0.449074033,0.249999993,1,0,0,QQQ7,,,,,,,,English,2020-07-02_11h00.53.595,Experiment_English,3.2.4,Win32,60,,,1,0,340,153,1,339,ratio19_2_20_8.png,,,,,,,,,,,,
,,,,,,,,,,,,Most,Few,Half,All,Less than half,None,Many,Some,More than half,-0.449999987,0.055555542,1,0,0,QQQ8,,,,,,,,English,2020-07-02_11h00.53.595,Experiment_English,3.2.4,Win32,60,,,1,0,340,154,1,339,ratio19_2_20_11.png,,,,,,,,,,,,
,,,,,,,,,,,,Less than half,Some,None,Few,All,Many,More than half,Half,Most,-0.5111111,0.289814794,1,0,0,QQQ7,,,,,,,,English,2020-07-02_11h00.53.595,Experiment_English,3.2.4,Win32,60,,,1,0,340,293,1,339,ratio43_8_14_7.png,0.357407445,-0.424074158,1,0,0,continue_button_pause,1,0,1,0,1,0
,,,,,,,,,,,,,,,,,,,,,,,,,,,,,,,,,,English,2020-07-02_11h00.53.595,Experiment_English,3.2.4,Win32,60,,,1,0,340,293,1,339,ratio43_8_14_7.png,,,,,,,,,,,,
,,,,,,,,,,,,Half,None,Some,All,Few,Many,Less than half,Most,More than half,0.464814855,0.318518513,1,0,0,QQQ1,,,,,,,,English,2020-07-02_11h00.53.595,Experiment_English,3.2.4,Win32,60,,,1,0,340,14,1,339,ratio12_5_15_4.png,,,,,,,,,,,,
,,,,,,,,,,,,Less than half,None,All,Half,More than half,Most,Few,Many,Some,-0.055555531,-0.279629709,1,0,0,QQQ6,,,,,,,,English,2020-07-02_11h00.53.595,Experiment_English,3.2.4,Win32,60,,,1,0,340,303,1,339,ratio51_5_6_6.png,,,,,,,,,,,,
,,,,,,,,,,,,None,Half,Many,All,Less than half,Few,Most,Some,More than half,0.452777818,0.002777763,1,0,0,QQQ2,,,,,,,,English,2020-07-02_11h00.53.595,Experiment_English,3.2.4,Win32,60,,,1,0,340,23,1,339,ratio11_3_6_9.png,,,,,,,,,,,,
,,,,,,,,,,,,More than half,Half,Many,Most,Some,None,Few,All,Less than half,-0.479629589,-0.008333348,1,0,0,QQQ8,,,,,,,,English,2020-07-02_11h00.53.595,Experiment_English,3.2.4,Win32,60,,,1,0,340,40,1,339,ratioX0_3_3_5.png,,,,,,,,,,,,
,,,,,,,,,,,,More than half,Some,Many,Less than half,Most,Few,All,Half,None,-0.532407369,-0.007407423,1,0,0,QQQ8,,,,,,,,English,2020-07-02_11h00.53.595,Experiment_English,3.2.4,Win32,60,,,1,0,340,191,1,339,ratio23_6_15_7.png,,,,,,,,,,,,
,,,,,,,,,,,,Some,More than half,Less than half,Half,Few,Many,None,Most,All,0.023148175,-0.283333357,1,0,0,QQQ6,,,,,,,,English,2020-07-02_11h00.53.595,Experiment_English,3.2.4,Win32,60,,,1,0,340,324,1,339,ratio91_9_10_7.png,,,,,,,,,,,,
,,,,,,,,,,,,More than half,Some,All,Half,Many,None,Less than half,Few,Most,-0.417592579,0.277777771,1,0,0,QQQ7,,,,,,,,English,2020-07-02_11h00.53.595,Experiment_English,3.2.4,Win32,60,,,1,0,340,19,1,339,ratio12_6_18_9.png,,,,,,,,,,,,
,,,,,,,,,,,,All,Few,More than half,None,Many,Most,Some,Less than half,Half,0.055555584,-0.317592617,1,0,0,QQQ6,,,,,,,,English,2020-07-02_11h00.53.595,Experiment_English,3.2.4,Win32,60,,,1,0,340,301,1,339,ratio51_5_6_4.png,,,,,,,,,,,,
,,,,,,,,,,,,Many,Most,Less than half,More than half,All,Half,Some,None,Few,-0.012036954,0.273148127,1,0,0,QQQ4,,,,,,,,English,2020-07-02_11h00.53.595,Experiment_English,3.2.4,Win32,60,,,1,0,340,168,1,339,ratio21_6_9_3.png,,,,,,,,,,,,
,,,,,,,,,,,,All,Less than half,Many,Half,More than half,Most,Few,Some,None,0.075925955,0.039814801,1,0,0,QQQ5,,,,,,,,English,2020-07-02_11h00.53.595,Experiment_English,3.2.4,Win32,60,,,1,0,340,299,1,339,ratio43_8_14_17.png,,,,,,,,,,,,
,,,,,,,,,,,,Some,All,More than half,Less than half,None,Most,Many,Few,Half,0.556481638,0.275925905,1,0,0,QQQ1,,,,,,,,English,2020-07-02_11h00.53.595,Experiment_English,3.2.4,Win32,60,,,1,0,340,124,1,339,ratio15_1_6_16.png,,,,,,,,,,,,
,,,,,,,,,,,,Less than half,All,More than half,Most,None,Few,Some,Half,Many,-0.397222208,-0.287963043,1,0,0,QQQ9,,,,,,,,English,2020-07-02_11h00.53.595,Experiment_English,3.2.4,Win32,60,,,1,0,340,34,1,339,ratio11_8_16_8.png,,,,,,,,,,,,
,,,,,,,,,,,,Many,None,All,Half,More than half,Less than half,Some,Most,Few,-0.052777753,-0.01944446,1,0,0,QQQ5,,,,,,,,English,2020-07-02_11h00.53.595,Experiment_English,3.2.4,Win32,60,,,1,0,340,282,1,339,ratio43_4_7_7.png,,,,,,,,,,,,
,,,,,,,,,,,,More than half,Most,Some,None,Less than half,Few,All,Many,Half,-0.052777753,-0.020370386,1,0,0,QQQ5,,,,,,,,English,2020-07-02_11h00.53.595,Experiment_English,3.2.4,Win32,60,,,1,0,340,181,1,339,ratio23_2_5_6.png,,,,,,,,,,,,
,,,,,,,,,,,,None,All,Many,Most,Some,Half,More than half,Few,Less than half,-0.121296273,-0.290740821,1,0,0,QQQ6,,,,,,,,English,2020-07-02_11h00.53.595,Experiment_English,3.2.4,Win32,60,,,1,0,340,199,1,339,ratio23_8_20_8.png,,,,,,,,,,,,
,,,,,,,,,,,,Less than half,Most,None,Few,Some,More than half,Many,Half,All,-0.379629614,-0.022222238,1,0,0,QQQ8,,,,,,,,English,2020-07-02_11h00.53.595,Experiment_English,3.2.4,Win32,60,,,1,0,340,30,1,339,ratio11_6_12_6.png,,,,,,,,,,,,
,,,,,,,,,,,,Less than half,More than half,Most,None,Few,Half,Some,Many,All,-0.435185143,-0.297222246,1,0,0,QQQ9,,,,,,,,English,2020-07-02_11h00.53.595,Experiment_English,3.2.4,Win32,60,,,1,0,340,44,1,339,ratioX0_7_7_5.png,,,,,,,,,,,,
,,,,,,,,,,,,Many,Few,None,Most,Some,All,More than half,Half,Less than half,-0.007407381,0.239814807,1,0,0,QQQ4,,,,,,,,English,2020-07-02_11h00.53.595,Experiment_English,3.2.4,Win32,60,,,1,0,340,205,1,339,ratio31_6_8_2.png,,,,,,,,,,,,
,,,,,,,,,,,,Most,Few,None,Many,Less than half,All,Half,Some,More than half,0.035185269,-0.245370393,1,0,0,QQQ6,,,,,,,,English,2020-07-02_11h00.53.595,Experiment_English,3.2.4,Win32,60,,,1,0,340,48,1,339,ratioX0_10_10_1.png,,,,,,,,,,,,
,,,,,,,,,,,,All,Half,Few,Many,More than half,Some,Less than half,Most,None,-0.492592581,-0.006481497,1,0,0,QQQ8,,,,,,,,English,2020-07-02_11h00.53.595,Experiment_English,3.2.4,Win32,60,,,1,0,340,213,1,339,ratio31_12_16_2.png,,,,,,,,,,,,
,,,,,,,,,,,,Many,Few,Less than half,Half,All,Most,More than half,None,Some,0.491666708,0.34907407,1,0,0,QQQ1,,,,,,,,English,2020-07-02_11h00.53.595,Experiment_English,3.2.4,Win32,60,,,1,0,340,177,1,339,ratio21_12_18_1.png,,,,,,,,,,,,
,,,,,,,,,,,,Few,All,Some,None,Most,More than half,Half,Many,Less than half,-0.421296254,0.273148127,1,0,0,QQQ7,,,,,,,,English,2020-07-02_11h00.53.595,Experiment_English,3.2.4,Win32,60,,,1,0,340,20,1,339,ratio11_2_4_3.png,,,,,,,,,,,,
,,,,,,,,,,,,Some,Few,Half,All,More than half,Many,None,Less than half,Most,-0.03518516,-0.274074154,1,0,0,QQQ6,,,,,,,,English,2020-07-02_11h00.53.595,Experiment_English,3.2.4,Win32,60,,,1,0,340,32,1,339,ratio11_7_14_5.png,,,,,,,,,,,,
,,,,,,,,,,,,Half,Some,Few,All,More than half,Many,None,Less than half,Most,-0.034259177,-0.027777794,1,0,0,QQQ5,,,,,,,,English,2020-07-02_11h00.53.595,Experiment_English,3.2.4,Win32,60,,,1,0,340,201,1,339,ratio31_3_4_7.png,,,,,,,,,,,,
,,,,,,,,,,,,Some,Half,Less than half,Most,More than half,Few,None,Many,All,-0.034259177,-0.027777794,1,0,0,QQQ5,,,,,,,,English,2020-07-02_11h00.53.595,Experiment_English,3.2.4,Win32,60,,,1,0,340,33,1,339,ratio11_7_14_8.png,,,,,,,,,,,,
,,,,,,,,,,,,Many,Few,Some,Most,More than half,None,Half,All,Less than half,-0.03055553,0.356481477,1,0,0,QQQ4,,,,,,,,English,2020-07-02_11h00.53.595,Experiment_English,3.2.4,Win32,60,,,1,0,340,309,1,339,ratio51_10_12_10.png,,,,,,,,,,,,
,,,,,,,,,,,,Many,Some,Half,None,Less than half,Most,More than half,All,Few,-0.083333309,-0.312963044,1,0,0,QQQ6,,,,,,,,English,2020-07-02_11h00.53.595,Experiment_English,3.2.4,Win32,60,,,1,0,340,250,1,339,ratio34_6_14_1.png,,,,,,,,,,,,
,,,,,,,,,,,,Some,Few,All,Less than half,None,Many,More than half,Half,Most,-0.548148138,-0.337963044,1,0,0,QQQ9,,,,,,,,English,2020-07-02_11h00.53.595,Experiment_English,3.2.4,Win32,60,,,1,0,340,315,1,339,ratio51_15_18_10.png,,,,,,,,,,,,
,,,,,,,,,,,,Half,All,None,Some,Most,Few,More than half,Many,Less than half,-0.448148135,0.276851845,1,0,0,QQQ7,,,,,,,,English,2020-07-02_11h00.53.595,Experiment_English,3.2.4,Win32,60,,,1,0,340,161,1,339,ratio21_2_3_8.png,,,,,,,,,,,,
,,,,,,,,,,,,Some,None,Many,Half,Few,Most,Less than half,All,More than half,0.391666705,-0.264814838,1,0,0,QQQ3,,,,,,,,English,2020-07-02_11h00.53.595,Experiment_English,3.2.4,Win32,60,,,1,0,340,257,1,339,ratio34_6_14_12.png,,,,,,,,,,,,
,,,,,,,,,,,,Some,Most,Many,More than half,Few,None,Half,All,Less than half,0.447222262,0.37407407,1,0,0,QQQ1,,,,,,,,English,2020-07-02_11h00.53.595,Experiment_English,3.2.4,Win32,60,,,1,0,340,103,1,339,ratio14_1_5_9.png,,,,,,,,,,,,
,,,,,,,,,,,,All,Less than half,Many,Some,Most,Few,None,More than half,Half,-0.528703693,0.064814802,1,0,0,QQQ8,,,,,,,,English,2020-07-02_11h00.53.595,Experiment_English,3.2.4,Win32,60,,,1,0,340,296,1,339,ratio43_8_14_12.png,,,,,,,,,,,,
,,,,,,,,,,,,Most,Less than half,Few,Some,Many,None,All,Half,More than half,0.429629669,0.264814794,1,0,0,QQQ1,,,,,,,,English,2020-07-02_11h00.53.595,Experiment_English,3.2.4,Win32,60,,,1,0,340,204,1,339,ratio31_6_8_1.png,,,,,,,,,,,,
,,,,,,,,,,,,More than half,Few,Less than half,Most,Some,Many,None,Half,All,-0.014814732,0.024999986,1,0,0,QQQ5,,,,,,,,English,2020-07-02_11h00.53.595,Experiment_English,3.2.4,Win32,60,,,1,0,340,87,1,339,ratio13_2_8_8.png,,,,,,,,,,,,
