continue_mouse.x,continue_mouse.y,continue_mouse.leftButton,continue_mouse.midButton,continue_mouse.rightButton,continue_mouse.clicked_name,continue_mouse_2.x,continue_mouse_2.y,continue_mouse_2.leftButton,continue_mouse_2.midButton,continue_mouse_2.rightButton,continue_mouse_2.clicked_name,Q1,Q2,Q3,Q4,Q5,Q6,Q7,Q8,Q9,select_answer.x,select_answer.y,select_answer.leftButton,select_answer.midButton,select_answer.rightButton,select_answer.clicked_name,trial.thisRepN,trial.thisTrialN,trial.thisN,trial.thisIndex,trial.ran,trial.order,trials,Native tongue*,date,expName,psychopyVersion,OS,frameRate,key_resp.keys,key_resp.rt,trial_2.thisRepN,trial_2.thisTrialN,trial_2.thisN,trial_2.thisIndex,trial_2.ran,trial_2.order,continue_mouse_3.x,continue_mouse_3.y,continue_mouse_3.leftButton,continue_mouse_3.midButton,continue_mouse_3.rightButton,continue_mouse_3.clicked_name,insts.thisRepN,insts.thisTrialN,insts.thisN,insts.thisIndex,insts.ran,insts.order,Actual_Experiment.thisRepN,Actual_Experiment.thisTrialN,Actual_Experiment.thisN,Actual_Experiment.thisIndex,Actual_Experiment.ran,Actual_Experiment.order,Pic,mouse_pause.x,mouse_pause.y,mouse_pause.leftButton,mouse_pause.midButton,mouse_pause.rightButton,mouse_pause.clicked_name,pause.thisRepN,pause.thisTrialN,pause.thisN,pause.thisIndex,pause.ran,pause.order
0.403645833,-0.407552083,1,0,0,continue_button,0.403645833,-0.407552083,1,0,0,continue_button_2,More than half,Few,Less than half,All,Most,Many,Half,None,Some,0.48046875,0.022135417,1,0,0,QQQ2,1,0,16,9,1,15,ratio19_1_10_8.png,English,2020-07-02_10h59.54.341,Experiment_English,3.2.4,Win32,60,,,,,,,,,,,,,,,,,,,,,,,,,,,,,,,,,,,,,,,
,,,,,,,,,,,,Few,More than half,Less than half,All,Most,Some,Many,Half,None,0.540364583,-0.305989583,1,0,0,QQQ3,1,0,16,13,1,15,ratio12_5_15_1.png,English,2020-07-02_10h59.54.341,Experiment_English,3.2.4,Win32,60,,,,,,,,,,,,,,,,,,,,,,,,,,,,,,,,,,,,,,,
,,,,,,,,,,,,Half,Most,More than half,None,Few,All,Less than half,Many,Some,0.48828125,0.024739583,1,0,0,QQQ2,1,0,16,1,1,15,ratio51_5_6_8.png,English,2020-07-02_10h59.54.341,Experiment_English,3.2.4,Win32,60,,,,,,,,,,,,,,,,,,,,,,,,,,,,,,,,,,,,,,,
,,,,,,,,,,,,Some,Many,More than half,None,Most,Few,Half,All,Less than half,0.548177083,-0.319010417,1,0,0,QQQ3,1,0,16,8,1,15,ratio21_12_18_3.png,English,2020-07-02_10h59.54.341,Experiment_English,3.2.4,Win32,60,,,,,,,,,,,,,,,,,,,,,,,,,,,,,,,,,,,,,,,
,,,,,,,,,,,,Some,All,Many,Half,More than half,Few,Less than half,None,Most,-0.455729167,-0.255208333,1,0,0,QQQ9,1,0,16,3,1,15,ratio41_8_10_8.png,English,2020-07-02_10h59.54.341,Experiment_English,3.2.4,Win32,60,,,,,,,,,,,,,,,,,,,,,,,,,,,,,,,,,,,,,,,
,,,,,,,,,,,,Some,More than half,All,None,Most,Few,Many,Half,Less than half,-0.455729167,-0.255208333,1,0,0,QQQ9,,,,,,,ratio34_3_7_3.png,English,2020-07-02_10h59.54.341,Experiment_English,3.2.4,Win32,60,a,22.16200018,1,0,16,4,1,15,,,,,,,,,,,,,,,,,,,,,,,,,,,,,,,
,,,,,,,,,,,,Some,Many,Few,Half,All,Less than half,None,Most,More than half,-0.618489583,-0.045572917,1,0,0,QQQ8,,,,,,,ratio91_9_10_19.png,English,2020-07-02_10h59.54.341,Experiment_English,3.2.4,Win32,60,,,1,0,16,0,1,15,,,,,,,,,,,,,,,,,,,,,,,,,,,,,,,
,,,,,,,,,,,,Most,More than half,All,None,Less than half,Half,Some,Many,Few,0.49609375,0.361979167,1,0,0,QQQ1,,,,,,,ratio31_12_16_7.png,English,2020-07-02_10h59.54.341,Experiment_English,3.2.4,Win32,60,,,1,0,16,6,1,15,,,,,,,,,,,,,,,,,,,,,,,,,,,,,,,
,,,,,,,,,,,,None,Most,Many,All,Half,Some,More than half,Few,Less than half,0.0078125,0.040364583,1,0,0,QQQ5,,,,,,,ratio11_5_10_6.png,English,2020-07-02_10h59.54.341,Experiment_English,3.2.4,Win32,60,,,1,0,16,14,1,15,,,,,,,,,,,,,,,,,,,,,,,,,,,,,,,
,,,,,,,,,,,,More than half,Some,None,Less than half,Most,Many,Half,All,Few,-0.46484375,-0.27734375,1,0,0,QQQ9,,,,,,,ratio14_1_5_7.png,English,2020-07-02_10h59.54.341,Experiment_English,3.2.4,Win32,60,,,1,0,16,11,1,15,,,,,,,,,,,,,,,,,,,,,,,,,,,,,,,
,,,,,,,,,,,,,,,,,,,,,,,,,,,,,,,,,,English,2020-07-02_10h59.54.341,Experiment_English,3.2.4,Win32,60,,,,,,,,,0.295572917,-0.404947917,1,0,0,continue_button_3,1,0,1,0,1,0,,,,,,,,,,,,,,,,,,,
,,,,,,,,,,,,Some,All,More than half,Most,Half,None,Less than half,Few,Many,0.065104167,0.26171875,1,0,0,QQQ4,,,,,,,,English,2020-07-02_10h59.54.341,Experiment_English,3.2.4,Win32,60,,,,,,,,,,,,,,,,,,,,,1,0,340,336,1,339,ratio91_18_20_12.png,,,,,,,,,,,,
,,,,,,,,,,,,Some,Many,Half,Less than half,More than half,All,None,Most,Few,-0.5,-0.259114583,1,0,0,QQQ9,,,,,,,,English,2020-07-02_10h59.54.341,Experiment_English,3.2.4,Win32,60,,,,,,,,,,,,,,,,,,,,,1,0,340,83,1,339,ratio13_1_4_10.png,,,,,,,,,,,,
,,,,,,,,,,,,Half,All,Most,Few,Some,Less than half,Many,None,More than half,-0.080729167,-0.286458333,1,0,0,QQQ6,,,,,,,,English,2020-07-02_10h59.54.341,Experiment_English,3.2.4,Win32,60,,,,,,,,,,,,,,,,,,,,,1,0,340,242,1,339,ratio34_3_7_6.png,,,,,,,,,,,,
,,,,,,,,,,,,Some,None,Most,All,Half,Many,Few,More than half,Less than half,0.395833333,-0.016927083,1,0,0,QQQ2,,,,,,,,English,2020-07-02_10h59.54.341,Experiment_English,3.2.4,Win32,60,,,,,,,,,,,,,,,,,,,,,1,0,340,69,1,339,ratio0Y_0_11_6.png,,,,,,,,,,,,
,,,,,,,,,,,,Few,All,Some,None,Half,Most,Less than half,Many,More than half,0.048177083,0.03125,1,0,0,QQQ5,,,,,,,,English,2020-07-02_10h59.54.341,Experiment_English,3.2.4,Win32,60,,,,,,,,,,,,,,,,,,,,,1,0,340,297,1,339,ratio43_8_14_13.png,,,,,,,,,,,,
,,,,,,,,,,,,Half,Many,Most,Few,All,None,More than half,Less than half,Some,-0.075520833,-0.24609375,1,0,0,QQQ6,,,,,,,,English,2020-07-02_10h59.54.341,Experiment_English,3.2.4,Win32,60,,,,,,,,,,,,,,,,,,,,,1,0,340,66,1,339,ratio0Y_0_9_8.png,,,,,,,,,,,,
,,,,,,,,,,,,Many,More than half,Less than half,Half,None,Most,Some,All,Few,-0.459635417,0.255208333,1,0,0,QQQ7,,,,,,,,English,2020-07-02_10h59.54.341,Experiment_English,3.2.4,Win32,60,,,,,,,,,,,,,,,,,,,,,1,0,340,94,1,339,ratio13_4_16_8.png,,,,,,,,,,,,
,,,,,,,,,,,,Half,None,Many,Some,Few,All,Most,Less than half,More than half,-0.4453125,0.296875,1,0,0,QQQ7,,,,,,,,English,2020-07-02_10h59.54.341,Experiment_English,3.2.4,Win32,60,,,,,,,,,,,,,,,,,,,,,1,0,340,311,1,339,ratio51_10_12_14.png,,,,,,,,,,,,
,,,,,,,,,,,,Less than half,All,Some,Half,Many,Few,More than half,None,Most,-0.51953125,-0.3203125,1,0,0,QQQ9,,,,,,,,English,2020-07-02_10h59.54.341,Experiment_English,3.2.4,Win32,60,,,,,,,,,,,,,,,,,,,,,1,0,340,326,1,339,ratio91_9_10_10.png,,,,,,,,,,,,
,,,,,,,,,,,,All,More than half,Less than half,Most,Many,Some,None,Half,Few,-0.51953125,-0.3203125,1,0,0,QQQ9,,,,,,,,English,2020-07-02_10h59.54.341,Experiment_English,3.2.4,Win32,60,,,,,,,,,,,,,,,,,,,,,1,0,340,4,1,339,ratio12_2_6_5.png,,,,,,,,,,,,
,,,,,,,,,,,,Less than half,Many,All,None,More than half,Half,Few,Some,Most,0.428385417,0.266927083,1,0,0,QQQ1,,,,,,,,English,2020-07-02_10h59.54.341,Experiment_English,3.2.4,Win32,60,,,,,,,,,,,,,,,,,,,,,1,0,340,259,1,339,ratio34_6_14_19.png,,,,,,,,,,,,
,,,,,,,,,,,,Half,Less than half,Few,None,Most,More than half,Some,Many,All,0.47265625,-0.2890625,1,0,0,QQQ3,,,,,,,,English,2020-07-02_10h59.54.341,Experiment_English,3.2.4,Win32,60,,,,,,,,,,,,,,,,,,,,,1,0,340,2,1,339,ratio12_1_3_10.png,,,,,,,,,,,,
,,,,,,,,,,,,Less than half,Some,Few,None,Many,Most,All,Half,More than half,0.47265625,-0.2890625,1,0,0,QQQ3,,,,,,,,English,2020-07-02_10h59.54.341,Experiment_English,3.2.4,Win32,60,,,,,,,,,,,,,,,,,,,,,1,0,340,84,1,339,ratio13_2_8_1.png,,,,,,,,,,,,
,,,,,,,,,,,,Many,All,Some,None,Less than half,Most,More than half,Half,Few,-0.049479167,-0.279947917,1,0,0,QQQ6,,,,,,,,English,2020-07-02_10h59.54.341,Experiment_English,3.2.4,Win32,60,,,,,,,,,,,,,,,,,,,,,1,0,340,335,1,339,ratio91_18_20_11.png,,,,,,,,,,,,
,,,,,,,,,,,,More than half,None,Most,Few,Some,Half,All,Many,Less than half,0.005208333,0.286458333,1,0,0,QQQ4,,,,,,,,English,2020-07-02_10h59.54.341,Experiment_English,3.2.4,Win32,60,,,,,,,,,,,,,,,,,,,,,1,0,340,123,1,339,ratio15_1_6_12.png,,,,,,,,,,,,
,,,,,,,,,,,,Less than half,Some,None,Most,Half,All,More than half,Few,Many,-0.018229167,0.283854167,1,0,0,QQQ4,,,,,,,,English,2020-07-02_10h59.54.341,Experiment_English,3.2.4,Win32,60,,,,,,,,,,,,,,,,,,,,,1,0,340,218,1,339,ratio31_15_20_7.png,,,,,,,,,,,,
,,,,,,,,,,,,None,All,Few,Some,Many,Less than half,More than half,Most,Half,0.404947917,-0.283854167,1,0,0,QQQ3,,,,,,,,English,2020-07-02_10h59.54.341,Experiment_English,3.2.4,Win32,60,,,,,,,,,,,,,,,,,,,,,1,0,340,120,1,339,ratio15_1_6_1.png,,,,,,,,,,,,
,,,,,,,,,,,,Some,Many,Less than half,Half,None,All,More than half,Few,Most,0.010416667,-0.005208333,1,0,0,QQQ5,,,,,,,,English,2020-07-02_10h59.54.341,Experiment_English,3.2.4,Win32,60,,,,,,,,,,,,,,,,,,,,,1,0,340,79,1,339,ratio0Y_0_20_4.png,,,,,,,,,,,,
,,,,,,,,,,,,Less than half,Some,More than half,Many,Few,Half,None,All,Most,0.403645833,0.321614583,1,0,0,QQQ1,,,,,,,,English,2020-07-02_10h59.54.341,Experiment_English,3.2.4,Win32,60,,,,,,,,,,,,,,,,,,,,,1,0,340,0,1,339,ratio12_1_3_3.png,,,,,,,,,,,,
,,,,,,,,,,,,All,Most,More than half,Many,Few,Half,None,Some,Less than half,0.432291667,-0.296875,1,0,0,QQQ3,,,,,,,,English,2020-07-02_10h59.54.341,Experiment_English,3.2.4,Win32,60,,,,,,,,,,,,,,,,,,,,,1,0,340,31,1,339,ratio11_6_12_9.png,,,,,,,,,,,,
,,,,,,,,,,,,Less than half,Few,Some,None,Half,More than half,All,Many,Most,-0.514322917,-0.3359375,1,0,0,QQQ9,,,,,,,,English,2020-07-02_10h59.54.341,Experiment_English,3.2.4,Win32,60,,,,,,,,,,,,,,,,,,,,,1,0,340,163,1,339,ratio21_4_6_1.png,,,,,,,,,,,,
,,,,,,,,,,,,Many,More than half,Half,Some,Few,All,None,Less than half,Most,-0.514322917,-0.3359375,1,0,0,QQQ9,,,,,,,,English,2020-07-02_10h59.54.341,Experiment_English,3.2.4,Win32,60,,,,,,,,,,,,,,,,,,,,,1,0,340,286,1,339,ratio43_4_7_15.png,,,,,,,,,,,,
,,,,,,,,,,,,Half,None,Most,Some,Less than half,Few,More than half,Many,All,-0.05859375,0.272135417,1,0,0,QQQ4,,,,,,,,English,2020-07-02_10h59.54.341,Experiment_English,3.2.4,Win32,60,,,,,,,,,,,,,,,,,,,,,1,0,340,92,1,339,ratio13_4_16_3.png,,,,,,,,,,,,
,,,,,,,,,,,,Few,Half,Many,Most,None,All,Less than half,More than half,Some,-0.455729167,0.0234375,1,0,0,QQQ8,,,,,,,,English,2020-07-02_10h59.54.341,Experiment_English,3.2.4,Win32,60,,,,,,,,,,,,,,,,,,,,,1,0,340,222,1,339,ratio32_3_5_4.png,,,,,,,,,,,,
,,,,,,,,,,,,More than half,Few,Most,Many,All,Half,None,Less than half,Some,-0.455729167,0.0234375,1,0,0,QQQ8,,,,,,,,English,2020-07-02_10h59.54.341,Experiment_English,3.2.4,Win32,60,,,,,,,,,,,,,,,,,,,,,1,0,340,220,1,339,ratio32_3_5_1.png,,,,,,,,,,,,
,,,,,,,,,,,,Few,Half,Most,More than half,None,Many,Less than half,All,Some,-0.032552083,0.326822917,1,0,0,QQQ4,,,,,,,,English,2020-07-02_10h59.54.341,Experiment_English,3.2.4,Win32,60,,,,,,,,,,,,,,,,,,,,,1,0,340,280,1,339,ratio43_4_7_2.png,,,,,,,,,,,,
,,,,,,,,,,,,Half,More than half,Less than half,All,None,Some,Most,Few,Many,-0.5859375,0.02734375,1,0,0,QQQ8,,,,,,,,English,2020-07-02_10h59.54.341,Experiment_English,3.2.4,Win32,60,,,,,,,,,,,,,,,,,,,,,1,0,340,132,1,339,ratio15_2_12_16.png,,,,,,,,,,,,
,,,,,,,,,,,,Most,Half,None,All,Few,More than half,Less than half,Many,Some,0.442708333,0.329427083,1,0,0,QQQ1,,,,,,,,English,2020-07-02_10h59.54.341,Experiment_English,3.2.4,Win32,60,,,,,,,,,,,,,,,,,,,,,1,0,340,203,1,339,ratio31_3_4_9.png,,,,,,,,,,,,
,,,,,,,,,,,,Few,Less than half,Many,None,Some,All,More than half,Most,Half,0.016927083,0.32421875,1,0,0,QQQ4,,,,,,,,English,2020-07-02_10h59.54.341,Experiment_English,3.2.4,Win32,60,,,,,,,,,,,,,,,,,,,,,1,0,340,64,1,339,ratio0Y_0_7_1.png,,,,,,,,,,,,
,,,,,,,,,,,,Many,Few,Less than half,None,More than half,Half,Most,Some,All,0.483072917,0.0234375,1,0,0,QQQ2,,,,,,,,English,2020-07-02_10h59.54.341,Experiment_English,3.2.4,Win32,60,,,,,,,,,,,,,,,,,,,,,1,0,340,100,1,339,ratio14_1_5_3.png,,,,,,,,,,,,
,,,,,,,,,,,,Most,Half,Many,None,Some,Few,More than half,Less than half,All,0.377604167,0.266927083,1,0,0,QQQ1,,,,,,,,English,2020-07-02_10h59.54.341,Experiment_English,3.2.4,Win32,60,,,,,,,,,,,,,,,,,,,,,1,0,340,232,1,339,ratio32_9_15_8.png,,,,,,,,,,,,
,,,,,,,,,,,,Most,Some,Half,Many,Less than half,Few,None,All,More than half,0.483072917,0.328125,1,0,0,QQQ1,,,,,,,,English,2020-07-02_10h59.54.341,Experiment_English,3.2.4,Win32,60,,,,,,,,,,,,,,,,,,,,,1,0,340,294,1,339,ratio43_8_14_9.png,,,,,,,,,,,,
,,,,,,,,,,,,Less than half,None,More than half,Many,Half,Some,Few,Most,All,0.40625,-0.264322917,1,0,0,QQQ3,,,,,,,,English,2020-07-02_10h59.54.341,Experiment_English,3.2.4,Win32,60,,,,,,,,,,,,,,,,,,,,,1,0,340,160,1,339,ratio21_2_3_2.png,,,,,,,,,,,,
,,,,,,,,,,,,Half,All,Most,More than half,Some,None,Few,Many,Less than half,-0.002604167,0.325520833,1,0,0,QQQ4,,,,,,,,English,2020-07-02_10h59.54.341,Experiment_English,3.2.4,Win32,60,,,,,,,,,,,,,,,,,,,,,1,0,340,288,1,339,ratio43_4_7_18.png,0.305989583,-0.373697917,1,0,0,continue_button_pause,1,0,1,0,1,0
,,,,,,,,,,,,,,,,,,,,,,,,,,,,,,,,,,English,2020-07-02_10h59.54.341,Experiment_English,3.2.4,Win32,60,,,,,,,,,,,,,,,,,,,,,1,0,340,288,1,339,ratio43_4_7_18.png,,,,,,,,,,,,
,,,,,,,,,,,,Some,None,Many,Few,All,Half,Less than half,Most,More than half,0.026041667,0.334635417,1,0,0,QQQ4,,,,,,,,English,2020-07-02_10h59.54.341,Experiment_English,3.2.4,Win32,60,,,,,,,,,,,,,,,,,,,,,1,0,340,127,1,339,ratio15_2_12_2.png,,,,,,,,,,,,
,,,,,,,,,,,,Less than half,Half,All,Many,Few,Some,More than half,None,Most,0.446614583,0.024739583,1,0,0,QQQ2,,,,,,,,English,2020-07-02_10h59.54.341,Experiment_English,3.2.4,Win32,60,,,,,,,,,,,,,,,,,,,,,1,0,340,35,1,339,ratio11_8_16_10.png,,,,,,,,,,,,
,,,,,,,,,,,,All,None,Half,Most,More than half,Some,Many,Less than half,Few,0.044270833,0.276041667,1,0,0,QQQ4,,,,,,,,English,2020-07-02_10h59.54.341,Experiment_English,3.2.4,Win32,60,,,,,,,,,,,,,,,,,,,,,1,0,340,290,1,339,ratio43_8_14_3.png,,,,,,,,,,,,
,,,,,,,,,,,,Half,Few,Less than half,More than half,None,Some,Most,All,Many,0.475260417,0.315104167,1,0,0,QQQ1,,,,,,,,English,2020-07-02_10h59.54.341,Experiment_English,3.2.4,Win32,60,,,,,,,,,,,,,,,,,,,,,1,0,340,253,1,339,ratio34_6_14_5.png,,,,,,,,,,,,
,,,,,,,,,,,,Many,Few,More than half,All,Less than half,Some,None,Most,Half,0.48828125,-0.028645833,1,0,0,QQQ2,,,,,,,,English,2020-07-02_10h59.54.341,Experiment_English,3.2.4,Win32,60,,,,,,,,,,,,,,,,,,,,,1,0,340,131,1,339,ratio15_2_12_14.png,,,,,,,,,,,,
,,,,,,,,,,,,All,None,More than half,Few,Most,Less than half,Some,Many,Half,0.046875,0.309895833,1,0,0,QQQ4,,,,,,,,English,2020-07-02_10h59.54.341,Experiment_English,3.2.4,Win32,60,,,,,,,,,,,,,,,,,,,,,1,0,340,119,1,339,ratio14_4_20_10.png,,,,,,,,,,,,
,,,,,,,,,,,,None,More than half,Few,Less than half,All,Most,Half,Some,Many,-0.061197917,-0.322916667,1,0,0,QQQ6,,,,,,,,English,2020-07-02_10h59.54.341,Experiment_English,3.2.4,Win32,60,,,,,,,,,,,,,,,,,,,,,1,0,340,339,1,339,ratio91_18_20_19.png,,,,,,,,,,,,
,,,,,,,,,,,,More than half,Half,None,Most,All,Less than half,Many,Few,Some,0.041666667,0.338541667,1,0,0,QQQ4,,,,,,,,English,2020-07-02_10h59.54.341,Experiment_English,3.2.4,Win32,60,,,,,,,,,,,,,,,,,,,,,1,0,340,278,1,339,ratio41_16_20_9.png,,,,,,,,,,,,
,,,,,,,,,,,,More than half,Few,All,Less than half,Some,Most,None,Half,Many,0.438802083,0.266927083,1,0,0,QQQ1,,,,,,,,English,2020-07-02_10h59.54.341,Experiment_English,3.2.4,Win32,60,,,,,,,,,,,,,,,,,,,,,1,0,340,162,1,339,ratio21_2_3_9.png,,,,,,,,,,,,
,,,,,,,,,,,,All,Some,More than half,Less than half,Half,Few,Many,Most,None,-0.020833333,-0.303385417,1,0,0,QQQ6,,,,,,,,English,2020-07-02_10h59.54.341,Experiment_English,3.2.4,Win32,60,,,,,,,,,,,,,,,,,,,,,1,0,340,142,1,339,ratio19_1_10_6.png,,,,,,,,,,,,
,,,,,,,,,,,,Less than half,Few,None,More than half,Many,Most,Half,Some,All,-0.451822917,-0.27734375,1,0,0,QQQ9,,,,,,,,English,2020-07-02_10h59.54.341,Experiment_English,3.2.4,Win32,60,,,,,,,,,,,,,,,,,,,,,1,0,340,41,1,339,ratioX0_4_4_9.png,,,,,,,,,,,,
,,,,,,,,,,,,None,Less than half,Most,Half,Some,All,More than half,Many,Few,-0.028645833,0,1,0,0,QQQ5,,,,,,,,English,2020-07-02_10h59.54.341,Experiment_English,3.2.4,Win32,60,,,,,,,,,,,,,,,,,,,,,1,0,340,97,1,339,ratio13_5_20_2.png,,,,,,,,,,,,
,,,,,,,,,,,,Less than half,Some,Many,None,Few,Most,Half,More than half,All,0.462239583,0.307291667,1,0,0,QQQ1,,,,,,,,English,2020-07-02_10h59.54.341,Experiment_English,3.2.4,Win32,60,,,,,,,,,,,,,,,,,,,,,1,0,340,82,1,339,ratio13_1_4_7.png,,,,,,,,,,,,
,,,,,,,,,,,,All,Few,Many,Most,More than half,Some,Half,None,Less than half,-0.084635417,0.02734375,1,0,0,QQQ5,,,,,,,,English,2020-07-02_10h59.54.341,Experiment_English,3.2.4,Win32,60,,,,,,,,,,,,,,,,,,,,,1,0,340,161,1,339,ratio21_2_3_8.png,,,,,,,,,,,,
,,,,,,,,,,,,None,Many,Half,Most,Few,Less than half,Some,More than half,All,-0.529947917,0.321614583,1,0,0,QQQ7,,,,,,,,English,2020-07-02_10h59.54.341,Experiment_English,3.2.4,Win32,60,,,,,,,,,,,,,,,,,,,,,1,0,340,190,1,339,ratio23_6_15_3.png,,,,,,,,,,,,
,,,,,,,,,,,,Many,None,Some,Most,Few,Half,More than half,Less than half,All,-0.052083333,-0.302083333,1,0,0,QQQ6,,,,,,,,English,2020-07-02_10h59.54.341,Experiment_English,3.2.4,Win32,60,,,,,,,,,,,,,,,,,,,,,1,0,340,191,1,339,ratio23_6_15_7.png,,,,,,,,,,,,
,,,,,,,,,,,,More than half,None,Half,Few,Most,Some,All,Less than half,Many,0.020833333,0.368489583,1,0,0,QQQ4,,,,,,,,English,2020-07-02_10h59.54.341,Experiment_English,3.2.4,Win32,60,,,,,,,,,,,,,,,,,,,,,1,0,340,150,1,339,ratio19_2_20_1.png,,,,,,,,,,,,
,,,,,,,,,,,,Some,All,None,More than half,Less than half,Half,Most,Few,Many,-0.041666667,0.302083333,1,0,0,QQQ4,,,,,,,,English,2020-07-02_10h59.54.341,Experiment_English,3.2.4,Win32,60,,,,,,,,,,,,,,,,,,,,,1,0,340,282,1,339,ratio43_4_7_7.png,,,,,,,,,,,,
,,,,,,,,,,,,More than half,Many,All,Less than half,Most,None,Few,Half,Some,0.015625,-0.02734375,1,0,0,QQQ5,,,,,,,,English,2020-07-02_10h59.54.341,Experiment_English,3.2.4,Win32,60,,,,,,,,,,,,,,,,,,,,,1,0,340,173,1,339,ratio21_8_12_9.png,,,,,,,,,,,,
,,,,,,,,,,,,Many,Few,Most,More than half,All,None,Half,Some,Less than half,0.5625,-0.313802083,1,0,0,QQQ3,,,,,,,,English,2020-07-02_10h59.54.341,Experiment_English,3.2.4,Win32,60,,,,,,,,,,,,,,,,,,,,,1,0,340,317,1,339,ratio51_15_18_13.png,,,,,,,,,,,,
,,,,,,,,,,,,Few,None,Many,Some,Half,More than half,All,Most,Less than half,0.026041667,-0.291666667,1,0,0,QQQ6,,,,,,,,English,2020-07-02_10h59.54.341,Experiment_English,3.2.4,Win32,60,,,,,,,,,,,,,,,,,,,,,1,0,340,165,1,339,ratio21_4_6_10.png,,,,,,,,,,,,
,,,,,,,,,,,,Few,Less than half,Many,Some,Half,Most,None,More than half,All,-0.510416667,-0.322916667,1,0,0,QQQ9,,,,,,,,English,2020-07-02_10h59.54.341,Experiment_English,3.2.4,Win32,60,,,,,,,,,,,,,,,,,,,,,1,0,340,48,1,339,ratioX0_10_10_1.png,,,,,,,,,,,,
,,,,,,,,,,,,Most,Half,Many,Less than half,Few,None,More than half,Some,All,-0.009114583,-0.046875,1,0,0,QQQ5,,,,,,,,English,2020-07-02_10h59.54.341,Experiment_English,3.2.4,Win32,60,,,,,,,,,,,,,,,,,,,,,1,0,340,124,1,339,ratio15_1_6_16.png,,,,,,,,,,,,
,,,,,,,,,,,,None,All,Some,More than half,Most,Less than half,Many,Few,Half,-0.46484375,0.002604167,1,0,0,QQQ8,,,,,,,,English,2020-07-02_10h59.54.341,Experiment_English,3.2.4,Win32,60,,,,,,,,,,,,,,,,,,,,,1,0,340,85,1,339,ratio13_2_8_5.png,,,,,,,,,,,,
,,,,,,,,,,,,Many,All,Most,Half,Few,None,More than half,Less than half,Some,0.432291667,-0.33203125,1,0,0,QQQ3,,,,,,,,English,2020-07-02_10h59.54.341,Experiment_English,3.2.4,Win32,60,,,,,,,,,,,,,,,,,,,,,1,0,340,304,1,339,ratio51_5_6_13.png,,,,,,,,,,,,
,,,,,,,,,,,,Few,Some,Many,Half,Less than half,Most,None,More than half,All,0.470052083,0.373697917,1,0,0,QQQ1,,,,,,,,English,2020-07-02_10h59.54.341,Experiment_English,3.2.4,Win32,60,,,,,,,,,,,,,,,,,,,,,1,0,340,105,1,339,ratio14_2_10_1.png,,,,,,,,,,,,
,,,,,,,,,,,,Half,Many,Most,All,Few,Less than half,More than half,Some,None,0.53515625,-0.302083333,1,0,0,QQQ3,,,,,,,,English,2020-07-02_10h59.54.341,Experiment_English,3.2.4,Win32,60,,,,,,,,,,,,,,,,,,,,,1,0,340,207,1,339,ratio31_6_8_9.png,,,,,,,,,,,,
,,,,,,,,,,,,Most,More than half,Some,Few,Many,Less than half,None,Half,All,0.442708333,0.30078125,1,0,0,QQQ1,,,,,,,,English,2020-07-02_10h59.54.341,Experiment_English,3.2.4,Win32,60,,,,,,,,,,,,,,,,,,,,,1,0,340,217,1,339,ratio31_15_20_5.png,,,,,,,,,,,,
,,,,,,,,,,,,Some,More than half,Half,All,Less than half,Most,Many,Few,None,0.493489583,-0.0390625,1,0,0,QQQ2,,,,,,,,English,2020-07-02_10h59.54.341,Experiment_English,3.2.4,Win32,60,,,,,,,,,,,,,,,,,,,,,1,0,340,200,1,339,ratio31_3_4_4.png,,,,,,,,,,,,
,,,,,,,,,,,,Most,Less than half,None,Some,Few,Half,Many,More than half,All,0.50390625,0.2734375,1,0,0,QQQ1,,,,,,,,English,2020-07-02_10h59.54.341,Experiment_English,3.2.4,Win32,60,,,,,,,,,,,,,,,,,,,,,1,0,340,87,1,339,ratio13_2_8_8.png,,,,,,,,,,,,
,,,,,,,,,,,,Most,All,Some,Few,None,More than half,Less than half,Many,Half,0.44921875,0.276041667,1,0,0,QQQ1,,,,,,,,English,2020-07-02_10h59.54.341,Experiment_English,3.2.4,Win32,60,,,,,,,,,,,,,,,,,,,,,1,0,340,230,1,339,ratio32_9_15_1.png,,,,,,,,,,,,
,,,,,,,,,,,,None,All,Half,Many,Some,Most,More than half,Few,Less than half,-0.44140625,0.305989583,1,0,0,QQQ7,,,,,,,,English,2020-07-02_10h59.54.341,Experiment_English,3.2.4,Win32,60,,,,,,,,,,,,,,,,,,,,,1,0,340,164,1,339,ratio21_4_6_6.png,,,,,,,,,,,,
,,,,,,,,,,,,Most,None,Some,Half,More than half,All,Less than half,Few,Many,0.467447917,0.302083333,1,0,0,QQQ1,,,,,,,,English,2020-07-02_10h59.54.341,Experiment_English,3.2.4,Win32,60,,,,,,,,,,,,,,,,,,,,,1,0,340,176,1,339,ratio21_10_15_3.png,,,,,,,,,,,,
,,,,,,,,,,,,Half,Many,Some,Few,None,More than half,All,Most,Less than half,0.4375,-0.338541667,1,0,0,QQQ3,,,,,,,,English,2020-07-02_10h59.54.341,Experiment_English,3.2.4,Win32,60,,,,,,,,,,,,,,,,,,,,,1,0,340,99,1,339,ratio13_5_20_4.png,0.415364583,-0.397135417,1,0,0,continue_button_pause,1,0,1,0,1,0
,,,,,,,,,,,,,,,,,,,,,,,,,,,,,,,,,,English,2020-07-02_10h59.54.341,Experiment_English,3.2.4,Win32,60,,,,,,,,,,,,,,,,,,,,,1,0,340,99,1,339,ratio13_5_20_4.png,,,,,,,,,,,,
,,,,,,,,,,,,Few,Many,Most,Half,Some,None,More than half,All,Less than half,-0.033854167,-0.279947917,1,0,0,QQQ6,,,,,,,,English,2020-07-02_10h59.54.341,Experiment_English,3.2.4,Win32,60,,,,,,,,,,,,,,,,,,,,,1,0,340,60,1,339,ratio0Y_0_3_5.png,,,,,,,,,,,,
,,,,,,,,,,,,More than half,Few,Most,Less than half,All,Some,Half,Many,None,0.416666667,-0.3125,1,0,0,QQQ3,,,,,,,,English,2020-07-02_10h59.54.341,Experiment_English,3.2.4,Win32,60,,,,,,,,,,,,,,,,,,,,,1,0,340,319,1,339,ratio51_15_18_20.png,,,,,,,,,,,,
,,,,,,,,,,,,All,Half,Few,Less than half,Some,Most,None,Many,More than half,0.526041667,-0.34375,1,0,0,QQQ3,,,,,,,,English,2020-07-02_10h59.54.341,Experiment_English,3.2.4,Win32,60,,,,,,,,,,,,,,,,,,,,,1,0,340,151,1,339,ratio19_2_20_4.png,,,,,,,,,,,,
,,,,,,,,,,,,Some,Half,None,Many,Few,Most,Less than half,More than half,All,0.001302083,-0.276041667,1,0,0,QQQ6,,,,,,,,English,2020-07-02_10h59.54.341,Experiment_English,3.2.4,Win32,60,,,,,,,,,,,,,,,,,,,,,1,0,340,330,1,339,ratio91_18_20_2.png,,,,,,,,,,,,
,,,,,,,,,,,,None,More than half,Few,Less than half,Most,Some,Half,All,Many,-0.4921875,-0.00390625,1,0,0,QQQ8,,,,,,,,English,2020-07-02_10h59.54.341,Experiment_English,3.2.4,Win32,60,,,,,,,,,,,,,,,,,,,,,1,0,340,47,1,339,ratioX0_9_9_4.png,,,,,,,,,,,,
,,,,,,,,,,,,None,Most,All,Few,Some,Less than half,More than half,Many,Half,-0.125,0.321614583,1,0,0,QQQ4,,,,,,,,English,2020-07-02_10h59.54.341,Experiment_English,3.2.4,Win32,60,,,,,,,,,,,,,,,,,,,,,1,0,340,152,1,339,ratio19_2_20_6.png,,,,,,,,,,,,
,,,,,,,,,,,,Most,Few,Half,More than half,Some,All,Many,None,Less than half,-0.111979167,0.279947917,1,0,0,QQQ4,,,,,,,,English,2020-07-02_10h59.54.341,Experiment_English,3.2.4,Win32,60,,,,,,,,,,,,,,,,,,,,,1,0,340,235,1,339,ratio32_12_20_1.png,,,,,,,,,,,,
,,,,,,,,,,,,None,All,More than half,Most,Some,Few,Less than half,Half,Many,-0.016927083,0.329427083,1,0,0,QQQ4,,,,,,,,English,2020-07-02_10h59.54.341,Experiment_English,3.2.4,Win32,60,,,,,,,,,,,,,,,,,,,,,1,0,340,238,1,339,ratio32_12_20_9.png,,,,,,,,,,,,
,,,,,,,,,,,,All,None,Most,More than half,Some,Few,Half,Many,Less than half,-0.016927083,0.329427083,1,0,0,QQQ4,,,,,,,,English,2020-07-02_10h59.54.341,Experiment_English,3.2.4,Win32,60,,,,,,,,,,,,,,,,,,,,,1,0,340,30,1,339,ratio11_6_12_6.png,,,,,,,,,,,,
,,,,,,,,,,,,More than half,All,None,Half,Less than half,Most,Some,Many,Few,-0.526041667,-0.286458333,1,0,0,QQQ9,,,,,,,,English,2020-07-02_10h59.54.341,Experiment_English,3.2.4,Win32,60,,,,,,,,,,,,,,,,,,,,,1,0,340,140,1,339,ratio19_1_10_1.png,,,,,,,,,,,,
,,,,,,,,,,,,Few,Half,Some,None,Many,Most,More than half,All,Less than half,-0.524739583,-0.014322917,1,0,0,QQQ8,,,,,,,,English,2020-07-02_10h59.54.341,Experiment_English,3.2.4,Win32,60,,,,,,,,,,,,,,,,,,,,,1,0,340,54,1,339,ratioX0_15_15_5.png,,,,,,,,,,,,
,,,,,,,,,,,,None,Few,Less than half,Many,Some,Half,All,Most,More than half,0.015625,-0.282552083,1,0,0,QQQ6,,,,,,,,English,2020-07-02_10h59.54.341,Experiment_English,3.2.4,Win32,60,,,,,,,,,,,,,,,,,,,,,1,0,340,25,1,339,ratio11_4_8_10.png,,,,,,,,,,,,
,,,,,,,,,,,,All,Many,More than half,None,Few,Most,Less than half,Some,Half,0.015625,-0.282552083,1,0,0,QQQ6,,,,,,,,English,2020-07-02_10h59.54.341,Experiment_English,3.2.4,Win32,60,,,,,,,,,,,,,,,,,,,,,1,0,340,325,1,339,ratio91_9_10_8.png,,,,,,,,,,,,
,,,,,,,,,,,,Half,None,More than half,Most,All,Less than half,Few,Many,Some,-0.08203125,0.28515625,1,0,0,QQQ4,,,,,,,,English,2020-07-02_10h59.54.341,Experiment_English,3.2.4,Win32,60,,,,,,,,,,,,,,,,,,,,,1,0,340,208,1,339,ratio31_9_12_3.png,,,,,,,,,,,,
,,,,,,,,,,,,Many,Half,Less than half,More than half,None,Most,Some,Few,All,-0.020833333,-0.283854167,1,0,0,QQQ6,,,,,,,,English,2020-07-02_10h59.54.341,Experiment_English,3.2.4,Win32,60,,,,,,,,,,,,,,,,,,,,,1,0,340,273,1,339,ratio41_12_15_8.png,,,,,,,,,,,,
,,,,,,,,,,,,Few,Half,None,Less than half,Many,Most,All,Some,More than half,-0.020833333,-0.283854167,1,0,0,QQQ6,,,,,,,,English,2020-07-02_10h59.54.341,Experiment_English,3.2.4,Win32,60,,,,,,,,,,,,,,,,,,,,,1,0,340,32,1,339,ratio11_7_14_5.png,,,,,,,,,,,,
,,,,,,,,,,,,Less than half,All,Most,None,Half,Some,Few,Many,More than half,0.555989583,-0.3671875,1,0,0,QQQ3,,,,,,,,English,2020-07-02_10h59.54.341,Experiment_English,3.2.4,Win32,60,,,,,,,,,,,,,,,,,,,,,1,0,340,308,1,339,ratio51_10_12_9.png,,,,,,,,,,,,
,,,,,,,,,,,,None,Half,Less than half,Many,Some,All,More than half,Few,Most,0.46875,-0.31640625,1,0,0,QQQ3,,,,,,,,English,2020-07-02_10h59.54.341,Experiment_English,3.2.4,Win32,60,,,,,,,,,,,,,,,,,,,,,1,0,340,241,1,339,ratio34_3_7_5.png,,,,,,,,,,,,
,,,,,,,,,,,,Most,Many,More than half,Half,None,Few,All,Less than half,Some,-0.018229167,0.390625,1,0,0,QQQ4,,,,,,,,English,2020-07-02_10h59.54.341,Experiment_English,3.2.4,Win32,60,,,,,,,,,,,,,,,,,,,,,1,0,340,258,1,339,ratio34_6_14_14.png,,,,,,,,,,,,
,,,,,,,,,,,,Most,More than half,Many,Half,Less than half,Few,Some,All,None,0.446614583,0.024739583,1,0,0,QQQ2,,,,,,,,English,2020-07-02_10h59.54.341,Experiment_English,3.2.4,Win32,60,,,,,,,,,,,,,,,,,,,,,1,0,340,299,1,339,ratio43_8_14_17.png,,,,,,,,,,,,
,,,,,,,,,,,,More than half,Few,Less than half,Many,Half,None,All,Some,Most,0.44140625,0.04296875,1,0,0,QQQ2,,,,,,,,English,2020-07-02_10h59.54.341,Experiment_English,3.2.4,Win32,60,,,,,,,,,,,,,,,,,,,,,1,0,340,81,1,339,ratio13_1_4_5.png,,,,,,,,,,,,
,,,,,,,,,,,,Less than half,Many,Some,Few,None,All,More than half,Half,Most,-0.48046875,0.264322917,1,0,0,QQQ7,,,,,,,,English,2020-07-02_10h59.54.341,Experiment_English,3.2.4,Win32,60,,,,,,,,,,,,,,,,,,,,,1,0,340,284,1,339,ratio43_4_7_11.png,,,,,,,,,,,,
,,,,,,,,,,,,None,All,Half,More than half,Few,Many,Less than half,Some,Most,0.002604167,-0.01171875,1,0,0,QQQ5,,,,,,,,English,2020-07-02_10h59.54.341,Experiment_English,3.2.4,Win32,60,,,,,,,,,,,,,,,,,,,,,1,0,340,101,1,339,ratio14_1_5_7.png,,,,,,,,,,,,
,,,,,,,,,,,,All,Most,None,Some,Less than half,More than half,Few,Half,Many,0.505208333,0.303385417,1,0,0,QQQ1,,,,,,,,English,2020-07-02_10h59.54.341,Experiment_English,3.2.4,Win32,60,,,,,,,,,,,,,,,,,,,,,1,0,340,50,1,339,ratioX0_12_12_3.png,,,,,,,,,,,,
,,,,,,,,,,,,Many,Most,All,None,Few,Some,More than half,Half,Less than half,-0.020833333,0.03125,1,0,0,QQQ5,,,,,,,,English,2020-07-02_10h59.54.341,Experiment_English,3.2.4,Win32,60,,,,,,,,,,,,,,,,,,,,,1,0,340,125,1,339,ratio15_1_6_19.png,,,,,,,,,,,,
,,,,,,,,,,,,None,Most,Few,Less than half,Half,Some,All,More than half,Many,0.026041667,-0.372395833,1,0,0,QQQ6,,,,,,,,English,2020-07-02_10h59.54.341,Experiment_English,3.2.4,Win32,60,,,,,,,,,,,,,,,,,,,,,1,0,340,118,1,339,ratio14_4_20_8.png,,,,,,,,,,,,
,,,,,,,,,,,,Some,Most,All,Few,Half,Many,Less than half,More than half,None,-0.518229167,-0.01171875,1,0,0,QQQ8,,,,,,,,English,2020-07-02_10h59.54.341,Experiment_English,3.2.4,Win32,60,,,,,,,,,,,,,,,,,,,,,1,0,340,296,1,339,ratio43_8_14_12.png,,,,,,,,,,,,
,,,,,,,,,,,,Many,None,Few,Half,Most,More than half,Less than half,All,Some,-0.131510417,0.009114583,1,0,0,QQQ5,,,,,,,,English,2020-07-02_10h59.54.341,Experiment_English,3.2.4,Win32,60,,,,,,,,,,,,,,,,,,,,,1,0,340,310,1,339,ratio51_10_12_12.png,,,,,,,,,,,,
,,,,,,,,,,,,Few,Half,None,Most,Less than half,Many,Some,All,More than half,-0.131510417,0.009114583,1,0,0,QQQ5,,,,,,,,English,2020-07-02_10h59.54.341,Experiment_English,3.2.4,Win32,60,,,,,,,,,,,,,,,,,,,,,1,0,340,182,1,339,ratio23_2_5_7.png,,,,,,,,,,,,
,,,,,,,,,,,,Many,Most,Less than half,More than half,Half,All,Some,None,Few,-0.131510417,0.009114583,1,0,0,QQQ5,,,,,,,,English,2020-07-02_10h59.54.341,Experiment_English,3.2.4,Win32,60,,,,,,,,,,,,,,,,,,,,,1,0,340,65,1,339,ratio0Y_0_8_4.png,,,,,,,,,,,,
,,,,,,,,,,,,Some,None,More than half,Half,Few,Most,All,Less than half,Many,0.028645833,-0.013020833,1,0,0,QQQ5,,,,,,,,English,2020-07-02_10h59.54.341,Experiment_English,3.2.4,Win32,60,,,,,,,,,,,,,,,,,,,,,1,0,340,116,1,339,ratio14_4_20_3.png,,,,,,,,,,,,
,,,,,,,,,,,,Some,Most,None,Few,Half,All,Less than half,Many,More than half,0.092447917,0.321614583,1,0,0,QQQ4,,,,,,,,English,2020-07-02_10h59.54.341,Experiment_English,3.2.4,Win32,60,,,,,,,,,,,,,,,,,,,,,1,0,340,122,1,339,ratio15_1_6_7.png,,,,,,,,,,,,
,,,,,,,,,,,,None,Half,More than half,All,Some,Many,Most,Few,Less than half,0.528645833,-0.317708333,1,0,0,QQQ3,,,,,,,,English,2020-07-02_10h59.54.341,Experiment_English,3.2.4,Win32,60,,,,,,,,,,,,,,,,,,,,,1,0,340,166,1,339,ratio21_6_9_1.png,,,,,,,,,,,,
,,,,,,,,,,,,Few,Less than half,All,Half,None,Most,Many,Some,More than half,0.015625,0.303385417,1,0,0,QQQ4,,,,,,,,English,2020-07-02_10h59.54.341,Experiment_English,3.2.4,Win32,60,,,,,,,,,,,,,,,,,,,,,1,0,340,26,1,339,ratio11_5_10_4.png,0.359375,-0.377604167,1,0,0,continue_button_pause,1,0,1,0,1,0
,,,,,,,,,,,,,,,,,,,,,,,,,,,,,,,,,,English,2020-07-02_10h59.54.341,Experiment_English,3.2.4,Win32,60,,,,,,,,,,,,,,,,,,,,,1,0,340,26,1,339,ratio11_5_10_4.png,,,,,,,,,,,,
,,,,,,,,,,,,Few,Less than half,Half,None,Some,Most,Many,More than half,All,0.4375,0.274739583,1,0,0,QQQ1,,,,,,,,English,2020-07-02_10h59.54.341,Experiment_English,3.2.4,Win32,60,,,,,,,,,,,,,,,,,,,,,1,0,340,80,1,339,ratio13_1_4_3.png,,,,,,,,,,,,
,,,,,,,,,,,,Most,Less than half,Half,More than half,Some,None,Many,All,Few,0.46484375,0.236979167,1,0,0,QQQ1,,,,,,,,English,2020-07-02_10h59.54.341,Experiment_English,3.2.4,Win32,60,,,,,,,,,,,,,,,,,,,,,1,0,340,329,1,339,ratio91_9_10_20.png,,,,,,,,,,,,
,,,,,,,,,,,,Half,None,Many,Most,Some,All,More than half,Few,Less than half,-0.075520833,-0.029947917,1,0,0,QQQ5,,,,,,,,English,2020-07-02_10h59.54.341,Experiment_English,3.2.4,Win32,60,,,,,,,,,,,,,,,,,,,,,1,0,340,3,1,339,ratio12_2_6_3.png,,,,,,,,,,,,
,,,,,,,,,,,,Most,Some,Few,Less than half,None,More than half,All,Half,Many,0.505208333,0.016927083,1,0,0,QQQ2,,,,,,,,English,2020-07-02_10h59.54.341,Experiment_English,3.2.4,Win32,60,,,,,,,,,,,,,,,,,,,,,1,0,340,113,1,339,ratio14_3_15_8.png,,,,,,,,,,,,
,,,,,,,,,,,,Half,Few,Some,None,More than half,Most,All,Many,Less than half,-0.537760417,-0.270833333,1,0,0,QQQ9,,,,,,,,English,2020-07-02_10h59.54.341,Experiment_English,3.2.4,Win32,60,,,,,,,,,,,,,,,,,,,,,1,0,340,194,1,339,ratio23_6_15_10.png,,,,,,,,,,,,
,,,,,,,,,,,,Half,Many,Few,Some,Most,More than half,Less than half,None,All,-0.037760417,-0.046875,1,0,0,QQQ5,,,,,,,,English,2020-07-02_10h59.54.341,Experiment_English,3.2.4,Win32,60,,,,,,,,,,,,,,,,,,,,,1,0,340,314,1,339,ratio51_15_18_4.png,,,,,,,,,,,,
,,,,,,,,,,,,Many,Half,Most,All,Less than half,None,More than half,Few,Some,0.537760417,-0.330729167,1,0,0,QQQ3,,,,,,,,English,2020-07-02_10h59.54.341,Experiment_English,3.2.4,Win32,60,,,,,,,,,,,,,,,,,,,,,1,0,340,324,1,339,ratio91_9_10_7.png,,,,,,,,,,,,
,,,,,,,,,,,,Many,Most,Some,All,Half,None,Less than half,Few,More than half,0.401041667,0.022135417,1,0,0,QQQ2,,,,,,,,English,2020-07-02_10h59.54.341,Experiment_English,3.2.4,Win32,60,,,,,,,,,,,,,,,,,,,,,1,0,340,267,1,339,ratio41_8_10_4.png,,,,,,,,,,,,
,,,,,,,,,,,,More than half,Some,Few,None,Less than half,Most,All,Many,Half,0.42578125,0.29296875,1,0,0,QQQ1,,,,,,,,English,2020-07-02_10h59.54.341,Experiment_English,3.2.4,Win32,60,,,,,,,,,,,,,,,,,,,,,1,0,340,29,1,339,ratio11_6_12_1.png,,,,,,,,,,,,
,,,,,,,,,,,,Many,Most,Some,Half,Less than half,All,More than half,None,Few,0.506510417,0.032552083,1,0,0,QQQ2,,,,,,,,English,2020-07-02_10h59.54.341,Experiment_English,3.2.4,Win32,60,,,,,,,,,,,,,,,,,,,,,1,0,340,301,1,339,ratio51_5_6_4.png,,,,,,,,,,,,
,,,,,,,,,,,,None,Less than half,Half,Some,Few,All,Most,More than half,Many,-0.466145833,0.321614583,1,0,0,QQQ7,,,,,,,,English,2020-07-02_10h59.54.341,Experiment_English,3.2.4,Win32,60,,,,,,,,,,,,,,,,,,,,,1,0,340,261,1,339,ratio41_4_5_3.png,,,,,,,,,,,,
,,,,,,,,,,,,Half,Less than half,Many,More than half,Few,Most,None,All,Some,-0.631510417,0.02734375,1,0,0,QQQ8,,,,,,,,English,2020-07-02_10h59.54.341,Experiment_English,3.2.4,Win32,60,,,,,,,,,,,,,,,,,,,,,1,0,340,46,1,339,ratioX0_9_9_3.png,,,,,,,,,,,,
,,,,,,,,,,,,Less than half,More than half,Half,None,Some,All,Most,Many,Few,-0.08203125,0.311197917,1,0,0,QQQ4,,,,,,,,English,2020-07-02_10h59.54.341,Experiment_English,3.2.4,Win32,60,,,,,,,,,,,,,,,,,,,,,1,0,340,73,1,339,ratio0Y_0_14_7.png,,,,,,,,,,,,
,,,,,,,,,,,,Many,Less than half,Most,None,All,More than half,Some,Half,Few,-0.08203125,0.311197917,1,0,0,QQQ4,,,,,,,,English,2020-07-02_10h59.54.341,Experiment_English,3.2.4,Win32,60,,,,,,,,,,,,,,,,,,,,,1,0,340,61,1,339,ratio0Y_0_4_7.png,,,,,,,,,,,,
,,,,,,,,,,,,Less than half,Some,None,Few,More than half,All,Many,Most,Half,-0.450520833,-0.020833333,1,0,0,QQQ8,,,,,,,,English,2020-07-02_10h59.54.341,Experiment_English,3.2.4,Win32,60,,,,,,,,,,,,,,,,,,,,,1,0,340,269,1,339,ratio41_8_10_6.png,,,,,,,,,,,,
,,,,,,,,,,,,More than half,Few,Most,All,Less than half,None,Half,Many,Some,0.520833333,-0.307291667,1,0,0,QQQ3,,,,,,,,English,2020-07-02_10h59.54.341,Experiment_English,3.2.4,Win32,60,,,,,,,,,,,,,,,,,,,,,1,0,340,306,1,339,ratio51_5_6_18.png,,,,,,,,,,,,
,,,,,,,,,,,,Few,None,Most,Many,Half,All,Less than half,More than half,Some,-0.510416667,0.274739583,1,0,0,QQQ7,,,,,,,,English,2020-07-02_10h59.54.341,Experiment_English,3.2.4,Win32,60,,,,,,,,,,,,,,,,,,,,,1,0,340,247,1,339,ratio34_3_7_12.png,,,,,,,,,,,,
,,,,,,,,,,,,Half,Few,None,Less than half,All,Many,Some,More than half,Most,-0.477864583,0.053385417,1,0,0,QQQ8,,,,,,,,English,2020-07-02_10h59.54.341,Experiment_English,3.2.4,Win32,60,,,,,,,,,,,,,,,,,,,,,1,0,340,228,1,339,ratio32_6_10_7.png,,,,,,,,,,,,
,,,,,,,,,,,,Few,More than half,All,Some,Many,None,Less than half,Half,Most,-0.4921875,0.274739583,1,0,0,QQQ7,,,,,,,,English,2020-07-02_10h59.54.341,Experiment_English,3.2.4,Win32,60,,,,,,,,,,,,,,,,,,,,,1,0,340,244,1,339,ratio34_3_7_9.png,,,,,,,,,,,,
,,,,,,,,,,,,Many,Most,All,More than half,Few,Half,None,Some,Less than half,0.5234375,-0.013020833,1,0,0,QQQ2,,,,,,,,English,2020-07-02_10h59.54.341,Experiment_English,3.2.4,Win32,60,,,,,,,,,,,,,,,,,,,,,1,0,340,212,1,339,ratio31_12_16_1.png,,,,,,,,,,,,
,,,,,,,,,,,,All,Half,Some,Most,More than half,None,Less than half,Few,Many,-0.45703125,0.299479167,1,0,0,QQQ7,,,,,,,,English,2020-07-02_10h59.54.341,Experiment_English,3.2.4,Win32,60,,,,,,,,,,,,,,,,,,,,,1,0,340,243,1,339,ratio34_3_7_8.png,,,,,,,,,,,,
,,,,,,,,,,,,Less than half,More than half,Many,Few,Half,Most,None,All,Some,-0.029947917,-0.33984375,1,0,0,QQQ6,,,,,,,,English,2020-07-02_10h59.54.341,Experiment_English,3.2.4,Win32,60,,,,,,,,,,,,,,,,,,,,,1,0,340,274,1,339,ratio41_12_15_9.png,,,,,,,,,,,,
,,,,,,,,,,,,Many,Some,None,All,Less than half,More than half,Few,Most,Half,-0.44921875,-0.03125,1,0,0,QQQ8,,,,,,,,English,2020-07-02_10h59.54.341,Experiment_English,3.2.4,Win32,60,,,,,,,,,,,,,,,,,,,,,1,0,340,172,1,339,ratio21_8_12_6.png,,,,,,,,,,,,
,,,,,,,,,,,,Few,Many,Less than half,Most,Some,More than half,Half,None,All,0,0.34765625,1,0,0,QQQ4,,,,,,,,English,2020-07-02_10h59.54.341,Experiment_English,3.2.4,Win32,60,,,,,,,,,,,,,,,,,,,,,1,0,340,266,1,339,ratio41_8_10_2.png,,,,,,,,,,,,
,,,,,,,,,,,,Few,Some,None,Most,Half,Many,All,More than half,Less than half,0.467447917,0.024739583,1,0,0,QQQ2,,,,,,,,English,2020-07-02_10h59.54.341,Experiment_English,3.2.4,Win32,60,,,,,,,,,,,,,,,,,,,,,1,0,340,95,1,339,ratio13_4_16_10.png,,,,,,,,,,,,
,,,,,,,,,,,,Less than half,Some,All,Half,Few,Most,More than half,Many,None,0.063802083,0.338541667,1,0,0,QQQ4,,,,,,,,English,2020-07-02_10h59.54.341,Experiment_English,3.2.4,Win32,60,,,,,,,,,,,,,,,,,,,,,1,0,340,21,1,339,ratio11_2_4_10.png,,,,,,,,,,,,
,,,,,,,,,,,,Half,Many,None,Less than half,More than half,All,Most,Some,Few,0.483072917,-0.274739583,1,0,0,QQQ3,,,,,,,,English,2020-07-02_10h59.54.341,Experiment_English,3.2.4,Win32,60,,,,,,,,,,,,,,,,,,,,,1,0,340,70,1,339,ratio0Y_0_12_5.png,,,,,,,,,,,,
,,,,,,,,,,,,Half,Few,Many,Some,None,All,Less than half,Most,More than half,-0.424479167,-0.052083333,1,0,0,QQQ8,,,,,,,,English,2020-07-02_10h59.54.341,Experiment_English,3.2.4,Win32,60,,,,,,,,,,,,,,,,,,,,,1,0,340,333,1,339,ratio91_18_20_6.png,,,,,,,,,,,,
,,,,,,,,,,,,More than half,Less than half,Many,All,Half,Most,None,Some,Few,-0.0390625,-0.295572917,1,0,0,QQQ6,,,,,,,,English,2020-07-02_10h59.54.341,Experiment_English,3.2.4,Win32,60,,,,,,,,,,,,,,,,,,,,,1,0,340,279,1,339,ratio41_16_20_10.png,,,,,,,,,,,,
,,,,,,,,,,,,More than half,Most,Some,None,All,Less than half,Half,Many,Few,0.419270833,0.255208333,1,0,0,QQQ1,,,,,,,,English,2020-07-02_10h59.54.341,Experiment_English,3.2.4,Win32,60,,,,,,,,,,,,,,,,,,,,,1,0,340,221,1,339,ratio32_3_5_3.png,,,,,,,,,,,,
,,,,,,,,,,,,None,Some,All,Less than half,Most,Many,More than half,Few,Half,-0.5703125,0.036458333,1,0,0,QQQ8,,,,,,,,English,2020-07-02_10h59.54.341,Experiment_English,3.2.4,Win32,60,,,,,,,,,,,,,,,,,,,,,1,0,340,134,1,339,ratio15_3_18_5.png,,,,,,,,,,,,
,,,,,,,,,,,,All,More than half,Some,Most,Many,None,Less than half,Half,Few,-0.47265625,0.010416667,1,0,0,QQQ8,,,,,,,,English,2020-07-02_10h59.54.341,Experiment_English,3.2.4,Win32,60,,,,,,,,,,,,,,,,,,,,,1,0,340,197,1,339,ratio23_8_20_6.png,,,,,,,,,,,,
,,,,,,,,,,,,Some,Few,None,Less than half,Half,Many,Most,All,More than half,-0.47265625,0.010416667,1,0,0,QQQ8,,,,,,,,English,2020-07-02_10h59.54.341,Experiment_English,3.2.4,Win32,60,,,,,,,,,,,,,,,,,,,,,1,0,340,45,1,339,ratioX0_8_8_3.png,,,,,,,,,,,,
,,,,,,,,,,,,Less than half,Few,Most,Some,Many,All,None,Half,More than half,0.466145833,0.296875,1,0,0,QQQ1,,,,,,,,English,2020-07-02_10h59.54.341,Experiment_English,3.2.4,Win32,60,,,,,,,,,,,,,,,,,,,,,1,0,340,195,1,339,ratio23_8_20_1.png,0.346354167,-0.404947917,1,0,0,continue_button_pause,1,0,1,0,1,0
,,,,,,,,,,,,,,,,,,,,,,,,,,,,,,,,,,English,2020-07-02_10h59.54.341,Experiment_English,3.2.4,Win32,60,,,,,,,,,,,,,,,,,,,,,1,0,340,195,1,339,ratio23_8_20_1.png,,,,,,,,,,,,
,,,,,,,,,,,,All,Many,Half,Some,Few,Less than half,More than half,None,Most,-0.53125,-0.322916667,1,0,0,QQQ9,,,,,,,,English,2020-07-02_10h59.54.341,Experiment_English,3.2.4,Win32,60,,,,,,,,,,,,,,,,,,,,,1,0,340,205,1,339,ratio31_6_8_2.png,,,,,,,,,,,,
,,,,,,,,,,,,None,Few,Less than half,Many,Half,More than half,All,Most,Some,-0.53125,-0.322916667,1,0,0,QQQ9,,,,,,,,English,2020-07-02_10h59.54.341,Experiment_English,3.2.4,Win32,60,,,,,,,,,,,,,,,,,,,,,1,0,340,334,1,339,ratio91_18_20_9.png,,,,,,,,,,,,
,,,,,,,,,,,,Most,Some,All,Less than half,Many,None,Half,More than half,Few,-0.541666667,-0.005208333,1,0,0,QQQ8,,,,,,,,English,2020-07-02_10h59.54.341,Experiment_English,3.2.4,Win32,60,,,,,,,,,,,,,,,,,,,,,1,0,340,223,1,339,ratio32_3_5_5.png,,,,,,,,,,,,
,,,,,,,,,,,,None,Few,Some,Most,Many,Half,Less than half,More than half,All,-0.0625,0.2890625,1,0,0,QQQ4,,,,,,,,English,2020-07-02_10h59.54.341,Experiment_English,3.2.4,Win32,60,,,,,,,,,,,,,,,,,,,,,1,0,340,309,1,339,ratio51_10_12_10.png,,,,,,,,,,,,
,,,,,,,,,,,,Half,Some,Many,More than half,All,Few,Most,None,Less than half,-0.404947917,0.283854167,1,0,0,QQQ7,,,,,,,,English,2020-07-02_10h59.54.341,Experiment_English,3.2.4,Win32,60,,,,,,,,,,,,,,,,,,,,,1,0,340,214,1,339,ratio31_12_16_5.png,,,,,,,,,,,,
,,,,,,,,,,,,More than half,None,Most,Some,All,Few,Half,Less than half,Many,0.037760417,-0.231770833,1,0,0,QQQ6,,,,,,,,English,2020-07-02_10h59.54.341,Experiment_English,3.2.4,Win32,60,,,,,,,,,,,,,,,,,,,,,1,0,340,111,1,339,ratio14_3_15_3.png,,,,,,,,,,,,
,,,,,,,,,,,,Half,More than half,Most,Few,None,Many,Less than half,All,Some,0.453125,-0.03125,1,0,0,QQQ2,,,,,,,,English,2020-07-02_10h59.54.341,Experiment_English,3.2.4,Win32,60,,,,,,,,,,,,,,,,,,,,,1,0,340,283,1,339,ratio43_4_7_8.png,,,,,,,,,,,,
,,,,,,,,,,,,Less than half,Half,Many,Few,Some,More than half,Most,None,All,0.419270833,0.346354167,1,0,0,QQQ1,,,,,,,,English,2020-07-02_10h59.54.341,Experiment_English,3.2.4,Win32,60,,,,,,,,,,,,,,,,,,,,,1,0,340,254,1,339,ratio34_6_14_9.png,,,,,,,,,,,,
,,,,,,,,,,,,More than half,Less than half,None,Most,All,Few,Half,Some,Many,0.013020833,-0.294270833,1,0,0,QQQ6,,,,,,,,English,2020-07-02_10h59.54.341,Experiment_English,3.2.4,Win32,60,,,,,,,,,,,,,,,,,,,,,1,0,340,104,1,339,ratio14_1_5_10.png,,,,,,,,,,,,
,,,,,,,,,,,,Most,Some,Few,Half,More than half,All,Many,None,Less than half,-0.505208333,0.022135417,1,0,0,QQQ8,,,,,,,,English,2020-07-02_10h59.54.341,Experiment_English,3.2.4,Win32,60,,,,,,,,,,,,,,,,,,,,,1,0,340,68,1,339,ratio0Y_0_11_3.png,,,,,,,,,,,,
,,,,,,,,,,,,Few,None,More than half,Many,All,Some,Most,Less than half,Half,0.401041667,0.256510417,1,0,0,QQQ1,,,,,,,,English,2020-07-02_10h59.54.341,Experiment_English,3.2.4,Win32,60,,,,,,,,,,,,,,,,,,,,,1,0,340,86,1,339,ratio13_2_8_6.png,,,,,,,,,,,,
,,,,,,,,,,,,Many,Less than half,None,More than half,Most,Some,Few,Half,All,0.46875,-0.272135417,1,0,0,QQQ3,,,,,,,,English,2020-07-02_10h59.54.341,Experiment_English,3.2.4,Win32,60,,,,,,,,,,,,,,,,,,,,,1,0,340,74,1,339,ratio0Y_0_15_10.png,,,,,,,,,,,,
,,,,,,,,,,,,Half,None,All,Most,Few,More than half,Some,Less than half,Many,0.048177083,-0.2890625,1,0,0,QQQ6,,,,,,,,English,2020-07-02_10h59.54.341,Experiment_English,3.2.4,Win32,60,,,,,,,,,,,,,,,,,,,,,1,0,340,33,1,339,ratio11_7_14_8.png,,,,,,,,,,,,
,,,,,,,,,,,,None,Half,Many,Some,Most,All,Less than half,Few,More than half,0.015625,-0.052083333,1,0,0,QQQ5,,,,,,,,English,2020-07-02_10h59.54.341,Experiment_English,3.2.4,Win32,60,,,,,,,,,,,,,,,,,,,,,1,0,340,260,1,339,ratio41_4_5_2.png,,,,,,,,,,,,
,,,,,,,,,,,,Many,All,More than half,Half,Few,Most,None,Some,Less than half,0.033854167,-0.364583333,1,0,0,QQQ6,,,,,,,,English,2020-07-02_10h59.54.341,Experiment_English,3.2.4,Win32,60,,,,,,,,,,,,,,,,,,,,,1,0,340,265,1,339,ratio41_8_10_1.png,,,,,,,,,,,,
,,,,,,,,,,,,Less than half,Most,More than half,Half,Some,All,Many,None,Few,0.037760417,-0.061197917,1,0,0,QQQ5,,,,,,,,English,2020-07-02_10h59.54.341,Experiment_English,3.2.4,Win32,60,,,,,,,,,,,,,,,,,,,,,1,0,340,115,1,339,ratio14_4_20_1.png,,,,,,,,,,,,
,,,,,,,,,,,,Half,Some,Few,Less than half,Most,Many,All,More than half,None,-0.419270833,0.015625,1,0,0,QQQ8,,,,,,,,English,2020-07-02_10h59.54.341,Experiment_English,3.2.4,Win32,60,,,,,,,,,,,,,,,,,,,,,1,0,340,198,1,339,ratio23_8_20_7.png,,,,,,,,,,,,
,,,,,,,,,,,,None,Some,More than half,All,Few,Many,Most,Less than half,Half,0.446614583,-0.264322917,1,0,0,QQQ3,,,,,,,,English,2020-07-02_10h59.54.341,Experiment_English,3.2.4,Win32,60,,,,,,,,,,,,,,,,,,,,,1,0,340,28,1,339,ratio11_5_10_9.png,,,,,,,,,,,,
,,,,,,,,,,,,Most,Many,All,Half,Few,Some,Less than half,More than half,None,-0.427083333,0.295572917,1,0,0,QQQ7,,,,,,,,English,2020-07-02_10h59.54.341,Experiment_English,3.2.4,Win32,60,,,,,,,,,,,,,,,,,,,,,1,0,340,196,1,339,ratio23_8_20_5.png,,,,,,,,,,,,
,,,,,,,,,,,,More than half,Some,Few,Many,None,Less than half,Half,All,Most,-0.111979167,-0.321614583,1,0,0,QQQ6,,,,,,,,English,2020-07-02_10h59.54.341,Experiment_English,3.2.4,Win32,60,,,,,,,,,,,,,,,,,,,,,1,0,340,19,1,339,ratio12_6_18_9.png,,,,,,,,,,,,
,,,,,,,,,,,,Few,Half,Many,More than half,Some,Less than half,Most,None,All,-0.138020833,0.24609375,1,0,0,QQQ4,,,,,,,,English,2020-07-02_10h59.54.341,Experiment_English,3.2.4,Win32,60,,,,,,,,,,,,,,,,,,,,,1,0,340,227,1,339,ratio32_6_10_6.png,,,,,,,,,,,,
,,,,,,,,,,,,Some,Few,Less than half,Most,Half,Many,More than half,All,None,-0.0390625,0.330729167,1,0,0,QQQ4,,,,,,,,English,2020-07-02_10h59.54.341,Experiment_English,3.2.4,Win32,60,,,,,,,,,,,,,,,,,,,,,1,0,340,331,1,339,ratio91_18_20_3.png,,,,,,,,,,,,
,,,,,,,,,,,,Less than half,None,Some,Few,All,Half,Most,Many,More than half,-0.018229167,-0.325520833,1,0,0,QQQ6,,,,,,,,English,2020-07-02_10h59.54.341,Experiment_English,3.2.4,Win32,60,,,,,,,,,,,,,,,,,,,,,1,0,340,250,1,339,ratio34_6_14_1.png,,,,,,,,,,,,
,,,,,,,,,,,,Many,Most,More than half,Less than half,All,Half,Few,Some,None,-0.463541667,0.303385417,1,0,0,QQQ7,,,,,,,,English,2020-07-02_10h59.54.341,Experiment_English,3.2.4,Win32,60,,,,,,,,,,,,,,,,,,,,,1,0,340,158,1,339,ratio19_2_20_17.png,,,,,,,,,,,,
,,,,,,,,,,,,Half,Most,More than half,None,Some,Many,Few,Less than half,All,-0.463541667,0.303385417,1,0,0,QQQ7,,,,,,,,English,2020-07-02_10h59.54.341,Experiment_English,3.2.4,Win32,60,,,,,,,,,,,,,,,,,,,,,1,0,340,153,1,339,ratio19_2_20_8.png,,,,,,,,,,,,
,,,,,,,,,,,,Most,All,None,Less than half,Half,Some,Few,More than half,Many,-0.026041667,-0.356770833,1,0,0,QQQ6,,,,,,,,English,2020-07-02_10h59.54.341,Experiment_English,3.2.4,Win32,60,,,,,,,,,,,,,,,,,,,,,1,0,340,6,1,339,ratio12_3_9_1.png,,,,,,,,,,,,
,,,,,,,,,,,,Less than half,More than half,Half,All,None,Many,Few,Most,Some,0.354166667,0.2578125,1,0,0,QQQ1,,,,,,,,English,2020-07-02_10h59.54.341,Experiment_English,3.2.4,Win32,60,,,,,,,,,,,,,,,,,,,,,1,0,340,184,1,339,ratio23_2_5_10.png,,,,,,,,,,,,
,,,,,,,,,,,,Some,Half,None,More than half,All,Few,Many,Most,Less than half,-0.489583333,0.059895833,1,0,0,QQQ8,,,,,,,,English,2020-07-02_10h59.54.341,Experiment_English,3.2.4,Win32,60,,,,,,,,,,,,,,,,,,,,,1,0,340,263,1,339,ratio41_4_5_5.png,,,,,,,,,,,,
,,,,,,,,,,,,Few,Many,Most,Half,None,Less than half,More than half,All,Some,0.555989583,-0.325520833,1,0,0,QQQ3,,,,,,,,English,2020-07-02_10h59.54.341,Experiment_English,3.2.4,Win32,60,,,,,,,,,,,,,,,,,,,,,1,0,340,271,1,339,ratio41_12_15_6.png,,,,,,,,,,,,
,,,,,,,,,,,,More than half,Some,Many,Most,Less than half,Few,All,Half,None,-0.489583333,-0.067708333,1,0,0,QQQ8,,,,,,,,English,2020-07-02_10h59.54.341,Experiment_English,3.2.4,Win32,60,,,,,,,,,,,,,,,,,,,,,1,0,340,245,1,339,ratio34_3_7_10.png,,,,,,,,,,,,
,,,,,,,,,,,,More than half,Half,Many,Most,Few,Some,All,None,Less than half,0.455729167,0.303385417,1,0,0,QQQ1,,,,,,,,English,2020-07-02_10h59.54.341,Experiment_English,3.2.4,Win32,60,,,,,,,,,,,,,,,,,,,,,1,0,340,237,1,339,ratio32_12_20_5.png,,,,,,,,,,,,
,,,,,,,,,,,,Many,Few,Half,All,Less than half,Some,None,Most,More than half,-0.048177083,0.334635417,1,0,0,QQQ4,,,,,,,,English,2020-07-02_10h59.54.341,Experiment_English,3.2.4,Win32,60,,,,,,,,,,,,,,,,,,,,,1,0,340,44,1,339,ratioX0_7_7_5.png,,,,,,,,,,,,
,,,,,,,,,,,,Most,Half,Many,More than half,All,Few,Some,None,Less than half,0.010416667,-0.342447917,1,0,0,QQQ6,,,,,,,,English,2020-07-02_10h59.54.341,Experiment_English,3.2.4,Win32,60,,,,,,,,,,,,,,,,,,,,,1,0,340,126,1,339,ratio15_2_12_1.png,,,,,,,,,,,,
,,,,,,,,,,,,More than half,Few,None,All,Most,Many,Some,Half,Less than half,0.41796875,0.239583333,1,0,0,QQQ1,,,,,,,,English,2020-07-02_10h59.54.341,Experiment_English,3.2.4,Win32,60,,,,,,,,,,,,,,,,,,,,,1,0,340,293,1,339,ratio43_8_14_7.png,0.307291667,-0.42578125,1,0,0,continue_button_pause,1,0,1,0,1,0
,,,,,,,,,,,,,,,,,,,,,,,,,,,,,,,,,,English,2020-07-02_10h59.54.341,Experiment_English,3.2.4,Win32,60,,,,,,,,,,,,,,,,,,,,,1,0,340,293,1,339,ratio43_8_14_7.png,,,,,,,,,,,,
,,,,,,,,,,,,Less than half,Few,Half,Many,Some,All,More than half,Most,None,0.453125,0.376302083,1,0,0,QQQ1,,,,,,,,English,2020-07-02_10h59.54.341,Experiment_English,3.2.4,Win32,60,,,,,,,,,,,,,,,,,,,,,1,0,340,180,1,339,ratio23_2_5_4.png,,,,,,,,,,,,
,,,,,,,,,,,,Half,More than half,Less than half,None,Most,Few,Some,Many,All,-0.069010417,-0.276041667,1,0,0,QQQ6,,,,,,,,English,2020-07-02_10h59.54.341,Experiment_English,3.2.4,Win32,60,,,,,,,,,,,,,,,,,,,,,1,0,340,137,1,339,ratio15_3_18_16.png,,,,,,,,,,,,
,,,,,,,,,,,,None,Most,Less than half,More than half,Many,All,Some,Half,Few,-0.44921875,-0.239583333,1,0,0,QQQ9,,,,,,,,English,2020-07-02_10h59.54.341,Experiment_English,3.2.4,Win32,60,,,,,,,,,,,,,,,,,,,,,1,0,340,90,1,339,ratio13_3_12_7.png,,,,,,,,,,,,
,,,,,,,,,,,,More than half,All,Some,Half,Less than half,None,Many,Few,Most,0.459635417,-0.287760417,1,0,0,QQQ3,,,,,,,,English,2020-07-02_10h59.54.341,Experiment_English,3.2.4,Win32,60,,,,,,,,,,,,,,,,,,,,,1,0,340,14,1,339,ratio12_5_15_4.png,,,,,,,,,,,,
,,,,,,,,,,,,Less than half,Few,Many,More than half,None,Some,Half,Most,All,0.4921875,0.26953125,1,0,0,QQQ1,,,,,,,,English,2020-07-02_10h59.54.341,Experiment_English,3.2.4,Win32,60,,,,,,,,,,,,,,,,,,,,,1,0,340,255,1,339,ratio34_6_14_10.png,,,,,,,,,,,,
,,,,,,,,,,,,Many,Most,Half,Less than half,Some,All,Few,None,More than half,0.493489583,-0.395833333,1,0,0,QQQ3,,,,,,,,English,2020-07-02_10h59.54.341,Experiment_English,3.2.4,Win32,60,,,,,,,,,,,,,,,,,,,,,1,0,340,249,1,339,ratio34_3_7_20.png,,,,,,,,,,,,
,,,,,,,,,,,,Few,Some,Most,Half,None,More than half,Less than half,Many,All,0.016927083,-0.29296875,1,0,0,QQQ6,,,,,,,,English,2020-07-02_10h59.54.341,Experiment_English,3.2.4,Win32,60,,,,,,,,,,,,,,,,,,,,,1,0,340,225,1,339,ratio32_6_10_4.png,,,,,,,,,,,,
,,,,,,,,,,,,None,Less than half,Most,All,Few,Half,Some,Many,More than half,-0.459635417,-0.330729167,1,0,0,QQQ9,,,,,,,,English,2020-07-02_10h59.54.341,Experiment_English,3.2.4,Win32,60,,,,,,,,,,,,,,,,,,,,,1,0,340,295,1,339,ratio43_8_14_11.png,,,,,,,,,,,,
,,,,,,,,,,,,Less than half,Some,Most,Few,More than half,None,Many,All,Half,0.4296875,-0.279947917,1,0,0,QQQ3,,,,,,,,English,2020-07-02_10h59.54.341,Experiment_English,3.2.4,Win32,60,,,,,,,,,,,,,,,,,,,,,1,0,340,210,1,339,ratio31_9_12_9.png,,,,,,,,,,,,
,,,,,,,,,,,,All,None,More than half,Few,Some,Half,Less than half,Most,Many,0.032552083,-0.299479167,1,0,0,QQQ6,,,,,,,,English,2020-07-02_10h59.54.341,Experiment_English,3.2.4,Win32,60,,,,,,,,,,,,,,,,,,,,,1,0,340,287,1,339,ratio43_4_7_17.png,,,,,,,,,,,,
,,,,,,,,,,,,Less than half,Some,Few,All,None,Half,Many,Most,More than half,0.388020833,0.268229167,1,0,0,QQQ1,,,,,,,,English,2020-07-02_10h59.54.341,Experiment_English,3.2.4,Win32,60,,,,,,,,,,,,,,,,,,,,,1,0,340,193,1,339,ratio23_6_15_9.png,,,,,,,,,,,,
,,,,,,,,,,,,Most,More than half,Half,None,All,Some,Many,Less than half,Few,-0.053385417,0.03515625,1,0,0,QQQ5,,,,,,,,English,2020-07-02_10h59.54.341,Experiment_English,3.2.4,Win32,60,,,,,,,,,,,,,,,,,,,,,1,0,340,51,1,339,ratioX0_12_12_9.png,,,,,,,,,,,,
,,,,,,,,,,,,All,Some,Most,Half,Many,More than half,Less than half,None,Few,0.53515625,-0.28125,1,0,0,QQQ3,,,,,,,,English,2020-07-02_10h59.54.341,Experiment_English,3.2.4,Win32,60,,,,,,,,,,,,,,,,,,,,,1,0,340,216,1,339,ratio31_15_20_3.png,,,,,,,,,,,,
,,,,,,,,,,,,Most,More than half,Less than half,None,Half,Many,Some,All,Few,-0.61328125,-0.307291667,1,0,0,QQQ9,,,,,,,,English,2020-07-02_10h59.54.341,Experiment_English,3.2.4,Win32,60,,,,,,,,,,,,,,,,,,,,,1,0,340,121,1,339,ratio15_1_6_4.png,,,,,,,,,,,,
,,,,,,,,,,,,Less than half,Few,More than half,Half,Some,None,Many,Most,All,0.43359375,-0.3046875,1,0,0,QQQ3,,,,,,,,English,2020-07-02_10h59.54.341,Experiment_English,3.2.4,Win32,60,,,,,,,,,,,,,,,,,,,,,1,0,340,291,1,339,ratio43_8_14_5.png,,,,,,,,,,,,
,,,,,,,,,,,,Less than half,None,More than half,Some,Most,All,Few,Many,Half,-0.541666667,0.268229167,1,0,0,QQQ7,,,,,,,,English,2020-07-02_10h59.54.341,Experiment_English,3.2.4,Win32,60,,,,,,,,,,,,,,,,,,,,,1,0,340,107,1,339,ratio14_2_10_5.png,,,,,,,,,,,,
,,,,,,,,,,,,All,Less than half,None,Half,Many,Some,Few,Most,More than half,-0.54296875,0.268229167,1,0,0,QQQ7,,,,,,,,English,2020-07-02_10h59.54.341,Experiment_English,3.2.4,Win32,60,,,,,,,,,,,,,,,,,,,,,1,0,340,145,1,339,ratio19_1_10_15.png,,,,,,,,,,,,
,,,,,,,,,,,,More than half,Few,None,Half,All,Some,Less than half,Most,Many,-0.420572917,0.26953125,1,0,0,QQQ7,,,,,,,,English,2020-07-02_10h59.54.341,Experiment_English,3.2.4,Win32,60,,,,,,,,,,,,,,,,,,,,,1,0,340,18,1,339,ratio12_6_18_7.png,,,,,,,,,,,,
,,,,,,,,,,,,None,Some,All,Less than half,More than half,Few,Most,Half,Many,0.009114583,0.315104167,1,0,0,QQQ4,,,,,,,,English,2020-07-02_10h59.54.341,Experiment_English,3.2.4,Win32,60,,,,,,,,,,,,,,,,,,,,,1,0,340,17,1,339,ratio12_6_18_5.png,,,,,,,,,,,,
,,,,,,,,,,,,Some,All,Many,More than half,None,Few,Less than half,Most,Half,-0.05078125,-0.259114583,1,0,0,QQQ6,,,,,,,,English,2020-07-02_10h59.54.341,Experiment_English,3.2.4,Win32,60,,,,,,,,,,,,,,,,,,,,,1,0,340,147,1,339,ratio19_1_10_18.png,,,,,,,,,,,,
,,,,,,,,,,,,Half,None,More than half,Many,All,Most,Some,Less than half,Few,0.37890625,0.2578125,1,0,0,QQQ1,,,,,,,,English,2020-07-02_10h59.54.341,Experiment_English,3.2.4,Win32,60,,,,,,,,,,,,,,,,,,,,,1,0,340,24,1,339,ratio11_4_8_3.png,,,,,,,,,,,,
,,,,,,,,,,,,Some,Most,Less than half,More than half,None,Few,Half,All,Many,-0.470052083,0.024739583,1,0,0,QQQ8,,,,,,,,English,2020-07-02_10h59.54.341,Experiment_English,3.2.4,Win32,60,,,,,,,,,,,,,,,,,,,,,1,0,340,53,1,339,ratioX0_14_14_8.png,,,,,,,,,,,,
,,,,,,,,,,,,More than half,Some,Few,Half,All,Most,Many,None,Less than half,-0.046875,-0.3046875,1,0,0,QQQ6,,,,,,,,English,2020-07-02_10h59.54.341,Experiment_English,3.2.4,Win32,60,,,,,,,,,,,,,,,,,,,,,1,0,340,276,1,339,ratio41_16_20_4.png,,,,,,,,,,,,
,,,,,,,,,,,,Half,Most,Many,Few,Less than half,All,Some,More than half,None,0.436197917,-0.032552083,1,0,0,QQQ2,,,,,,,,English,2020-07-02_10h59.54.341,Experiment_English,3.2.4,Win32,60,,,,,,,,,,,,,,,,,,,,,1,0,340,231,1,339,ratio32_9_15_2.png,,,,,,,,,,,,
,,,,,,,,,,,,Less than half,Many,Few,Some,All,Half,None,More than half,Most,0.03125,-0.01953125,1,0,0,QQQ5,,,,,,,,English,2020-07-02_10h59.54.341,Experiment_English,3.2.4,Win32,60,,,,,,,,,,,,,,,,,,,,,1,0,340,55,1,339,ratioX0_16_16_3.png,,,,,,,,,,,,
,,,,,,,,,,,,Some,Less than half,Half,Many,Few,All,More than half,None,Most,0.494791667,-0.013020833,1,0,0,QQQ2,,,,,,,,English,2020-07-02_10h59.54.341,Experiment_English,3.2.4,Win32,60,,,,,,,,,,,,,,,,,,,,,1,0,340,248,1,339,ratio34_3_7_19.png,,,,,,,,,,,,
,,,,,,,,,,,,Many,Half,Most,Less than half,Some,More than half,Few,All,None,0.471354167,-0.345052083,1,0,0,QQQ3,,,,,,,,English,2020-07-02_10h59.54.341,Experiment_English,3.2.4,Win32,60,,,,,,,,,,,,,,,,,,,,,1,0,340,202,1,339,ratio31_3_4_8.png,,,,,,,,,,,,
,,,,,,,,,,,,Less than half,More than half,Half,Most,All,None,Many,Few,Some,0.005208333,0.330729167,1,0,0,QQQ4,,,,,,,,English,2020-07-02_10h59.54.341,Experiment_English,3.2.4,Win32,60,,,,,,,,,,,,,,,,,,,,,1,0,340,229,1,339,ratio32_6_10_9.png,,,,,,,,,,,,
,,,,,,,,,,,,Few,None,All,More than half,Less than half,Many,Most,Half,Some,0.084635417,0.059895833,1,0,0,QQQ5,,,,,,,,English,2020-07-02_10h59.54.341,Experiment_English,3.2.4,Win32,60,,,,,,,,,,,,,,,,,,,,,1,0,340,1,1,339,ratio12_1_3_7.png,,,,,,,,,,,,
,,,,,,,,,,,,Some,Few,Less than half,More than half,Many,All,Half,None,Most,-0.455729167,-0.317708333,1,0,0,QQQ9,,,,,,,,English,2020-07-02_10h59.54.341,Experiment_English,3.2.4,Win32,60,,,,,,,,,,,,,,,,,,,,,1,0,340,313,1,339,ratio51_15_18_2.png,,,,,,,,,,,,
,,,,,,,,,,,,Some,None,Many,Few,Half,Less than half,More than half,All,Most,-0.106770833,-0.272135417,1,0,0,QQQ6,,,,,,,,English,2020-07-02_10h59.54.341,Experiment_English,3.2.4,Win32,60,,,,,,,,,,,,,,,,,,,,,1,0,340,252,1,339,ratio34_6_14_3.png,,,,,,,,,,,,
,,,,,,,,,,,,Many,Most,Less than half,Some,Few,More than half,All,Half,None,0.416666667,-0.026041667,1,0,0,QQQ2,,,,,,,,English,2020-07-02_10h59.54.341,Experiment_English,3.2.4,Win32,60,,,,,,,,,,,,,,,,,,,,,1,0,340,264,1,339,ratio41_4_5_6.png,,,,,,,,,,,,
,,,,,,,,,,,,Some,Half,More than half,Most,Less than half,Many,Few,None,All,-0.427083333,0.061197917,1,0,0,QQQ8,,,,,,,,English,2020-07-02_10h59.54.341,Experiment_English,3.2.4,Win32,60,,,,,,,,,,,,,,,,,,,,,1,0,340,78,1,339,ratio0Y_0_19_1.png,,,,,,,,,,,,
,,,,,,,,,,,,Half,More than half,All,Many,Few,Some,Less than half,Most,None,-0.421875,-0.036458333,1,0,0,QQQ8,,,,,,,,English,2020-07-02_10h59.54.341,Experiment_English,3.2.4,Win32,60,,,,,,,,,,,,,,,,,,,,,1,0,340,234,1,339,ratio32_9_15_10.png,0.3515625,-0.3828125,1,0,0,continue_button_pause,1,0,1,0,1,0
,,,,,,,,,,,,,,,,,,,,,,,,,,,,,,,,,,English,2020-07-02_10h59.54.341,Experiment_English,3.2.4,Win32,60,,,,,,,,,,,,,,,,,,,,,1,0,340,234,1,339,ratio32_9_15_10.png,,,,,,,,,,,,
,,,,,,,,,,,,More than half,Half,Few,Most,Some,None,Many,All,Less than half,0.442708333,-0.34375,1,0,0,QQQ3,,,,,,,,English,2020-07-02_10h59.54.341,Experiment_English,3.2.4,Win32,60,,,,,,,,,,,,,,,,,,,,,1,0,340,129,1,339,ratio15_2_12_9.png,,,,,,,,,,,,
,,,,,,,,,,,,Less than half,Few,None,Many,Some,All,Most,Half,More than half,-0.483072917,0.3125,1,0,0,QQQ7,,,,,,,,English,2020-07-02_10h59.54.341,Experiment_English,3.2.4,Win32,60,,,,,,,,,,,,,,,,,,,,,1,0,340,302,1,339,ratio51_5_6_5.png,,,,,,,,,,,,
,,,,,,,,,,,,More than half,Few,All,Most,Many,None,Some,Half,Less than half,-0.489583333,-0.296875,1,0,0,QQQ9,,,,,,,,English,2020-07-02_10h59.54.341,Experiment_English,3.2.4,Win32,60,,,,,,,,,,,,,,,,,,,,,1,0,340,189,1,339,ratio23_4_10_8.png,,,,,,,,,,,,
,,,,,,,,,,,,Few,Less than half,More than half,None,Most,All,Half,Some,Many,-0.075520833,0.220052083,1,0,0,QQQ4,,,,,,,,English,2020-07-02_10h59.54.341,Experiment_English,3.2.4,Win32,60,,,,,,,,,,,,,,,,,,,,,1,0,340,62,1,339,ratio0Y_0_5_4.png,,,,,,,,,,,,
,,,,,,,,,,,,Some,Many,None,All,Few,More than half,Less than half,Most,Half,-0.381510417,0.020833333,1,0,0,QQQ8,,,,,,,,English,2020-07-02_10h59.54.341,Experiment_English,3.2.4,Win32,60,,,,,,,,,,,,,,,,,,,,,1,0,340,270,1,339,ratio41_12_15_3.png,,,,,,,,,,,,
,,,,,,,,,,,,Half,Many,Few,None,Less than half,More than half,All,Most,Some,-0.490885417,0.268229167,1,0,0,QQQ7,,,,,,,,English,2020-07-02_10h59.54.341,Experiment_English,3.2.4,Win32,60,,,,,,,,,,,,,,,,,,,,,1,0,340,59,1,339,ratioX0_20_20_9.png,,,,,,,,,,,,
,,,,,,,,,,,,None,Less than half,More than half,Few,All,Most,Half,Some,Many,-0.100260417,0.006510417,1,0,0,QQQ5,,,,,,,,English,2020-07-02_10h59.54.341,Experiment_English,3.2.4,Win32,60,,,,,,,,,,,,,,,,,,,,,1,0,340,52,1,339,ratioX0_13_13_10.png,,,,,,,,,,,,
,,,,,,,,,,,,Less than half,Some,All,Many,Half,More than half,Few,None,Most,0.423177083,0.260416667,1,0,0,QQQ1,,,,,,,,English,2020-07-02_10h59.54.341,Experiment_English,3.2.4,Win32,60,,,,,,,,,,,,,,,,,,,,,1,0,340,5,1,339,ratio12_2_6_9.png,,,,,,,,,,,,
,,,,,,,,,,,,None,Less than half,Some,Few,More than half,All,Half,Many,Most,-0.471354167,0.3359375,1,0,0,QQQ7,,,,,,,,English,2020-07-02_10h59.54.341,Experiment_English,3.2.4,Win32,60,,,,,,,,,,,,,,,,,,,,,1,0,340,20,1,339,ratio11_2_4_3.png,,,,,,,,,,,,
,,,,,,,,,,,,Many,All,Some,Half,Few,More than half,Less than half,Most,None,-0.458333333,-0.010416667,1,0,0,QQQ8,,,,,,,,English,2020-07-02_10h59.54.341,Experiment_English,3.2.4,Win32,60,,,,,,,,,,,,,,,,,,,,,1,0,340,316,1,339,ratio51_15_18_11.png,,,,,,,,,,,,
,,,,,,,,,,,,Less than half,None,Few,More than half,Most,All,Some,Many,Half,0.416666667,0.263020833,1,0,0,QQQ1,,,,,,,,English,2020-07-02_10h59.54.341,Experiment_English,3.2.4,Win32,60,,,,,,,,,,,,,,,,,,,,,1,0,340,240,1,339,ratio34_3_7_4.png,,,,,,,,,,,,
,,,,,,,,,,,,None,Half,All,Some,Most,Few,Many,Less than half,More than half,-0.459635417,0.01953125,1,0,0,QQQ8,,,,,,,,English,2020-07-02_10h59.54.341,Experiment_English,3.2.4,Win32,60,,,,,,,,,,,,,,,,,,,,,1,0,340,199,1,339,ratio23_8_20_8.png,,,,,,,,,,,,
,,,,,,,,,,,,None,Many,All,Some,More than half,Less than half,Half,Most,Few,0.020833333,0.2890625,1,0,0,QQQ4,,,,,,,,English,2020-07-02_10h59.54.341,Experiment_English,3.2.4,Win32,60,,,,,,,,,,,,,,,,,,,,,1,0,340,186,1,339,ratio23_4_10_2.png,,,,,,,,,,,,
,,,,,,,,,,,,Most,More than half,Half,Few,Many,All,Some,None,Less than half,0.455729167,-0.065104167,1,0,0,QQQ2,,,,,,,,English,2020-07-02_10h59.54.341,Experiment_English,3.2.4,Win32,60,,,,,,,,,,,,,,,,,,,,,1,0,340,171,1,339,ratio21_8_12_4.png,,,,,,,,,,,,
,,,,,,,,,,,,Many,Less than half,Some,All,Half,Few,None,Most,More than half,0.48046875,-0.037760417,1,0,0,QQQ2,,,,,,,,English,2020-07-02_10h59.54.341,Experiment_English,3.2.4,Win32,60,,,,,,,,,,,,,,,,,,,,,1,0,340,34,1,339,ratio11_8_16_8.png,,,,,,,,,,,,
,,,,,,,,,,,,Few,Most,Less than half,More than half,Some,Many,None,All,Half,0.4453125,-0.018229167,1,0,0,QQQ2,,,,,,,,English,2020-07-02_10h59.54.341,Experiment_English,3.2.4,Win32,60,,,,,,,,,,,,,,,,,,,,,1,0,340,312,1,339,ratio51_10_12_16.png,,,,,,,,,,,,
,,,,,,,,,,,,Some,None,Most,More than half,Few,Less than half,Many,All,Half,0.420572917,0.252604167,1,0,0,QQQ1,,,,,,,,English,2020-07-02_10h59.54.341,Experiment_English,3.2.4,Win32,60,,,,,,,,,,,,,,,,,,,,,1,0,340,15,1,339,ratio12_5_15_5.png,,,,,,,,,,,,
,,,,,,,,,,,,More than half,All,Few,Less than half,Many,Most,None,Some,Half,0.5234375,-0.240885417,1,0,0,QQQ3,,,,,,,,English,2020-07-02_10h59.54.341,Experiment_English,3.2.4,Win32,60,,,,,,,,,,,,,,,,,,,,,1,0,340,114,1,339,ratio14_3_15_10.png,,,,,,,,,,,,
,,,,,,,,,,,,All,Many,None,More than half,Half,Some,Few,Less than half,Most,-0.459635417,-0.018229167,1,0,0,QQQ8,,,,,,,,English,2020-07-02_10h59.54.341,Experiment_English,3.2.4,Win32,60,,,,,,,,,,,,,,,,,,,,,1,0,340,187,1,339,ratio23_4_10_5.png,,,,,,,,,,,,
,,,,,,,,,,,,Many,Less than half,Few,Half,Some,Most,None,More than half,All,-0.459635417,-0.018229167,1,0,0,QQQ8,,,,,,,,English,2020-07-02_10h59.54.341,Experiment_English,3.2.4,Win32,60,,,,,,,,,,,,,,,,,,,,,1,0,340,170,1,339,ratio21_6_9_8.png,,,,,,,,,,,,
,,,,,,,,,,,,None,Some,Half,All,Most,Many,Less than half,Few,More than half,-0.459635417,-0.3203125,1,0,0,QQQ9,,,,,,,,English,2020-07-02_10h59.54.341,Experiment_English,3.2.4,Win32,60,,,,,,,,,,,,,,,,,,,,,1,0,340,285,1,339,ratio43_4_7_14.png,,,,,,,,,,,,
,,,,,,,,,,,,More than half,Less than half,Most,Some,All,None,Many,Half,Few,-0.475260417,-0.26171875,1,0,0,QQQ9,,,,,,,,English,2020-07-02_10h59.54.341,Experiment_English,3.2.4,Win32,60,,,,,,,,,,,,,,,,,,,,,1,0,340,146,1,339,ratio19_1_10_17.png,,,,,,,,,,,,
,,,,,,,,,,,,Less than half,Few,Most,Many,Half,Some,None,All,More than half,0.477864583,-0.286458333,1,0,0,QQQ3,,,,,,,,English,2020-07-02_10h59.54.341,Experiment_English,3.2.4,Win32,60,,,,,,,,,,,,,,,,,,,,,1,0,340,303,1,339,ratio51_5_6_6.png,,,,,,,,,,,,
,,,,,,,,,,,,Some,Half,None,Less than half,All,Most,More than half,Many,Few,-0.5234375,-0.239583333,1,0,0,QQQ9,,,,,,,,English,2020-07-02_10h59.54.341,Experiment_English,3.2.4,Win32,60,,,,,,,,,,,,,,,,,,,,,1,0,340,135,1,339,ratio15_3_18_7.png,,,,,,,,,,,,
,,,,,,,,,,,,Some,All,Few,None,Most,Half,Many,Less than half,More than half,-0.114583333,0.255208333,1,0,0,QQQ4,,,,,,,,English,2020-07-02_10h59.54.341,Experiment_English,3.2.4,Win32,60,,,,,,,,,,,,,,,,,,,,,1,0,340,72,1,339,ratio0Y_0_13_4.png,,,,,,,,,,,,
,,,,,,,,,,,,Few,All,Less than half,Many,More than half,Half,Most,Some,None,0.567708333,0.294270833,1,0,0,QQQ1,,,,,,,,English,2020-07-02_10h59.54.341,Experiment_English,3.2.4,Win32,60,,,,,,,,,,,,,,,,,,,,,1,0,340,102,1,339,ratio14_1_5_8.png,,,,,,,,,,,,
,,,,,,,,,,,,Many,Some,All,Half,More than half,Less than half,Most,Few,None,-0.481770833,0.032552083,1,0,0,QQQ8,,,,,,,,English,2020-07-02_10h59.54.341,Experiment_English,3.2.4,Win32,60,,,,,,,,,,,,,,,,,,,,,1,0,340,16,1,339,ratio12_5_15_6.png,,,,,,,,,,,,
,,,,,,,,,,,,All,None,Some,Less than half,Many,More than half,Few,Half,Most,-0.493489583,0.236979167,1,0,0,QQQ7,,,,,,,,English,2020-07-02_10h59.54.341,Experiment_English,3.2.4,Win32,60,,,,,,,,,,,,,,,,,,,,,1,0,340,106,1,339,ratio14_2_10_2.png,,,,,,,,,,,,
,,,,,,,,,,,,Some,Many,Most,Few,All,More than half,None,Half,Less than half,0.005208333,0.03125,1,0,0,QQQ5,,,,,,,,English,2020-07-02_10h59.54.341,Experiment_English,3.2.4,Win32,60,,,,,,,,,,,,,,,,,,,,,1,0,340,49,1,339,ratioX0_11_11_2.png,,,,,,,,,,,,
,,,,,,,,,,,,Few,Less than half,All,Most,Half,Some,More than half,None,Many,-0.006510417,0.265625,1,0,0,QQQ4,,,,,,,,English,2020-07-02_10h59.54.341,Experiment_English,3.2.4,Win32,60,,,,,,,,,,,,,,,,,,,,,1,0,340,323,1,339,ratio91_9_10_5.png,,,,,,,,,,,,
,,,,,,,,,,,,All,Less than half,Some,None,Few,Many,Most,More than half,Half,-0.552083333,0.30078125,1,0,0,QQQ7,,,,,,,,English,2020-07-02_10h59.54.341,Experiment_English,3.2.4,Win32,60,,,,,,,,,,,,,,,,,,,,,1,0,340,272,1,339,ratio41_12_15_7.png,,,,,,,,,,,,
,,,,,,,,,,,,All,More than half,Few,Half,Most,Some,Many,Less than half,None,-0.477864583,-0.282552083,1,0,0,QQQ9,,,,,,,,English,2020-07-02_10h59.54.341,Experiment_English,3.2.4,Win32,60,,,,,,,,,,,,,,,,,,,,,1,0,340,71,1,339,ratio0Y_0_12_10.png,,,,,,,,,,,,
,,,,,,,,,,,,All,Most,Half,Some,Few,Many,None,More than half,Less than half,0.057291667,0.01171875,1,0,0,QQQ5,,,,,,,,English,2020-07-02_10h59.54.341,Experiment_English,3.2.4,Win32,60,,,,,,,,,,,,,,,,,,,,,1,0,340,136,1,339,ratio15_3_18_8.png,,,,,,,,,,,,
,,,,,,,,,,,,Most,More than half,Few,Many,Less than half,Some,All,None,Half,0.618489583,-0.302083333,1,0,0,QQQ3,,,,,,,,English,2020-07-02_10h59.54.341,Experiment_English,3.2.4,Win32,60,,,,,,,,,,,,,,,,,,,,,1,0,340,144,1,339,ratio19_1_10_11.png,0.390625,-0.377604167,1,0,0,continue_button_pause,1,0,1,0,1,0
,,,,,,,,,,,,,,,,,,,,,,,,,,,,,,,,,,English,2020-07-02_10h59.54.341,Experiment_English,3.2.4,Win32,60,,,,,,,,,,,,,,,,,,,,,1,0,340,144,1,339,ratio19_1_10_11.png,,,,,,,,,,,,
,,,,,,,,,,,,Many,Less than half,Most,None,All,Half,Few,Some,More than half,-0.51171875,0.274739583,1,0,0,QQQ7,,,,,,,,English,2020-07-02_10h59.54.341,Experiment_English,3.2.4,Win32,60,,,,,,,,,,,,,,,,,,,,,1,0,340,141,1,339,ratio19_1_10_2.png,,,,,,,,,,,,
,,,,,,,,,,,,Half,All,Less than half,More than half,Most,Many,Few,Some,None,0.411458333,-0.231770833,1,0,0,QQQ3,,,,,,,,English,2020-07-02_10h59.54.341,Experiment_English,3.2.4,Win32,60,,,,,,,,,,,,,,,,,,,,,1,0,340,11,1,339,ratio12_4_12_7.png,,,,,,,,,,,,
,,,,,,,,,,,,None,Half,More than half,All,Few,Less than half,Many,Some,Most,0.483072917,-0.272135417,1,0,0,QQQ3,,,,,,,,English,2020-07-02_10h59.54.341,Experiment_English,3.2.4,Win32,60,,,,,,,,,,,,,,,,,,,,,1,0,340,298,1,339,ratio43_8_14_14.png,,,,,,,,,,,,
,,,,,,,,,,,,Half,Many,Less than half,All,Few,None,Most,Some,More than half,-0.498697917,0.272135417,1,0,0,QQQ7,,,,,,,,English,2020-07-02_10h59.54.341,Experiment_English,3.2.4,Win32,60,,,,,,,,,,,,,,,,,,,,,1,0,340,320,1,339,ratio91_9_10_1.png,,,,,,,,,,,,
,,,,,,,,,,,,Most,More than half,None,Many,Half,Few,Less than half,Some,All,0.451822917,0.006510417,1,0,0,QQQ2,,,,,,,,English,2020-07-02_10h59.54.341,Experiment_English,3.2.4,Win32,60,,,,,,,,,,,,,,,,,,,,,1,0,340,201,1,339,ratio31_3_4_7.png,,,,,,,,,,,,
,,,,,,,,,,,,All,More than half,Few,Many,Half,Some,Most,Less than half,None,0.020833333,-0.24609375,1,0,0,QQQ6,,,,,,,,English,2020-07-02_10h59.54.341,Experiment_English,3.2.4,Win32,60,,,,,,,,,,,,,,,,,,,,,1,0,340,88,1,339,ratio13_3_12_5.png,,,,,,,,,,,,
,,,,,,,,,,,,Most,Some,All,Many,None,Half,Few,Less than half,More than half,0.356770833,0.31640625,1,0,0,QQQ1,,,,,,,,English,2020-07-02_10h59.54.341,Experiment_English,3.2.4,Win32,60,,,,,,,,,,,,,,,,,,,,,1,0,340,110,1,339,ratio14_3_15_2.png,,,,,,,,,,,,
,,,,,,,,,,,,Less than half,All,Some,More than half,Many,None,Half,Most,Few,-0.55078125,-0.026041667,1,0,0,QQQ8,,,,,,,,English,2020-07-02_10h59.54.341,Experiment_English,3.2.4,Win32,60,,,,,,,,,,,,,,,,,,,,,1,0,340,211,1,339,ratio31_9_12_10.png,,,,,,,,,,,,
,,,,,,,,,,,,Half,Few,Most,More than half,Some,Many,Less than half,All,None,-0.125,0.321614583,1,0,0,QQQ4,,,,,,,,English,2020-07-02_10h59.54.341,Experiment_English,3.2.4,Win32,60,,,,,,,,,,,,,,,,,,,,,1,0,340,236,1,339,ratio32_12_20_2.png,,,,,,,,,,,,
,,,,,,,,,,,,Half,Most,None,Many,More than half,Few,Less than half,Some,All,0.03125,-0.251302083,1,0,0,QQQ6,,,,,,,,English,2020-07-02_10h59.54.341,Experiment_English,3.2.4,Win32,60,,,,,,,,,,,,,,,,,,,,,1,0,340,112,1,339,ratio14_3_15_4.png,,,,,,,,,,,,
,,,,,,,,,,,,More than half,Less than half,Most,Half,Few,All,None,Some,Many,0.509114583,-0.294270833,1,0,0,QQQ3,,,,,,,,English,2020-07-02_10h59.54.341,Experiment_English,3.2.4,Win32,60,,,,,,,,,,,,,,,,,,,,,1,0,340,337,1,339,ratio91_18_20_16.png,,,,,,,,,,,,
,,,,,,,,,,,,Some,Most,All,None,Less than half,Few,Half,More than half,Many,0.485677083,0.072916667,1,0,0,QQQ2,,,,,,,,English,2020-07-02_10h59.54.341,Experiment_English,3.2.4,Win32,60,,,,,,,,,,,,,,,,,,,,,1,0,340,209,1,339,ratio31_9_12_6.png,,,,,,,,,,,,
,,,,,,,,,,,,Few,Half,None,More than half,Less than half,All,Most,Some,Many,0.5390625,-0.03125,1,0,0,QQQ2,,,,,,,,English,2020-07-02_10h59.54.341,Experiment_English,3.2.4,Win32,60,,,,,,,,,,,,,,,,,,,,,1,0,340,22,1,339,ratio11_3_6_6.png,,,,,,,,,,,,
,,,,,,,,,,,,Half,Some,None,All,Few,Less than half,More than half,Most,Many,0.45703125,0.053385417,1,0,0,QQQ2,,,,,,,,English,2020-07-02_10h59.54.341,Experiment_English,3.2.4,Win32,60,,,,,,,,,,,,,,,,,,,,,1,0,340,13,1,339,ratio12_5_15_3.png,,,,,,,,,,,,
,,,,,,,,,,,,All,Less than half,Few,None,Many,Most,More than half,Half,Some,0.45703125,0.053385417,1,0,0,QQQ2,,,,,,,,English,2020-07-02_10h59.54.341,Experiment_English,3.2.4,Win32,60,,,,,,,,,,,,,,,,,,,,,1,0,340,91,1,339,ratio13_3_12_10.png,,,,,,,,,,,,
,,,,,,,,,,,,Half,Few,None,Some,All,More than half,Less than half,Most,Many,-0.505208333,-0.036458333,1,0,0,QQQ8,,,,,,,,English,2020-07-02_10h59.54.341,Experiment_English,3.2.4,Win32,60,,,,,,,,,,,,,,,,,,,,,1,0,340,204,1,339,ratio31_6_8_1.png,,,,,,,,,,,,
,,,,,,,,,,,,All,Less than half,None,Few,Many,Some,Most,Half,More than half,-0.47265625,-0.307291667,1,0,0,QQQ9,,,,,,,,English,2020-07-02_10h59.54.341,Experiment_English,3.2.4,Win32,60,,,,,,,,,,,,,,,,,,,,,1,0,340,27,1,339,ratio11_5_10_7.png,,,,,,,,,,,,
,,,,,,,,,,,,Few,Most,Half,More than half,Some,None,All,Less than half,Many,-0.451822917,-0.0625,1,0,0,QQQ8,,,,,,,,English,2020-07-02_10h59.54.341,Experiment_English,3.2.4,Win32,60,,,,,,,,,,,,,,,,,,,,,1,0,340,246,1,339,ratio34_3_7_11.png,,,,,,,,,,,,
,,,,,,,,,,,,None,Few,More than half,All,Half,Some,Many,Most,Less than half,-0.123697917,0.252604167,1,0,0,QQQ4,,,,,,,,English,2020-07-02_10h59.54.341,Experiment_English,3.2.4,Win32,60,,,,,,,,,,,,,,,,,,,,,1,0,340,43,1,339,ratioX0_6_6_9.png,,,,,,,,,,,,
,,,,,,,,,,,,Most,All,Less than half,Half,Some,More than half,Few,None,Many,0.510416667,-0.263020833,1,0,0,QQQ3,,,,,,,,English,2020-07-02_10h59.54.341,Experiment_English,3.2.4,Win32,60,,,,,,,,,,,,,,,,,,,,,1,0,340,188,1,339,ratio23_4_10_6.png,,,,,,,,,,,,
,,,,,,,,,,,,Few,Less than half,Half,Most,Some,All,None,Many,More than half,-0.373697917,-0.334635417,1,0,0,QQQ9,,,,,,,,English,2020-07-02_10h59.54.341,Experiment_English,3.2.4,Win32,60,,,,,,,,,,,,,,,,,,,,,1,0,340,226,1,339,ratio32_6_10_5.png,,,,,,,,,,,,
,,,,,,,,,,,,All,None,Many,Few,Less than half,More than half,Half,Some,Most,-0.454427083,-0.057291667,1,0,0,QQQ8,,,,,,,,English,2020-07-02_10h59.54.341,Experiment_English,3.2.4,Win32,60,,,,,,,,,,,,,,,,,,,,,1,0,340,93,1,339,ratio13_4_16_7.png,,,,,,,,,,,,
,,,,,,,,,,,,Some,None,Few,Many,Less than half,Most,More than half,All,Half,-0.040364583,-0.266927083,1,0,0,QQQ6,,,,,,,,English,2020-07-02_10h59.54.341,Experiment_English,3.2.4,Win32,60,,,,,,,,,,,,,,,,,,,,,1,0,340,179,1,339,ratio21_12_18_8.png,,,,,,,,,,,,
,,,,,,,,,,,,None,Less than half,Some,All,Many,Half,More than half,Most,Few,0.584635417,-0.05078125,1,0,0,QQQ2,,,,,,,,English,2020-07-02_10h59.54.341,Experiment_English,3.2.4,Win32,60,,,,,,,,,,,,,,,,,,,,,1,0,340,96,1,339,ratio13_5_20_1.png,,,,,,,,,,,,
,,,,,,,,,,,,None,Less than half,All,Half,More than half,Some,Most,Many,Few,-0.505208333,0.296875,1,0,0,QQQ7,,,,,,,,English,2020-07-02_10h59.54.341,Experiment_English,3.2.4,Win32,60,,,,,,,,,,,,,,,,,,,,,1,0,340,262,1,339,ratio41_4_5_4.png,,,,,,,,,,,,
,,,,,,,,,,,,Half,Most,Few,Many,None,All,Less than half,More than half,Some,-0.505208333,-0.225260417,1,0,0,QQQ9,,,,,,,,English,2020-07-02_10h59.54.341,Experiment_English,3.2.4,Win32,60,,,,,,,,,,,,,,,,,,,,,1,0,340,117,1,339,ratio14_4_20_6.png,,,,,,,,,,,,
,,,,,,,,,,,,All,More than half,Some,None,Less than half,Most,Half,Few,Many,-0.092447917,-0.015625,1,0,0,QQQ5,,,,,,,,English,2020-07-02_10h59.54.341,Experiment_English,3.2.4,Win32,60,,,,,,,,,,,,,,,,,,,,,1,0,340,181,1,339,ratio23_2_5_6.png,,,,,,,,,,,,
,,,,,,,,,,,,Half,Many,None,More than half,Some,Few,All,Less than half,Most,-0.502604167,-0.3359375,1,0,0,QQQ9,,,,,,,,English,2020-07-02_10h59.54.341,Experiment_English,3.2.4,Win32,60,,,,,,,,,,,,,,,,,,,,,1,0,340,206,1,339,ratio31_6_8_6.png,,,,,,,,,,,,
,,,,,,,,,,,,Less than half,Half,Most,More than half,Many,None,Some,Few,All,0.38671875,0.208333333,1,0,0,QQQ1,,,,,,,,English,2020-07-02_10h59.54.341,Experiment_English,3.2.4,Win32,60,,,,,,,,,,,,,,,,,,,,,1,0,340,36,1,339,ratio11_9_18_1.png,,,,,,,,,,,,
,,,,,,,,,,,,More than half,Many,Half,Less than half,Some,All,Few,Most,None,-0.455729167,0.329427083,1,0,0,QQQ7,,,,,,,,English,2020-07-02_10h59.54.341,Experiment_English,3.2.4,Win32,60,,,,,,,,,,,,,,,,,,,,,1,0,340,130,1,339,ratio15_2_12_12.png,,,,,,,,,,,,
,,,,,,,,,,,,Most,Few,Many,Less than half,None,More than half,Some,Half,All,0.5078125,0.35546875,1,0,0,QQQ1,,,,,,,,English,2020-07-02_10h59.54.341,Experiment_English,3.2.4,Win32,60,,,,,,,,,,,,,,,,,,,,,1,0,340,169,1,339,ratio21_6_9_7.png,,,,,,,,,,,,
,,,,,,,,,,,,Less than half,Few,More than half,None,Some,Many,Half,Most,All,0.5625,-0.204427083,1,0,0,QQQ3,,,,,,,,English,2020-07-02_10h59.54.341,Experiment_English,3.2.4,Win32,60,,,,,,,,,,,,,,,,,,,,,1,0,340,233,1,339,ratio32_9_15_9.png,,,,,,,,,,,,
,,,,,,,,,,,,All,More than half,Some,Half,Most,Few,Less than half,None,Many,-0.479166667,0.287760417,1,0,0,QQQ7,,,,,,,,English,2020-07-02_10h59.54.341,Experiment_English,3.2.4,Win32,60,,,,,,,,,,,,,,,,,,,,,1,0,340,7,1,339,ratio12_3_9_2.png,,,,,,,,,,,,
,,,,,,,,,,,,None,Most,Many,Less than half,Half,More than half,All,Some,Few,0.479166667,-0.01953125,1,0,0,QQQ2,,,,,,,,English,2020-07-02_10h59.54.341,Experiment_English,3.2.4,Win32,60,,,,,,,,,,,,,,,,,,,,,1,0,340,332,1,339,ratio91_18_20_4.png,0.365885417,-0.390625,1,0,0,continue_button_pause,1,0,1,0,1,0
,,,,,,,,,,,,,,,,,,,,,,,,,,,,,,,,,,English,2020-07-02_10h59.54.341,Experiment_English,3.2.4,Win32,60,,,,,,,,,,,,,,,,,,,,,1,0,340,332,1,339,ratio91_18_20_4.png,,,,,,,,,,,,
,,,,,,,,,,,,All,Half,Few,Some,Less than half,Most,None,Many,More than half,-0.055989583,-0.298177083,1,0,0,QQQ6,,,,,,,,English,2020-07-02_10h59.54.341,Experiment_English,3.2.4,Win32,60,,,,,,,,,,,,,,,,,,,,,1,0,340,327,1,339,ratio91_9_10_11.png,,,,,,,,,,,,
,,,,,,,,,,,,More than half,Many,All,Most,Half,Few,Less than half,None,Some,-0.024739583,-0.248697917,1,0,0,QQQ6,,,,,,,,English,2020-07-02_10h59.54.341,Experiment_English,3.2.4,Win32,60,,,,,,,,,,,,,,,,,,,,,1,0,340,157,1,339,ratio19_2_20_16.png,,,,,,,,,,,,
,,,,,,,,,,,,Half,Many,Less than half,All,Few,Most,More than half,None,Some,-0.020833333,-0.059895833,1,0,0,QQQ5,,,,,,,,English,2020-07-02_10h59.54.341,Experiment_English,3.2.4,Win32,60,,,,,,,,,,,,,,,,,,,,,1,0,340,89,1,339,ratio13_3_12_6.png,,,,,,,,,,,,
,,,,,,,,,,,,Half,Less than half,Most,Many,Some,Few,None,All,More than half,-0.014322917,-0.278645833,1,0,0,QQQ6,,,,,,,,English,2020-07-02_10h59.54.341,Experiment_English,3.2.4,Win32,60,,,,,,,,,,,,,,,,,,,,,1,0,340,108,1,339,ratio14_2_10_6.png,,,,,,,,,,,,
,,,,,,,,,,,,Less than half,Half,Few,Most,None,All,Many,More than half,Some,-0.102864583,0.263020833,1,0,0,QQQ4,,,,,,,,English,2020-07-02_10h59.54.341,Experiment_English,3.2.4,Win32,60,,,,,,,,,,,,,,,,,,,,,1,0,340,215,1,339,ratio31_12_16_8.png,,,,,,,,,,,,
,,,,,,,,,,,,More than half,All,Less than half,Few,Many,None,Some,Half,Most,0.416666667,0.311197917,1,0,0,QQQ1,,,,,,,,English,2020-07-02_10h59.54.341,Experiment_English,3.2.4,Win32,60,,,,,,,,,,,,,,,,,,,,,1,0,340,224,1,339,ratio32_3_5_10.png,,,,,,,,,,,,
,,,,,,,,,,,,Half,More than half,Most,None,All,Some,Many,Few,Less than half,-0.440104167,0.01953125,1,0,0,QQQ8,,,,,,,,English,2020-07-02_10h59.54.341,Experiment_English,3.2.4,Win32,60,,,,,,,,,,,,,,,,,,,,,1,0,340,139,1,339,ratio15_3_18_20.png,,,,,,,,,,,,
,,,,,,,,,,,,Most,Many,Half,Some,Less than half,More than half,None,Few,All,0.006510417,-0.260416667,1,0,0,QQQ6,,,,,,,,English,2020-07-02_10h59.54.341,Experiment_English,3.2.4,Win32,60,,,,,,,,,,,,,,,,,,,,,1,0,340,37,1,339,ratio11_9_18_8.png,,,,,,,,,,,,
,,,,,,,,,,,,Some,Less than half,Most,None,Few,More than half,Many,Half,All,0.0390625,-0.045572917,1,0,0,QQQ5,,,,,,,,English,2020-07-02_10h59.54.341,Experiment_English,3.2.4,Win32,60,,,,,,,,,,,,,,,,,,,,,1,0,340,156,1,339,ratio19_2_20_14.png,,,,,,,,,,,,
,,,,,,,,,,,,Less than half,None,Half,Some,All,Most,More than half,Few,Many,0.024739583,-0.279947917,1,0,0,QQQ6,,,,,,,,English,2020-07-02_10h59.54.341,Experiment_English,3.2.4,Win32,60,,,,,,,,,,,,,,,,,,,,,1,0,340,321,1,339,ratio91_9_10_2.png,,,,,,,,,,,,
,,,,,,,,,,,,Some,Half,None,Many,All,Less than half,Most,More than half,Few,-0.58984375,0.313802083,1,0,0,QQQ7,,,,,,,,English,2020-07-02_10h59.54.341,Experiment_English,3.2.4,Win32,60,,,,,,,,,,,,,,,,,,,,,1,0,340,219,1,339,ratio31_15_20_10.png,,,,,,,,,,,,
,,,,,,,,,,,,None,Most,All,Less than half,More than half,Many,Few,Half,Some,-0.03125,0.0234375,1,0,0,QQQ5,,,,,,,,English,2020-07-02_10h59.54.341,Experiment_English,3.2.4,Win32,60,,,,,,,,,,,,,,,,,,,,,1,0,340,39,1,339,ratio11_10_20_6.png,,,,,,,,,,,,
,,,,,,,,,,,,None,Less than half,Most,More than half,All,Many,Few,Half,Some,0.467447917,0.352864583,1,0,0,QQQ1,,,,,,,,English,2020-07-02_10h59.54.341,Experiment_English,3.2.4,Win32,60,,,,,,,,,,,,,,,,,,,,,1,0,340,77,1,339,ratio0Y_0_18_3.png,,,,,,,,,,,,
,,,,,,,,,,,,Some,Most,None,Many,Less than half,All,Few,More than half,Half,-0.6484375,0.33984375,1,0,0,QQQ7,,,,,,,,English,2020-07-02_10h59.54.341,Experiment_English,3.2.4,Win32,60,,,,,,,,,,,,,,,,,,,,,1,0,340,159,1,339,ratio19_2_20_20.png,,,,,,,,,,,,
,,,,,,,,,,,,Many,More than half,All,Some,Less than half,Most,Half,None,Few,-0.002604167,-0.326822917,1,0,0,QQQ6,,,,,,,,English,2020-07-02_10h59.54.341,Experiment_English,3.2.4,Win32,60,,,,,,,,,,,,,,,,,,,,,1,0,340,168,1,339,ratio21_6_9_3.png,,,,,,,,,,,,
,,,,,,,,,,,,Less than half,Most,Many,Few,More than half,Half,All,Some,None,-0.5546875,0.329427083,1,0,0,QQQ7,,,,,,,,English,2020-07-02_10h59.54.341,Experiment_English,3.2.4,Win32,60,,,,,,,,,,,,,,,,,,,,,1,0,340,58,1,339,ratioX0_19_19_4.png,,,,,,,,,,,,
,,,,,,,,,,,,None,Some,Many,All,Half,Less than half,More than half,Most,Few,-0.5625,0.067708333,1,0,0,QQQ8,,,,,,,,English,2020-07-02_10h59.54.341,Experiment_English,3.2.4,Win32,60,,,,,,,,,,,,,,,,,,,,,1,0,340,277,1,339,ratio41_16_20_8.png,,,,,,,,,,,,
,,,,,,,,,,,,Less than half,None,Few,Some,Half,All,Many,Most,More than half,-0.05859375,0.25,1,0,0,QQQ4,,,,,,,,English,2020-07-02_10h59.54.341,Experiment_English,3.2.4,Win32,60,,,,,,,,,,,,,,,,,,,,,1,0,340,12,1,339,ratio12_4_12_10.png,,,,,,,,,,,,
,,,,,,,,,,,,Some,Half,Many,None,Less than half,All,Most,More than half,Few,0.009114583,-0.333333333,1,0,0,QQQ6,,,,,,,,English,2020-07-02_10h59.54.341,Experiment_English,3.2.4,Win32,60,,,,,,,,,,,,,,,,,,,,,1,0,340,57,1,339,ratioX0_18_18_1.png,,,,,,,,,,,,
,,,,,,,,,,,,Most,All,Less than half,Few,More than half,Half,Many,None,Some,0.4453125,0.229166667,1,0,0,QQQ1,,,,,,,,English,2020-07-02_10h59.54.341,Experiment_English,3.2.4,Win32,60,,,,,,,,,,,,,,,,,,,,,1,0,340,292,1,339,ratio43_8_14_6.png,,,,,,,,,,,,
,,,,,,,,,,,,Many,Most,Some,Less than half,All,Few,None,Half,More than half,0.485677083,-0.040364583,1,0,0,QQQ2,,,,,,,,English,2020-07-02_10h59.54.341,Experiment_English,3.2.4,Win32,60,,,,,,,,,,,,,,,,,,,,,1,0,340,174,1,339,ratio21_10_15_1.png,,,,,,,,,,,,
,,,,,,,,,,,,Few,Less than half,Many,None,Most,Half,All,More than half,Some,0.067708333,-0.290364583,1,0,0,QQQ6,,,,,,,,English,2020-07-02_10h59.54.341,Experiment_English,3.2.4,Win32,60,,,,,,,,,,,,,,,,,,,,,1,0,340,257,1,339,ratio34_6_14_12.png,,,,,,,,,,,,
,,,,,,,,,,,,Some,None,Less than half,More than half,Few,Most,Half,Many,All,0.067708333,-0.290364583,1,0,0,QQQ6,,,,,,,,English,2020-07-02_10h59.54.341,Experiment_English,3.2.4,Win32,60,,,,,,,,,,,,,,,,,,,,,1,0,340,338,1,339,ratio91_18_20_18.png,,,,,,,,,,,,
,,,,,,,,,,,,More than half,Half,Less than half,Few,Some,None,Most,Many,All,0.028645833,-0.075520833,1,0,0,QQQ5,,,,,,,,English,2020-07-02_10h59.54.341,Experiment_English,3.2.4,Win32,60,,,,,,,,,,,,,,,,,,,,,1,0,340,192,1,339,ratio23_6_15_8.png,,,,,,,,,,,,
,,,,,,,,,,,,None,Most,Half,Few,More than half,Less than half,Some,All,Many,0.028645833,-0.075520833,1,0,0,QQQ5,,,,,,,,English,2020-07-02_10h59.54.341,Experiment_English,3.2.4,Win32,60,,,,,,,,,,,,,,,,,,,,,1,0,340,239,1,339,ratio32_12_20_10.png,,,,,,,,,,,,
,,,,,,,,,,,,Less than half,Some,Few,Many,All,More than half,None,Most,Half,0.505208333,0.303385417,1,0,0,QQQ1,,,,,,,,English,2020-07-02_10h59.54.341,Experiment_English,3.2.4,Win32,60,,,,,,,,,,,,,,,,,,,,,1,0,340,10,1,339,ratio12_4_12_4.png,,,,,,,,,,,,
,,,,,,,,,,,,All,Few,Half,None,More than half,Some,Most,Less than half,Many,0.0078125,0.321614583,1,0,0,QQQ4,,,,,,,,English,2020-07-02_10h59.54.341,Experiment_English,3.2.4,Win32,60,,,,,,,,,,,,,,,,,,,,,1,0,340,76,1,339,ratio0Y_0_17_10.png,,,,,,,,,,,,
,,,,,,,,,,,,Some,More than half,Half,Few,Many,All,Most,Less than half,None,-0.473958333,0.333333333,1,0,0,QQQ7,,,,,,,,English,2020-07-02_10h59.54.341,Experiment_English,3.2.4,Win32,60,,,,,,,,,,,,,,,,,,,,,1,0,340,178,1,339,ratio21_12_18_2.png,,,,,,,,,,,,
,,,,,,,,,,,,None,All,Less than half,Few,Some,More than half,Half,Many,Most,-0.428385417,-0.305989583,1,0,0,QQQ9,,,,,,,,English,2020-07-02_10h59.54.341,Experiment_English,3.2.4,Win32,60,,,,,,,,,,,,,,,,,,,,,1,0,340,213,1,339,ratio31_12_16_2.png,,,,,,,,,,,,
,,,,,,,,,,,,Few,Half,Many,More than half,None,Most,Less than half,All,Some,-0.014322917,-0.278645833,1,0,0,QQQ6,,,,,,,,English,2020-07-02_10h59.54.341,Experiment_English,3.2.4,Win32,60,,,,,,,,,,,,,,,,,,,,,1,0,340,307,1,339,ratio51_10_12_1.png,,,,,,,,,,,,
,,,,,,,,,,,,Most,None,Half,More than half,Less than half,Many,Some,All,Few,-0.442708333,-0.013020833,1,0,0,QQQ8,,,,,,,,English,2020-07-02_10h59.54.341,Experiment_English,3.2.4,Win32,60,,,,,,,,,,,,,,,,,,,,,1,0,340,56,1,339,ratioX0_17_17_10.png,,,,,,,,,,,,
,,,,,,,,,,,,Half,Less than half,Many,Most,None,All,Few,More than half,Some,0.002604167,0.3125,1,0,0,QQQ4,,,,,,,,English,2020-07-02_10h59.54.341,Experiment_English,3.2.4,Win32,60,,,,,,,,,,,,,,,,,,,,,1,0,340,268,1,339,ratio41_8_10_5.png,,,,,,,,,,,,
,,,,,,,,,,,,Half,Less than half,All,Many,Few,None,More than half,Some,Most,0.58203125,0.0625,1,0,0,QQQ2,,,,,,,,English,2020-07-02_10h59.54.341,Experiment_English,3.2.4,Win32,60,,,,,,,,,,,,,,,,,,,,,1,0,340,185,1,339,ratio23_4_10_1.png,,,,,,,,,,,,
,,,,,,,,,,,,Half,None,Few,All,More than half,Many,Most,Some,Less than half,-0.397135417,-0.239583333,1,0,0,QQQ9,,,,,,,,English,2020-07-02_10h59.54.341,Experiment_English,3.2.4,Win32,60,,,,,,,,,,,,,,,,,,,,,1,0,340,9,1,339,ratio12_3_9_5.png,0.33984375,-0.41796875,1,0,0,continue_button_pause,1,0,1,0,1,0
,,,,,,,,,,,,,,,,,,,,,,,,,,,,,,,,,,English,2020-07-02_10h59.54.341,Experiment_English,3.2.4,Win32,60,,,,,,,,,,,,,,,,,,,,,1,0,340,9,1,339,ratio12_3_9_5.png,,,,,,,,,,,,
,,,,,,,,,,,,None,Few,Most,Half,Many,All,More than half,Some,Less than half,-0.389322917,0.311197917,1,0,0,QQQ7,,,,,,,,English,2020-07-02_10h59.54.341,Experiment_English,3.2.4,Win32,60,,,,,,,,,,,,,,,,,,,,,1,0,340,281,1,339,ratio43_4_7_4.png,,,,,,,,,,,,
,,,,,,,,,,,,None,All,Half,Few,More than half,Less than half,Many,Most,Some,0.571614583,-0.364583333,1,0,0,QQQ3,,,,,,,,English,2020-07-02_10h59.54.341,Experiment_English,3.2.4,Win32,60,,,,,,,,,,,,,,,,,,,,,1,0,340,256,1,339,ratio34_6_14_11.png,,,,,,,,,,,,
,,,,,,,,,,,,All,Half,More than half,Some,Most,None,Few,Less than half,Many,-0.484375,0.326822917,1,0,0,QQQ7,,,,,,,,English,2020-07-02_10h59.54.341,Experiment_English,3.2.4,Win32,60,,,,,,,,,,,,,,,,,,,,,1,0,340,138,1,339,ratio15_3_18_17.png,,,,,,,,,,,,
,,,,,,,,,,,,More than half,Less than half,Many,None,Some,Most,Few,Half,All,-0.02734375,-0.270833333,1,0,0,QQQ6,,,,,,,,English,2020-07-02_10h59.54.341,Experiment_English,3.2.4,Win32,60,,,,,,,,,,,,,,,,,,,,,1,0,340,300,1,339,ratio51_5_6_1.png,,,,,,,,,,,,
,,,,,,,,,,,,Half,More than half,Some,Few,Less than half,Many,All,Most,None,-0.052083333,0.270833333,1,0,0,QQQ4,,,,,,,,English,2020-07-02_10h59.54.341,Experiment_English,3.2.4,Win32,60,,,,,,,,,,,,,,,,,,,,,1,0,340,149,1,339,ratio19_1_10_20.png,,,,,,,,,,,,
,,,,,,,,,,,,None,Many,Less than half,Most,Some,More than half,Half,Few,All,-0.419270833,0.294270833,1,0,0,QQQ7,,,,,,,,English,2020-07-02_10h59.54.341,Experiment_English,3.2.4,Win32,60,,,,,,,,,,,,,,,,,,,,,1,0,340,38,1,339,ratio11_10_20_5.png,,,,,,,,,,,,
,,,,,,,,,,,,Less than half,Half,Many,Few,Some,More than half,All,Most,None,-0.059895833,-0.365885417,1,0,0,QQQ6,,,,,,,,English,2020-07-02_10h59.54.341,Experiment_English,3.2.4,Win32,60,,,,,,,,,,,,,,,,,,,,,1,0,340,167,1,339,ratio21_6_9_2.png,,,,,,,,,,,,
,,,,,,,,,,,,Less than half,Some,Many,None,Most,Few,All,Half,More than half,-0.0625,-0.28125,1,0,0,QQQ6,,,,,,,,English,2020-07-02_10h59.54.341,Experiment_English,3.2.4,Win32,60,,,,,,,,,,,,,,,,,,,,,1,0,340,143,1,339,ratio19_1_10_9.png,,,,,,,,,,,,
,,,,,,,,,,,,Many,Few,More than half,Half,None,All,Most,Less than half,Some,-0.473958333,0.305989583,1,0,0,QQQ7,,,,,,,,English,2020-07-02_10h59.54.341,Experiment_English,3.2.4,Win32,60,,,,,,,,,,,,,,,,,,,,,1,0,340,328,1,339,ratio91_9_10_15.png,,,,,,,,,,,,
,,,,,,,,,,,,Some,Half,Less than half,More than half,Most,Many,All,None,Few,-0.46875,-0.24609375,1,0,0,QQQ9,,,,,,,,English,2020-07-02_10h59.54.341,Experiment_English,3.2.4,Win32,60,,,,,,,,,,,,,,,,,,,,,1,0,340,109,1,339,ratio14_2_10_9.png,,,,,,,,,,,,
,,,,,,,,,,,,More than half,All,Many,Few,Half,Most,Some,None,Less than half,-0.08203125,-0.34375,1,0,0,QQQ6,,,,,,,,English,2020-07-02_10h59.54.341,Experiment_English,3.2.4,Win32,60,,,,,,,,,,,,,,,,,,,,,1,0,340,315,1,339,ratio51_15_18_10.png,,,,,,,,,,,,
,,,,,,,,,,,,Many,Some,Few,Most,Half,None,Less than half,All,More than half,0.483072917,-0.352864583,1,0,0,QQQ3,,,,,,,,English,2020-07-02_10h59.54.341,Experiment_English,3.2.4,Win32,60,,,,,,,,,,,,,,,,,,,,,1,0,340,154,1,339,ratio19_2_20_11.png,,,,,,,,,,,,
,,,,,,,,,,,,More than half,Some,Less than half,Most,Many,None,Few,Half,All,0.537760417,-0.31640625,1,0,0,QQQ3,,,,,,,,English,2020-07-02_10h59.54.341,Experiment_English,3.2.4,Win32,60,,,,,,,,,,,,,,,,,,,,,1,0,340,183,1,339,ratio23_2_5_9.png,,,,,,,,,,,,
,,,,,,,,,,,,Less than half,Half,More than half,Some,None,Many,All,Most,Few,0.087239583,-0.009114583,1,0,0,QQQ5,,,,,,,,English,2020-07-02_10h59.54.341,Experiment_English,3.2.4,Win32,60,,,,,,,,,,,,,,,,,,,,,1,0,340,67,1,339,ratio0Y_0_10_10.png,,,,,,,,,,,,
,,,,,,,,,,,,Many,Less than half,More than half,Most,All,Some,Few,Half,None,0.014322917,0.278645833,1,0,0,QQQ4,,,,,,,,English,2020-07-02_10h59.54.341,Experiment_English,3.2.4,Win32,60,,,,,,,,,,,,,,,,,,,,,1,0,340,305,1,339,ratio51_5_6_14.png,,,,,,,,,,,,
,,,,,,,,,,,,More than half,Half,None,Most,Less than half,Some,Many,All,Few,-0.40625,0.0625,1,0,0,QQQ8,,,,,,,,English,2020-07-02_10h59.54.341,Experiment_English,3.2.4,Win32,60,,,,,,,,,,,,,,,,,,,,,1,0,340,42,1,339,ratioX0_5_5_5.png,,,,,,,,,,,,
,,,,,,,,,,,,Most,None,Half,Many,Some,All,More than half,Less than half,Few,-0.545572917,-0.333333333,1,0,0,QQQ9,,,,,,,,English,2020-07-02_10h59.54.341,Experiment_English,3.2.4,Win32,60,,,,,,,,,,,,,,,,,,,,,1,0,340,155,1,339,ratio19_2_20_13.png,,,,,,,,,,,,
,,,,,,,,,,,,Half,Most,All,Many,Less than half,Some,Few,None,More than half,-0.591145833,0.2265625,1,0,0,QQQ7,,,,,,,,English,2020-07-02_10h59.54.341,Experiment_English,3.2.4,Win32,60,,,,,,,,,,,,,,,,,,,,,1,0,340,128,1,339,ratio15_2_12_8.png,,,,,,,,,,,,
,,,,,,,,,,,,Few,Half,All,Most,Less than half,Some,Many,None,More than half,-0.076822917,0.08203125,1,0,0,QQQ5,,,,,,,,English,2020-07-02_10h59.54.341,Experiment_English,3.2.4,Win32,60,,,,,,,,,,,,,,,,,,,,,1,0,340,251,1,339,ratio34_6_14_2.png,,,,,,,,,,,,
,,,,,,,,,,,,None,All,Few,More than half,Some,Less than half,Most,Many,Half,-0.044270833,0.259114583,1,0,0,QQQ4,,,,,,,,English,2020-07-02_10h59.54.341,Experiment_English,3.2.4,Win32,60,,,,,,,,,,,,,,,,,,,,,1,0,340,289,1,339,ratio43_4_7_20.png,,,,,,,,,,,,
,,,,,,,,,,,,Half,None,Some,Less than half,More than half,Many,Few,All,Most,0.545572917,-0.009114583,1,0,0,QQQ2,,,,,,,,English,2020-07-02_10h59.54.341,Experiment_English,3.2.4,Win32,60,,,,,,,,,,,,,,,,,,,,,1,0,340,75,1,339,ratio0Y_0_16_10.png,,,,,,,,,,,,
,,,,,,,,,,,,None,Most,Less than half,All,More than half,Many,Some,Half,Few,0.451822917,-0.009114583,1,0,0,QQQ2,,,,,,,,English,2020-07-02_10h59.54.341,Experiment_English,3.2.4,Win32,60,,,,,,,,,,,,,,,,,,,,,1,0,340,322,1,339,ratio91_9_10_3.png,,,,,,,,,,,,
,,,,,,,,,,,,Many,Some,Most,More than half,None,All,Less than half,Few,Half,0.45703125,-0.256510417,1,0,0,QQQ3,,,,,,,,English,2020-07-02_10h59.54.341,Experiment_English,3.2.4,Win32,60,,,,,,,,,,,,,,,,,,,,,1,0,340,275,1,339,ratio41_16_20_2.png,,,,,,,,,,,,
,,,,,,,,,,,,More than half,All,Many,Less than half,Half,Some,Few,None,Most,-0.427083333,0.341145833,1,0,0,QQQ7,,,,,,,,English,2020-07-02_10h59.54.341,Experiment_English,3.2.4,Win32,60,,,,,,,,,,,,,,,,,,,,,1,0,340,103,1,339,ratio14_1_5_9.png,,,,,,,,,,,,
,,,,,,,,,,,,Few,Some,None,Many,Most,All,Half,Less than half,More than half,-0.12109375,0.018229167,1,0,0,QQQ5,,,,,,,,English,2020-07-02_10h59.54.341,Experiment_English,3.2.4,Win32,60,,,,,,,,,,,,,,,,,,,,,1,0,340,177,1,339,ratio21_12_18_1.png,,,,,,,,,,,,
,,,,,,,,,,,,Less than half,Most,Few,Some,Half,All,More than half,None,Many,0.408854167,-0.061197917,1,0,0,QQQ2,,,,,,,,English,2020-07-02_10h59.54.341,Experiment_English,3.2.4,Win32,60,,,,,,,,,,,,,,,,,,,,,1,0,340,318,1,339,ratio51_15_18_18.png,,,,,,,,,,,,
,,,,,,,,,,,,All,Half,Some,Few,Less than half,None,Many,More than half,Most,0.087239583,-0.0390625,1,0,0,QQQ5,,,,,,,,English,2020-07-02_10h59.54.341,Experiment_English,3.2.4,Win32,60,,,,,,,,,,,,,,,,,,,,,1,0,340,8,1,339,ratio12_3_9_4.png,,,,,,,,,,,,
,,,,,,,,,,,,Most,Some,Half,More than half,Few,Less than half,Many,All,None,0.087239583,-0.0390625,1,0,0,QQQ5,,,,,,,,English,2020-07-02_10h59.54.341,Experiment_English,3.2.4,Win32,60,,,,,,,,,,,,,,,,,,,,,1,0,340,133,1,339,ratio15_3_18_3.png,,,,,,,,,,,,
,,,,,,,,,,,,All,More than half,Half,Most,Some,None,Less than half,Many,Few,0.47265625,0.26953125,1,0,0,QQQ1,,,,,,,,English,2020-07-02_10h59.54.341,Experiment_English,3.2.4,Win32,60,,,,,,,,,,,,,,,,,,,,,1,0,340,40,1,339,ratioX0_3_3_5.png,,,,,,,,,,,,
,,,,,,,,,,,,All,Most,Some,Less than half,More than half,Many,None,Few,Half,-0.52734375,-0.26171875,1,0,0,QQQ9,,,,,,,,English,2020-07-02_10h59.54.341,Experiment_English,3.2.4,Win32,60,,,,,,,,,,,,,,,,,,,,,1,0,340,23,1,339,ratio11_3_6_9.png,,,,,,,,,,,,
,,,,,,,,,,,,Few,Some,Less than half,Half,Most,More than half,Many,All,None,-0.5390625,-0.252604167,1,0,0,QQQ9,,,,,,,,English,2020-07-02_10h59.54.341,Experiment_English,3.2.4,Win32,60,,,,,,,,,,,,,,,,,,,,,1,0,340,63,1,339,ratio0Y_0_6_8.png,,,,,,,,,,,,
,,,,,,,,,,,,Half,More than half,Many,Most,Less than half,None,Some,All,Few,-0.5390625,-0.252604167,1,0,0,QQQ9,,,,,,,,English,2020-07-02_10h59.54.341,Experiment_English,3.2.4,Win32,60,,,,,,,,,,,,,,,,,,,,,1,0,340,148,1,339,ratio19_1_10_19.png,,,,,,,,,,,,
,,,,,,,,,,,,Some,All,Half,Less than half,Most,None,Few,Many,More than half,-0.075520833,-0.029947917,1,0,0,QQQ5,,,,,,,,English,2020-07-02_10h59.54.341,Experiment_English,3.2.4,Win32,60,,,,,,,,,,,,,,,,,,,,,1,0,340,175,1,339,ratio21_10_15_2.png,,,,,,,,,,,,
,,,,,,,,,,,,Some,Most,Half,Many,Few,More than half,Less than half,None,All,0.419270833,0.23828125,1,0,0,QQQ1,,,,,,,,English,2020-07-02_10h59.54.341,Experiment_English,3.2.4,Win32,60,,,,,,,,,,,,,,,,,,,,,1,0,340,98,1,339,ratio13_5_20_3.png,,,,,,,,,,,,
