continue_mouse.x,continue_mouse.y,continue_mouse.leftButton,continue_mouse.midButton,continue_mouse.rightButton,continue_mouse.clicked_name,continue_mouse_2.x,continue_mouse_2.y,continue_mouse_2.leftButton,continue_mouse_2.midButton,continue_mouse_2.rightButton,continue_mouse_2.clicked_name,Q1,Q2,Q3,Q4,Q5,Q6,Q7,Q8,Q9,select_answer.x,select_answer.y,select_answer.leftButton,select_answer.midButton,select_answer.rightButton,select_answer.clicked_name,trial.thisRepN,trial.thisTrialN,trial.thisN,trial.thisIndex,trial.ran,trial.order,trials,Native tongue*,date,expName,psychopyVersion,OS,frameRate,key_resp.keys,key_resp.rt,Actual_Experiment.thisRepN,Actual_Experiment.thisTrialN,Actual_Experiment.thisN,Actual_Experiment.thisIndex,Actual_Experiment.ran,Actual_Experiment.order,Pic,mouse_pause.x,mouse_pause.y,mouse_pause.leftButton,mouse_pause.midButton,mouse_pause.rightButton,mouse_pause.clicked_name,pause.thisRepN,pause.thisTrialN,pause.thisN,pause.thisIndex,pause.ran,pause.order
0.279438477,-0.416904297,1,0,0,continue_button,0.37918457,-0.417319336,1,0,0,continue_button_2,More than half,Less than half,All,Half,Few,Some,Many,None,Most,0.098696289,-0.066591797,1,0,0,QQQ5,1,0,16,9,1,15,ratio19_1_10_8.png,English,2020-07-02_11h00.12.834,Experiment_English,3.2.4,MacIntel,60,,,,,,,,,,,,,,,,,,,,,
,,,,,,,,,,,,Many,Few,Half,More than half,Less than half,All,Some,Most,None,0.460361328,-0.265292969,1,0,0,QQQ3,1,0,16,2,1,15,ratio43_8_14_19.png,English,2020-07-02_11h00.12.834,Experiment_English,3.2.4,MacIntel,60,,,,,,,,,,,,,,,,,,,,,
,,,,,,,,,,,,None,Many,All,More than half,Half,Few,Less than half,Some,Most,0.020288086,0.291245117,1,0,0,QQQ4,1,0,16,14,1,15,ratio11_5_10_6.png,English,2020-07-02_11h00.12.834,Experiment_English,3.2.4,MacIntel,60,,,,,,,,,,,,,,,,,,,,,
,,,,,,,,,,,,Less than half,Few,Some,Half,All,None,Most,More than half,Many,-0.403256836,-0.294570312,1,0,0,QQQ9,1,0,16,3,1,15,ratio41_8_10_8.png,English,2020-07-02_11h00.12.834,Experiment_English,3.2.4,MacIntel,60,,,,,,,,,,,,,,,,,,,,,
,,,,,,,,,,,,Most,Few,Some,All,Less than half,Many,None,Half,More than half,-0.451879883,-0.289794922,1,0,0,QQQ9,1,0,16,8,1,15,ratio21_12_18_3.png,English,2020-07-02_11h00.12.834,Experiment_English,3.2.4,MacIntel,60,,,,,,,,,,,,,,,,,,,,,
,,,,,,,,,,,,Many,Most,Some,Few,Less than half,More than half,All,None,Half,0.001132812,0.242236328,1,0,0,QQQ4,,,,,,,,English,2020-07-02_11h00.12.834,Experiment_English,3.2.4,MacIntel,60,b,8.629000187,1,0,340,148,1,339,ratio19_1_10_19.png,,,,,,,,,,,,
,,,,,,,,,,,,Less than half,Most,Half,Many,Some,None,Few,More than half,All,-0.444248047,0.254208984,1,0,0,QQQ7,,,,,,,,English,2020-07-02_11h00.12.834,Experiment_English,3.2.4,MacIntel,60,,,1,0,340,150,1,339,ratio19_2_20_1.png,,,,,,,,,,,,
,,,,,,,,,,,,More than half,Most,None,All,Less than half,Many,Some,Half,Few,-0.464311523,-0.33527832,1,0,0,QQQ9,,,,,,,,English,2020-07-02_11h00.12.834,Experiment_English,3.2.4,MacIntel,60,,,1,0,340,152,1,339,ratio19_2_20_6.png,,,,,,,,,,,,
,,,,,,,,,,,,Most,Less than half,More than half,None,Few,Many,Some,Half,All,0.026894531,-0.098320313,1,0,0,QQQ5,,,,,,,,English,2020-07-02_11h00.12.834,Experiment_English,3.2.4,MacIntel,60,,,1,0,340,133,1,339,ratio15_3_18_3.png,,,,,,,,,,,,
,,,,,,,,,,,,Few,Some,Half,Most,Less than half,None,Many,All,More than half,0.454526367,-0.273979492,1,0,0,QQQ3,,,,,,,,English,2020-07-02_11h00.12.834,Experiment_English,3.2.4,MacIntel,60,,,1,0,340,250,1,339,ratio34_6_14_1.png,,,,,,,,,,,,
,,,,,,,,,,,,All,Most,Half,More than half,Few,None,Less than half,Many,Some,-0.530478516,-0.298417969,1,0,0,QQQ9,,,,,,,,English,2020-07-02_11h00.12.834,Experiment_English,3.2.4,MacIntel,60,,,1,0,340,195,1,339,ratio23_8_20_1.png,,,,,,,,,,,,
,,,,,,,,,,,,Some,More than half,None,All,Most,Less than half,Half,Many,Few,-0.085927734,-0.311352539,1,0,0,QQQ6,,,,,,,,English,2020-07-02_11h00.12.834,Experiment_English,3.2.4,MacIntel,60,,,1,0,340,183,1,339,ratio23_2_5_9.png,,,,,,,,,,,,
,,,,,,,,,,,,Some,All,Many,Few,More than half,None,Half,Less than half,Most,0.104682617,0.22918457,1,0,0,QQQ4,,,,,,,,English,2020-07-02_11h00.12.834,Experiment_English,3.2.4,MacIntel,60,,,1,0,340,90,1,339,ratio13_3_12_7.png,,,,,,,,,,,,
,,,,,,,,,,,,All,Half,Most,Some,Many,More than half,None,Few,Less than half,-0.10171875,-0.275131836,1,0,0,QQQ6,,,,,,,,English,2020-07-02_11h00.12.834,Experiment_English,3.2.4,MacIntel,60,,,1,0,340,222,1,339,ratio32_3_5_4.png,,,,,,,,,,,,
,,,,,,,,,,,,More than half,Most,None,Half,Some,Many,Few,All,Less than half,-0.509335937,0.27699707,1,0,0,QQQ7,,,,,,,,English,2020-07-02_11h00.12.834,Experiment_English,3.2.4,MacIntel,60,,,1,0,340,127,1,339,ratio15_2_12_2.png,,,,,,,,,,,,
,,,,,,,,,,,,Many,Half,All,None,Some,Less than half,More than half,Most,Few,-0.055605469,0.237744141,1,0,0,QQQ4,,,,,,,,English,2020-07-02_11h00.12.834,Experiment_English,3.2.4,MacIntel,60,,,1,0,340,66,1,339,ratio0Y_0_9_8.png,,,,,,,,,,,,
,,,,,,,,,,,,Most,All,Half,Few,Less than half,Some,None,More than half,Many,0.433076172,0.266396484,1,0,0,QQQ1,,,,,,,,English,2020-07-02_11h00.12.834,Experiment_English,3.2.4,MacIntel,60,,,1,0,340,306,1,339,ratio51_5_6_18.png,,,,,,,,,,,,
,,,,,,,,,,,,All,Some,Most,More than half,Many,Less than half,Few,None,Half,0.392563477,-0.271655273,1,0,0,QQQ3,,,,,,,,English,2020-07-02_11h00.12.834,Experiment_English,3.2.4,MacIntel,60,,,1,0,340,229,1,339,ratio32_6_10_9.png,,,,,,,,,,,,
,,,,,,,,,,,,Many,Some,Most,Few,Half,All,Less than half,More than half,None,-0.457583008,-0.311103516,1,0,0,QQQ9,,,,,,,,English,2020-07-02_11h00.12.834,Experiment_English,3.2.4,MacIntel,60,,,1,0,340,76,1,339,ratio0Y_0_17_10.png,,,,,,,,,,,,
,,,,,,,,,,,,Half,More than half,Less than half,Many,Most,Some,None,All,Few,-0.383144531,-0.304584961,1,0,0,QQQ9,,,,,,,,English,2020-07-02_11h00.12.834,Experiment_English,3.2.4,MacIntel,60,,,1,0,340,108,1,339,ratio14_2_10_6.png,,,,,,,,,,,,
,,,,,,,,,,,,Some,Less than half,Many,Most,More than half,Few,All,Half,None,0.49668457,0.242539063,1,0,0,QQQ1,,,,,,,,English,2020-07-02_11h00.12.834,Experiment_English,3.2.4,MacIntel,60,,,1,0,340,111,1,339,ratio14_3_15_3.png,,,,,,,,,,,,
,,,,,,,,,,,,Less than half,Half,Few,All,Many,Most,None,More than half,Some,0.403452148,-0.303344727,1,0,0,QQQ3,,,,,,,,English,2020-07-02_11h00.12.834,Experiment_English,3.2.4,MacIntel,60,,,1,0,340,140,1,339,ratio19_1_10_1.png,,,,,,,,,,,,
,,,,,,,,,,,,More than half,Some,Most,Less than half,All,Many,None,Few,Half,-0.381054687,-0.274799805,1,0,0,QQQ9,,,,,,,,English,2020-07-02_11h00.12.834,Experiment_English,3.2.4,MacIntel,60,,,1,0,340,197,1,339,ratio23_8_20_6.png,,,,,,,,,,,,
,,,,,,,,,,,,Some,More than half,Half,Many,All,None,Few,Most,Less than half,-0.470371094,-0.042202148,1,0,0,QQQ8,,,,,,,,English,2020-07-02_11h00.12.834,Experiment_English,3.2.4,MacIntel,60,,,1,0,340,323,1,339,ratio91_9_10_5.png,,,,,,,,,,,,
,,,,,,,,,,,,Few,Some,Less than half,Many,All,More than half,Half,Most,None,0.459067383,0.341269531,1,0,0,QQQ1,,,,,,,,English,2020-07-02_11h00.12.834,Experiment_English,3.2.4,MacIntel,60,,,1,0,340,109,1,339,ratio14_2_10_9.png,,,,,,,,,,,,
,,,,,,,,,,,,All,Few,Half,None,Less than half,Many,Some,More than half,Most,0.011206055,-0.058256836,1,0,0,QQQ5,,,,,,,,English,2020-07-02_11h00.12.834,Experiment_English,3.2.4,MacIntel,60,,,1,0,340,16,1,339,ratio12_5_15_6.png,,,,,,,,,,,,
,,,,,,,,,,,,None,All,Most,Some,Half,Few,Less than half,Many,More than half,0.575307617,-0.293491211,1,0,0,QQQ3,,,,,,,,English,2020-07-02_11h00.12.834,Experiment_English,3.2.4,MacIntel,60,,,1,0,340,200,1,339,ratio31_3_4_4.png,,,,,,,,,,,,
,,,,,,,,,,,,Few,Most,Half,Less than half,None,Some,More than half,All,Many,-0.036069336,0.314804688,1,0,0,QQQ4,,,,,,,,English,2020-07-02_11h00.12.834,Experiment_English,3.2.4,MacIntel,60,,,1,0,340,3,1,339,ratio12_2_6_3.png,,,,,,,,,,,,
,,,,,,,,,,,,Half,Less than half,More than half,All,Some,Few,Many,Most,None,-0.422705078,-0.038583984,1,0,0,QQQ8,,,,,,,,English,2020-07-02_11h00.12.834,Experiment_English,3.2.4,MacIntel,60,,,1,0,340,47,1,339,ratioX0_9_9_4.png,,,,,,,,,,,,
,,,,,,,,,,,,Few,Less than half,Many,Some,All,Half,None,Most,More than half,-0.422705078,-0.038583984,1,0,0,QQQ8,,,,,,,,English,2020-07-02_11h00.12.834,Experiment_English,3.2.4,MacIntel,60,,,1,0,340,49,1,339,ratioX0_11_11_2.png,,,,,,,,,,,,
,,,,,,,,,,,,More than half,None,Less than half,Most,Some,Few,Many,All,Half,-0.405854492,-0.045,1,0,0,QQQ8,,,,,,,,English,2020-07-02_11h00.12.834,Experiment_English,3.2.4,MacIntel,60,,,1,0,340,310,1,339,ratio51_10_12_12.png,,,,,,,,,,,,
,,,,,,,,,,,,Less than half,Few,Some,Most,None,More than half,Many,Half,All,-0.487260742,0.03902832,1,0,0,QQQ8,,,,,,,,English,2020-07-02_11h00.12.834,Experiment_English,3.2.4,MacIntel,60,,,1,0,340,251,1,339,ratio34_6_14_2.png,,,,,,,,,,,,
,,,,,,,,,,,,None,Most,Some,Half,Many,More than half,Few,Less than half,All,0.481367188,-0.302402344,1,0,0,QQQ3,,,,,,,,English,2020-07-02_11h00.12.834,Experiment_English,3.2.4,MacIntel,60,,,1,0,340,96,1,339,ratio13_5_20_1.png,,,,,,,,,,,,
,,,,,,,,,,,,Many,More than half,Less than half,Half,Some,Few,None,Most,All,-0.533183594,-0.024057617,1,0,0,QQQ8,,,,,,,,English,2020-07-02_11h00.12.834,Experiment_English,3.2.4,MacIntel,60,,,1,0,340,334,1,339,ratio91_18_20_9.png,,,,,,,,,,,,
,,,,,,,,,,,,Some,Few,All,None,Many,Half,Most,More than half,Less than half,-0.470361328,-0.294726563,1,0,0,QQQ9,,,,,,,,English,2020-07-02_11h00.12.834,Experiment_English,3.2.4,MacIntel,60,,,1,0,340,23,1,339,ratio11_3_6_9.png,,,,,,,,,,,,
,,,,,,,,,,,,Few,Half,Many,Less than half,None,Most,More than half,All,Some,0.411918945,0.300703125,1,0,0,QQQ1,,,,,,,,English,2020-07-02_11h00.12.834,Experiment_English,3.2.4,MacIntel,60,,,1,0,340,128,1,339,ratio15_2_12_8.png,,,,,,,,,,,,
,,,,,,,,,,,,None,Some,Less than half,Many,All,More than half,Most,Few,Half,-0.081831055,0.244438477,1,0,0,QQQ4,,,,,,,,English,2020-07-02_11h00.12.834,Experiment_English,3.2.4,MacIntel,60,,,1,0,340,208,1,339,ratio31_9_12_3.png,,,,,,,,,,,,
,,,,,,,,,,,,Some,Half,Most,All,Many,More than half,Few,Less than half,None,-0.408173828,0.238383789,1,0,0,QQQ7,,,,,,,,English,2020-07-02_11h00.12.834,Experiment_English,3.2.4,MacIntel,60,,,1,0,340,113,1,339,ratio14_3_15_8.png,,,,,,,,,,,,
,,,,,,,,,,,,None,Most,Some,More than half,Half,Less than half,Many,Few,All,0.515805664,0.013012695,1,0,0,QQQ2,,,,,,,,English,2020-07-02_11h00.12.834,Experiment_English,3.2.4,MacIntel,60,,,1,0,340,273,1,339,ratio41_12_15_8.png,0.378432617,-0.407197266,1,0,0,continue_button_pause,1,0,1,0,1,0
,,,,,,,,,,,,,,,,,,,,,,,,,,,,,,,,,,English,2020-07-02_11h00.12.834,Experiment_English,3.2.4,MacIntel,60,,,1,0,340,273,1,339,ratio41_12_15_8.png,,,,,,,,,,,,
,,,,,,,,,,,,All,None,Many,Few,Most,Half,More than half,Some,Less than half,-0.421708984,0.251142578,1,0,0,QQQ7,,,,,,,,English,2020-07-02_11h00.12.834,Experiment_English,3.2.4,MacIntel,60,,,1,0,340,166,1,339,ratio21_6_9_1.png,,,,,,,,,,,,
,,,,,,,,,,,,Most,Few,Some,Less than half,Half,Many,More than half,All,None,-0.420820313,0.251142578,1,0,0,QQQ7,,,,,,,,English,2020-07-02_11h00.12.834,Experiment_English,3.2.4,MacIntel,60,,,1,0,340,220,1,339,ratio32_3_5_1.png,,,,,,,,,,,,
,,,,,,,,,,,,All,Few,More than half,Most,Many,Half,None,Less than half,Some,0.564536133,-0.025053711,1,0,0,QQQ2,,,,,,,,English,2020-07-02_11h00.12.834,Experiment_English,3.2.4,MacIntel,60,,,1,0,340,149,1,339,ratio19_1_10_20.png,,,,,,,,,,,,
,,,,,,,,,,,,Half,Most,Some,Less than half,Many,Few,None,All,More than half,-0.02855957,-0.329658203,1,0,0,QQQ6,,,,,,,,English,2020-07-02_11h00.12.834,Experiment_English,3.2.4,MacIntel,60,,,1,0,340,145,1,339,ratio19_1_10_15.png,,,,,,,,,,,,
,,,,,,,,,,,,More than half,All,Few,Many,Some,None,Less than half,Half,Most,0.552041016,0.265361328,1,0,0,QQQ1,,,,,,,,English,2020-07-02_11h00.12.834,Experiment_English,3.2.4,MacIntel,60,,,1,0,340,165,1,339,ratio21_4_6_10.png,,,,,,,,,,,,
,,,,,,,,,,,,Most,More than half,Many,Some,None,All,Few,Half,Less than half,0.49237793,-0.028149414,1,0,0,QQQ2,,,,,,,,English,2020-07-02_11h00.12.834,Experiment_English,3.2.4,MacIntel,60,,,1,0,340,286,1,339,ratio43_4_7_15.png,,,,,,,,,,,,
,,,,,,,,,,,,All,Few,None,Many,Half,Most,More than half,Some,Less than half,-0.500795898,0.293120117,1,0,0,QQQ7,,,,,,,,English,2020-07-02_11h00.12.834,Experiment_English,3.2.4,MacIntel,60,,,1,0,340,237,1,339,ratio32_12_20_5.png,,,,,,,,,,,,
,,,,,,,,,,,,More than half,None,All,Many,Most,Half,Some,Few,Less than half,0.076772461,-0.329345703,1,0,0,QQQ6,,,,,,,,English,2020-07-02_11h00.12.834,Experiment_English,3.2.4,MacIntel,60,,,1,0,340,31,1,339,ratio11_6_12_9.png,,,,,,,,,,,,
,,,,,,,,,,,,Less than half,None,Half,Most,Some,More than half,Many,Few,All,-0.043071289,0.343842773,1,0,0,QQQ4,,,,,,,,English,2020-07-02_11h00.12.834,Experiment_English,3.2.4,MacIntel,60,,,1,0,340,325,1,339,ratio91_9_10_8.png,,,,,,,,,,,,
,,,,,,,,,,,,All,Some,None,Many,More than half,Half,Most,Few,Less than half,-0.354384766,0.00090332,1,0,0,QQQ8,,,,,,,,English,2020-07-02_11h00.12.834,Experiment_English,3.2.4,MacIntel,60,,,1,0,340,135,1,339,ratio15_3_18_7.png,,,,,,,,,,,,
,,,,,,,,,,,,None,Most,All,More than half,Some,Half,Few,Many,Less than half,-0.477373047,0.362924805,1,0,0,QQQ7,,,,,,,,English,2020-07-02_11h00.12.834,Experiment_English,3.2.4,MacIntel,60,,,1,0,340,102,1,339,ratio14_1_5_8.png,,,,,,,,,,,,
,,,,,,,,,,,,Some,None,More than half,Half,Most,Few,Less than half,All,Many,0.096210937,-0.266547852,1,0,0,QQQ6,,,,,,,,English,2020-07-02_11h00.12.834,Experiment_English,3.2.4,MacIntel,60,,,1,0,340,101,1,339,ratio14_1_5_7.png,,,,,,,,,,,,
,,,,,,,,,,,,Less than half,All,More than half,Few,Many,Most,Some,None,Half,0.464296875,0.309926758,1,0,0,QQQ1,,,,,,,,English,2020-07-02_11h00.12.834,Experiment_English,3.2.4,MacIntel,60,,,1,0,340,227,1,339,ratio32_6_10_6.png,,,,,,,,,,,,
,,,,,,,,,,,,Most,More than half,Less than half,All,Few,Many,Half,None,Some,0.455126953,-0.313183594,1,0,0,QQQ3,,,,,,,,English,2020-07-02_11h00.12.834,Experiment_English,3.2.4,MacIntel,60,,,1,0,340,2,1,339,ratio12_1_3_10.png,,,,,,,,,,,,
,,,,,,,,,,,,Some,All,Less than half,Few,Many,None,More than half,Most,Half,0.455126953,-0.313183594,1,0,0,QQQ3,,,,,,,,English,2020-07-02_11h00.12.834,Experiment_English,3.2.4,MacIntel,60,,,1,0,340,0,1,339,ratio12_1_3_3.png,,,,,,,,,,,,
,,,,,,,,,,,,All,More than half,Half,Some,Few,Less than half,Most,Many,None,0.01081543,-0.029365234,1,0,0,QQQ5,,,,,,,,English,2020-07-02_11h00.12.834,Experiment_English,3.2.4,MacIntel,60,,,1,0,340,112,1,339,ratio14_3_15_4.png,,,,,,,,,,,,
,,,,,,,,,,,,Half,Some,Few,Less than half,Many,All,Most,More than half,None,-0.546542969,0.018442383,1,0,0,QQQ8,,,,,,,,English,2020-07-02_11h00.12.834,Experiment_English,3.2.4,MacIntel,60,,,1,0,340,224,1,339,ratio32_3_5_10.png,,,,,,,,,,,,
,,,,,,,,,,,,None,Many,Less than half,All,Some,Half,Most,More than half,Few,-0.546542969,0.018442383,1,0,0,QQQ8,,,,,,,,English,2020-07-02_11h00.12.834,Experiment_English,3.2.4,MacIntel,60,,,1,0,340,299,1,339,ratio43_8_14_17.png,,,,,,,,,,,,
,,,,,,,,,,,,Few,Half,Most,Less than half,Many,All,Some,None,More than half,0.529121094,-0.056362305,1,0,0,QQQ2,,,,,,,,English,2020-07-02_11h00.12.834,Experiment_English,3.2.4,MacIntel,60,,,1,0,340,28,1,339,ratio11_5_10_9.png,,,,,,,,,,,,
,,,,,,,,,,,,All,Some,More than half,Less than half,Half,Most,Many,None,Few,0.002290039,-0.053212891,1,0,0,QQQ5,,,,,,,,English,2020-07-02_11h00.12.834,Experiment_English,3.2.4,MacIntel,60,,,1,0,340,241,1,339,ratio34_3_7_5.png,,,,,,,,,,,,
,,,,,,,,,,,,Less than half,Few,Most,More than half,All,None,Some,Many,Half,-0.022861328,0.279165039,1,0,0,QQQ4,,,,,,,,English,2020-07-02_11h00.12.834,Experiment_English,3.2.4,MacIntel,60,,,1,0,340,216,1,339,ratio31_15_20_3.png,,,,,,,,,,,,
,,,,,,,,,,,,Half,None,Many,More than half,Few,All,Less than half,Most,Some,-0.060209961,0.065830078,1,0,0,QQQ5,,,,,,,,English,2020-07-02_11h00.12.834,Experiment_English,3.2.4,MacIntel,60,,,1,0,340,151,1,339,ratio19_2_20_4.png,,,,,,,,,,,,
,,,,,,,,,,,,Most,Some,Few,More than half,None,Less than half,Many,All,Half,0.464233398,-0.24394043,1,0,0,QQQ3,,,,,,,,English,2020-07-02_11h00.12.834,Experiment_English,3.2.4,MacIntel,60,,,1,0,340,144,1,339,ratio19_1_10_11.png,,,,,,,,,,,,
,,,,,,,,,,,,None,Half,All,Less than half,More than half,Few,Most,Some,Many,-0.080131836,0.044321289,1,0,0,QQQ5,,,,,,,,English,2020-07-02_11h00.12.834,Experiment_English,3.2.4,MacIntel,60,,,1,0,340,198,1,339,ratio23_8_20_7.png,,,,,,,,,,,,
,,,,,,,,,,,,Some,More than half,Most,Many,All,Less than half,None,Few,Half,0.454370117,0.289287109,1,0,0,QQQ1,,,,,,,,English,2020-07-02_11h00.12.834,Experiment_English,3.2.4,MacIntel,60,,,1,0,340,240,1,339,ratio34_3_7_4.png,,,,,,,,,,,,
,,,,,,,,,,,,Less than half,Few,Half,All,Many,Some,Most,None,More than half,0.513647461,-0.281674805,1,0,0,QQQ3,,,,,,,,English,2020-07-02_11h00.12.834,Experiment_English,3.2.4,MacIntel,60,,,1,0,340,284,1,339,ratio43_4_7_11.png,,,,,,,,,,,,
,,,,,,,,,,,,Most,Some,Few,Less than half,More than half,None,Half,Many,All,-0.438242187,-0.303227539,1,0,0,QQQ9,,,,,,,,English,2020-07-02_11h00.12.834,Experiment_English,3.2.4,MacIntel,60,,,1,0,340,53,1,339,ratioX0_14_14_8.png,,,,,,,,,,,,
,,,,,,,,,,,,Half,More than half,Few,All,Some,Many,Most,Less than half,None,0.491298828,-0.038652344,1,0,0,QQQ2,,,,,,,,English,2020-07-02_11h00.12.834,Experiment_English,3.2.4,MacIntel,60,,,1,0,340,178,1,339,ratio21_12_18_2.png,,,,,,,,,,,,
,,,,,,,,,,,,Less than half,Few,All,Most,Many,Half,None,Some,More than half,-0.392607422,0.268305664,1,0,0,QQQ7,,,,,,,,English,2020-07-02_11h00.12.834,Experiment_English,3.2.4,MacIntel,60,,,1,0,340,70,1,339,ratio0Y_0_12_5.png,,,,,,,,,,,,
,,,,,,,,,,,,All,Less than half,None,Half,Many,Most,More than half,Few,Some,0.385439453,0.022456055,1,0,0,QQQ2,,,,,,,,English,2020-07-02_11h00.12.834,Experiment_English,3.2.4,MacIntel,60,,,1,0,340,93,1,339,ratio13_4_16_7.png,,,,,,,,,,,,
,,,,,,,,,,,,Most,Half,All,Many,None,Some,Less than half,More than half,Few,-0.455161133,-0.046333008,1,0,0,QQQ8,,,,,,,,English,2020-07-02_11h00.12.834,Experiment_English,3.2.4,MacIntel,60,,,1,0,340,289,1,339,ratio43_4_7_20.png,,,,,,,,,,,,
,,,,,,,,,,,,Less than half,All,None,Few,More than half,Some,Many,Most,Half,-0.024858398,0.201625977,1,0,0,QQQ4,,,,,,,,English,2020-07-02_11h00.12.834,Experiment_English,3.2.4,MacIntel,60,,,1,0,340,120,1,339,ratio15_1_6_1.png,,,,,,,,,,,,
,,,,,,,,,,,,All,Less than half,Many,None,More than half,Few,Half,Most,Some,-0.489140625,0.022084961,1,0,0,QQQ8,,,,,,,,English,2020-07-02_11h00.12.834,Experiment_English,3.2.4,MacIntel,60,,,1,0,340,331,1,339,ratio91_18_20_3.png,,,,,,,,,,,,
,,,,,,,,,,,,Half,Few,Less than half,Some,Most,Many,None,All,More than half,-0.01112793,0.20184082,1,0,0,QQQ4,,,,,,,,English,2020-07-02_11h00.12.834,Experiment_English,3.2.4,MacIntel,60,,,1,0,340,100,1,339,ratio14_1_5_3.png,0.375458984,-0.351074219,1,0,0,continue_button_pause,1,0,1,0,1,0
,,,,,,,,,,,,,,,,,,,,,,,,,,,,,,,,,,English,2020-07-02_11h00.12.834,Experiment_English,3.2.4,MacIntel,60,,,1,0,340,100,1,339,ratio14_1_5_3.png,,,,,,,,,,,,
,,,,,,,,,,,,More than half,Few,Most,Half,None,All,Some,Many,Less than half,0.498203125,-0.04190918,1,0,0,QQQ2,,,,,,,,English,2020-07-02_11h00.12.834,Experiment_English,3.2.4,MacIntel,60,,,1,0,340,146,1,339,ratio19_1_10_17.png,,,,,,,,,,,,
,,,,,,,,,,,,Some,Most,Half,None,Few,Many,All,Less than half,More than half,0.49925293,0.029614258,1,0,0,QQQ2,,,,,,,,English,2020-07-02_11h00.12.834,Experiment_English,3.2.4,MacIntel,60,,,1,0,340,217,1,339,ratio31_15_20_5.png,,,,,,,,,,,,
,,,,,,,,,,,,Few,Some,All,Many,Half,Less than half,Most,More than half,None,-0.409526367,-0.024077148,1,0,0,QQQ8,,,,,,,,English,2020-07-02_11h00.12.834,Experiment_English,3.2.4,MacIntel,60,,,1,0,340,163,1,339,ratio21_4_6_1.png,,,,,,,,,,,,
,,,,,,,,,,,,All,Less than half,Some,Many,Half,Few,Most,More than half,None,0.561806641,0.34484375,1,0,0,QQQ1,,,,,,,,English,2020-07-02_11h00.12.834,Experiment_English,3.2.4,MacIntel,60,,,1,0,340,58,1,339,ratioX0_19_19_4.png,,,,,,,,,,,,
,,,,,,,,,,,,Half,Few,More than half,Most,Many,Some,Less than half,None,All,-0.375317383,0.020893555,1,0,0,QQQ8,,,,,,,,English,2020-07-02_11h00.12.834,Experiment_English,3.2.4,MacIntel,60,,,1,0,340,68,1,339,ratio0Y_0_11_3.png,,,,,,,,,,,,
,,,,,,,,,,,,More than half,Half,Less than half,Few,None,All,Some,Most,Many,0.542871094,0.032763672,1,0,0,QQQ2,,,,,,,,English,2020-07-02_11h00.12.834,Experiment_English,3.2.4,MacIntel,60,,,1,0,340,21,1,339,ratio11_2_4_10.png,,,,,,,,,,,,
,,,,,,,,,,,,Half,Less than half,Few,Some,None,Most,Many,More than half,All,0.045932617,-0.003701172,1,0,0,QQQ5,,,,,,,,English,2020-07-02_11h00.12.834,Experiment_English,3.2.4,MacIntel,60,,,1,0,340,61,1,339,ratio0Y_0_4_7.png,,,,,,,,,,,,
,,,,,,,,,,,,Less than half,All,Half,Some,Many,Most,More than half,Few,None,-0.442573242,0.301494141,1,0,0,QQQ7,,,,,,,,English,2020-07-02_11h00.12.834,Experiment_English,3.2.4,MacIntel,60,,,1,0,340,177,1,339,ratio21_12_18_1.png,,,,,,,,,,,,
,,,,,,,,,,,,Few,More than half,Some,None,All,Many,Half,Most,Less than half,-0.450854492,-0.044819336,1,0,0,QQQ8,,,,,,,,English,2020-07-02_11h00.12.834,Experiment_English,3.2.4,MacIntel,60,,,1,0,340,326,1,339,ratio91_9_10_10.png,,,,,,,,,,,,
,,,,,,,,,,,,Many,None,Few,Half,All,More than half,Some,Less than half,Most,0.415405273,-0.243730469,1,0,0,QQQ3,,,,,,,,English,2020-07-02_11h00.12.834,Experiment_English,3.2.4,MacIntel,60,,,1,0,340,131,1,339,ratio15_2_12_14.png,,,,,,,,,,,,
,,,,,,,,,,,,More than half,Most,Half,Less than half,All,Few,Many,None,Some,0.478652344,0.239633789,1,0,0,QQQ1,,,,,,,,English,2020-07-02_11h00.12.834,Experiment_English,3.2.4,MacIntel,60,,,1,0,340,169,1,339,ratio21_6_9_7.png,,,,,,,,,,,,
,,,,,,,,,,,,Less than half,Half,All,Most,Few,Some,Many,None,More than half,0.505991211,0.008740234,1,0,0,QQQ2,,,,,,,,English,2020-07-02_11h00.12.834,Experiment_English,3.2.4,MacIntel,60,,,1,0,340,39,1,339,ratio11_10_20_6.png,,,,,,,,,,,,
,,,,,,,,,,,,Most,Many,Half,Few,Less than half,Some,More than half,None,All,0.105800781,0.279194336,1,0,0,QQQ4,,,,,,,,English,2020-07-02_11h00.12.834,Experiment_English,3.2.4,MacIntel,60,,,1,0,340,142,1,339,ratio19_1_10_6.png,,,,,,,,,,,,
,,,,,,,,,,,,Few,None,More than half,Most,Less than half,Half,Many,Some,All,0.025180664,-0.058286133,1,0,0,QQQ5,,,,,,,,English,2020-07-02_11h00.12.834,Experiment_English,3.2.4,MacIntel,60,,,1,0,340,12,1,339,ratio12_4_12_10.png,,,,,,,,,,,,
,,,,,,,,,,,,Many,More than half,Less than half,Half,Few,None,Most,All,Some,-0.01668457,-0.312905273,1,0,0,QQQ6,,,,,,,,English,2020-07-02_11h00.12.834,Experiment_English,3.2.4,MacIntel,60,,,1,0,340,75,1,339,ratio0Y_0_16_10.png,,,,,,,,,,,,
,,,,,,,,,,,,Most,Half,Few,Less than half,None,Some,More than half,Many,All,-0.396342773,0.256787109,1,0,0,QQQ7,,,,,,,,English,2020-07-02_11h00.12.834,Experiment_English,3.2.4,MacIntel,60,,,1,0,340,204,1,339,ratio31_6_8_1.png,,,,,,,,,,,,
,,,,,,,,,,,,All,Half,None,Many,Most,Some,Less than half,Few,More than half,-0.417285156,-0.297265625,1,0,0,QQQ9,,,,,,,,English,2020-07-02_11h00.12.834,Experiment_English,3.2.4,MacIntel,60,,,1,0,340,168,1,339,ratio21_6_9_3.png,,,,,,,,,,,,
,,,,,,,,,,,,Most,None,Few,All,Less than half,Many,Some,More than half,Half,-0.028320313,-0.084526367,1,0,0,QQQ5,,,,,,,,English,2020-07-02_11h00.12.834,Experiment_English,3.2.4,MacIntel,60,,,1,0,340,5,1,339,ratio12_2_6_9.png,,,,,,,,,,,,
,,,,,,,,,,,,All,More than half,Half,Some,Few,Most,None,Less than half,Many,0.40453125,0.045639648,1,0,0,QQQ2,,,,,,,,English,2020-07-02_11h00.12.834,Experiment_English,3.2.4,MacIntel,60,,,1,0,340,33,1,339,ratio11_7_14_8.png,,,,,,,,,,,,
,,,,,,,,,,,,Many,Some,More than half,Few,All,Most,Half,Less than half,None,0.499770508,-0.274418945,1,0,0,QQQ3,,,,,,,,English,2020-07-02_11h00.12.834,Experiment_English,3.2.4,MacIntel,60,,,1,0,340,206,1,339,ratio31_6_8_6.png,,,,,,,,,,,,
,,,,,,,,,,,,Less than half,Some,Most,None,All,Half,More than half,Many,Few,-0.545493164,0.005141602,1,0,0,QQQ8,,,,,,,,English,2020-07-02_11h00.12.834,Experiment_English,3.2.4,MacIntel,60,,,1,0,340,203,1,339,ratio31_3_4_9.png,,,,,,,,,,,,
,,,,,,,,,,,,Most,All,Less than half,Half,Some,More than half,Many,None,Few,0.451206055,0.271494141,1,0,0,QQQ1,,,,,,,,English,2020-07-02_11h00.12.834,Experiment_English,3.2.4,MacIntel,60,,,1,0,340,300,1,339,ratio51_5_6_1.png,,,,,,,,,,,,
,,,,,,,,,,,,More than half,Half,None,Some,Many,Few,Most,All,Less than half,0.440180664,-0.294287109,1,0,0,QQQ3,,,,,,,,English,2020-07-02_11h00.12.834,Experiment_English,3.2.4,MacIntel,60,,,1,0,340,73,1,339,ratio0Y_0_14_7.png,,,,,,,,,,,,
,,,,,,,,,,,,Half,More than half,Some,Less than half,Most,None,All,Many,Few,0.514277344,-0.016508789,1,0,0,QQQ2,,,,,,,,English,2020-07-02_11h00.12.834,Experiment_English,3.2.4,MacIntel,60,,,1,0,340,38,1,339,ratio11_10_20_5.png,,,,,,,,,,,,
,,,,,,,,,,,,Some,More than half,Few,All,Less than half,Half,Most,Many,None,-0.445708008,0.310102539,1,0,0,QQQ7,,,,,,,,English,2020-07-02_11h00.12.834,Experiment_English,3.2.4,MacIntel,60,,,1,0,340,338,1,339,ratio91_18_20_18.png,,,,,,,,,,,,
,,,,,,,,,,,,More than half,Less than half,Half,Some,Few,All,None,Many,Most,0.536513672,0.264926758,1,0,0,QQQ1,,,,,,,,English,2020-07-02_11h00.12.834,Experiment_English,3.2.4,MacIntel,60,,,1,0,340,207,1,339,ratio31_6_8_9.png,,,,,,,,,,,,
,,,,,,,,,,,,Less than half,None,All,Few,Most,Half,Some,Many,More than half,-0.48324707,-0.321469727,1,0,0,QQQ9,,,,,,,,English,2020-07-02_11h00.12.834,Experiment_English,3.2.4,MacIntel,60,,,1,0,340,172,1,339,ratio21_8_12_6.png,,,,,,,,,,,,
,,,,,,,,,,,,Less than half,Some,More than half,Few,None,Half,Many,All,Most,0.495966797,0.307167969,1,0,0,QQQ1,,,,,,,,English,2020-07-02_11h00.12.834,Experiment_English,3.2.4,MacIntel,60,,,1,0,340,184,1,339,ratio23_2_5_10.png,,,,,,,,,,,,
,,,,,,,,,,,,Many,Less than half,All,Most,Some,More than half,None,Half,Few,0.115229492,-0.296914063,1,0,0,QQQ6,,,,,,,,English,2020-07-02_11h00.12.834,Experiment_English,3.2.4,MacIntel,60,,,1,0,340,174,1,339,ratio21_10_15_1.png,,,,,,,,,,,,
,,,,,,,,,,,,Many,Less than half,Few,Most,None,Some,Half,More than half,All,0.454633789,-0.048330078,1,0,0,QQQ2,,,,,,,,English,2020-07-02_11h00.12.834,Experiment_English,3.2.4,MacIntel,60,,,1,0,340,9,1,339,ratio12_3_9_5.png,,,,,,,,,,,,
,,,,,,,,,,,,Some,Few,Most,Many,More than half,None,Less than half,Half,All,0.510634766,-0.348583984,1,0,0,QQQ3,,,,,,,,English,2020-07-02_11h00.12.834,Experiment_English,3.2.4,MacIntel,60,,,1,0,340,263,1,339,ratio41_4_5_5.png,,,,,,,,,,,,
,,,,,,,,,,,,Most,Some,Few,All,More than half,Half,None,Many,Less than half,-0.07375,-0.035361328,1,0,0,QQQ5,,,,,,,,English,2020-07-02_11h00.12.834,Experiment_English,3.2.4,MacIntel,60,,,1,0,340,219,1,339,ratio31_15_20_10.png,,,,,,,,,,,,
,,,,,,,,,,,,None,All,Many,More than half,Few,Most,Half,Some,Less than half,-0.07375,-0.035361328,1,0,0,QQQ5,,,,,,,,English,2020-07-02_11h00.12.834,Experiment_English,3.2.4,MacIntel,60,,,1,0,340,81,1,339,ratio13_1_4_5.png,,,,,,,,,,,,
,,,,,,,,,,,,All,Less than half,Most,Many,Few,Some,More than half,None,Half,-0.442866211,0.005092773,1,0,0,QQQ8,,,,,,,,English,2020-07-02_11h00.12.834,Experiment_English,3.2.4,MacIntel,60,,,1,0,340,69,1,339,ratio0Y_0_11_6.png,0.335512695,-0.387036133,1,0,0,continue_button_pause,1,0,1,0,1,0
,,,,,,,,,,,,,,,,,,,,,,,,,,,,,,,,,,English,2020-07-02_11h00.12.834,Experiment_English,3.2.4,MacIntel,60,,,1,0,340,69,1,339,ratio0Y_0_11_6.png,,,,,,,,,,,,
,,,,,,,,,,,,None,Half,Many,All,Less than half,Most,More than half,Few,Some,0.516264648,-0.042089844,1,0,0,QQQ2,,,,,,,,English,2020-07-02_11h00.12.834,Experiment_English,3.2.4,MacIntel,60,,,1,0,340,228,1,339,ratio32_6_10_7.png,,,,,,,,,,,,
,,,,,,,,,,,,All,None,Half,Few,Some,Many,More than half,Less than half,Most,-0.482080078,-0.340297852,1,0,0,QQQ9,,,,,,,,English,2020-07-02_11h00.12.834,Experiment_English,3.2.4,MacIntel,60,,,1,0,340,264,1,339,ratio41_4_5_6.png,,,,,,,,,,,,
,,,,,,,,,,,,Some,Many,More than half,Few,Less than half,Most,Half,All,None,0.39480957,-0.265390625,1,0,0,QQQ3,,,,,,,,English,2020-07-02_11h00.12.834,Experiment_English,3.2.4,MacIntel,60,,,1,0,340,267,1,339,ratio41_8_10_4.png,,,,,,,,,,,,
,,,,,,,,,,,,Less than half,Half,Few,Some,Many,All,More than half,None,Most,-0.526987305,0.301293945,1,0,0,QQQ7,,,,,,,,English,2020-07-02_11h00.12.834,Experiment_English,3.2.4,MacIntel,60,,,1,0,340,307,1,339,ratio51_10_12_1.png,,,,,,,,,,,,
,,,,,,,,,,,,Some,Most,Few,Many,All,More than half,None,Less than half,Half,0.499609375,-0.306132813,1,0,0,QQQ3,,,,,,,,English,2020-07-02_11h00.12.834,Experiment_English,3.2.4,MacIntel,60,,,1,0,340,156,1,339,ratio19_2_20_14.png,,,,,,,,,,,,
,,,,,,,,,,,,More than half,Few,None,Half,Many,Less than half,Most,Some,All,-0.009667969,-0.363642578,1,0,0,QQQ6,,,,,,,,English,2020-07-02_11h00.12.834,Experiment_English,3.2.4,MacIntel,60,,,1,0,340,13,1,339,ratio12_5_15_3.png,,,,,,,,,,,,
,,,,,,,,,,,,Half,Many,All,Most,More than half,Less than half,Few,None,Some,-0.001352539,0.017880859,1,0,0,QQQ5,,,,,,,,English,2020-07-02_11h00.12.834,Experiment_English,3.2.4,MacIntel,60,,,1,0,340,215,1,339,ratio31_12_16_8.png,,,,,,,,,,,,
,,,,,,,,,,,,All,Many,Few,None,Half,Some,Most,More than half,Less than half,0.557519531,0.347407227,1,0,0,QQQ1,,,,,,,,English,2020-07-02_11h00.12.834,Experiment_English,3.2.4,MacIntel,60,,,1,0,340,43,1,339,ratioX0_6_6_9.png,,,,,,,,,,,,
,,,,,,,,,,,,More than half,All,Many,Most,Half,None,Some,Few,Less than half,0.525161133,0.022246094,1,0,0,QQQ2,,,,,,,,English,2020-07-02_11h00.12.834,Experiment_English,3.2.4,MacIntel,60,,,1,0,340,46,1,339,ratioX0_9_9_3.png,,,,,,,,,,,,
,,,,,,,,,,,,More than half,Some,Less than half,All,Half,Few,None,Many,Most,0.423378906,-0.296552734,1,0,0,QQQ3,,,,,,,,English,2020-07-02_11h00.12.834,Experiment_English,3.2.4,MacIntel,60,,,1,0,340,10,1,339,ratio12_4_12_4.png,,,,,,,,,,,,
,,,,,,,,,,,,Most,More than half,All,Half,Less than half,Many,Some,Few,None,0.446210938,-0.012133789,1,0,0,QQQ2,,,,,,,,English,2020-07-02_11h00.12.834,Experiment_English,3.2.4,MacIntel,60,,,1,0,340,221,1,339,ratio32_3_5_3.png,,,,,,,,,,,,
,,,,,,,,,,,,Half,Most,More than half,Many,None,Few,Some,All,Less than half,0.397910156,-0.325200195,1,0,0,QQQ3,,,,,,,,English,2020-07-02_11h00.12.834,Experiment_English,3.2.4,MacIntel,60,,,1,0,340,290,1,339,ratio43_8_14_3.png,,,,,,,,,,,,
,,,,,,,,,,,,Half,Less than half,Some,Few,Most,More than half,None,Many,All,-0.047402344,-0.370063477,1,0,0,QQQ6,,,,,,,,English,2020-07-02_11h00.12.834,Experiment_English,3.2.4,MacIntel,60,,,1,0,340,171,1,339,ratio21_8_12_4.png,,,,,,,,,,,,
,,,,,,,,,,,,None,Most,Some,Half,Many,All,Less than half,More than half,Few,0.023037109,0.315703125,1,0,0,QQQ4,,,,,,,,English,2020-07-02_11h00.12.834,Experiment_English,3.2.4,MacIntel,60,,,1,0,340,22,1,339,ratio11_3_6_6.png,,,,,,,,,,,,
,,,,,,,,,,,,Few,Most,Some,Many,Half,None,Less than half,More than half,All,-0.465205078,0.22340332,1,0,0,QQQ7,,,,,,,,English,2020-07-02_11h00.12.834,Experiment_English,3.2.4,MacIntel,60,,,1,0,340,186,1,339,ratio23_4_10_2.png,,,,,,,,,,,,
,,,,,,,,,,,,Few,All,Some,Half,More than half,Less than half,Most,None,Many,-0.397612305,0.27050293,1,0,0,QQQ7,,,,,,,,English,2020-07-02_11h00.12.834,Experiment_English,3.2.4,MacIntel,60,,,1,0,340,309,1,339,ratio51_10_12_10.png,,,,,,,,,,,,
,,,,,,,,,,,,Half,Some,Most,All,More than half,Many,Less than half,Few,None,0.525786133,-0.303300781,1,0,0,QQQ3,,,,,,,,English,2020-07-02_11h00.12.834,Experiment_English,3.2.4,MacIntel,60,,,1,0,340,320,1,339,ratio91_9_10_1.png,,,,,,,,,,,,
,,,,,,,,,,,,Few,More than half,Half,All,Less than half,None,Some,Most,Many,0.623569336,-0.065151367,1,0,0,QQQ2,,,,,,,,English,2020-07-02_11h00.12.834,Experiment_English,3.2.4,MacIntel,60,,,1,0,340,170,1,339,ratio21_6_9_8.png,,,,,,,,,,,,
,,,,,,,,,,,,Half,Many,Few,All,None,Some,Less than half,More than half,Most,-0.481235352,-0.250478516,1,0,0,QQQ9,,,,,,,,English,2020-07-02_11h00.12.834,Experiment_English,3.2.4,MacIntel,60,,,1,0,340,333,1,339,ratio91_18_20_6.png,,,,,,,,,,,,
,,,,,,,,,,,,Half,More than half,Less than half,All,Most,Many,None,Few,Some,0.370581055,-0.244829102,1,0,0,QQQ3,,,,,,,,English,2020-07-02_11h00.12.834,Experiment_English,3.2.4,MacIntel,60,,,1,0,340,95,1,339,ratio13_4_16_10.png,,,,,,,,,,,,
,,,,,,,,,,,,Less than half,More than half,Some,Many,Most,Few,None,All,Half,-0.023759766,-0.000214844,1,0,0,QQQ5,,,,,,,,English,2020-07-02_11h00.12.834,Experiment_English,3.2.4,MacIntel,60,,,1,0,340,173,1,339,ratio21_8_12_9.png,,,,,,,,,,,,
,,,,,,,,,,,,Some,Less than half,All,Most,Half,Many,Few,None,More than half,0.615092773,-0.012138672,1,0,0,QQQ2,,,,,,,,English,2020-07-02_11h00.12.834,Experiment_English,3.2.4,MacIntel,60,,,1,0,340,14,1,339,ratio12_5_15_4.png,,,,,,,,,,,,
,,,,,,,,,,,,Some,Few,None,Half,Many,All,More than half,Most,Less than half,0.450019531,0.003530273,1,0,0,QQQ2,,,,,,,,English,2020-07-02_11h00.12.834,Experiment_English,3.2.4,MacIntel,60,,,1,0,340,153,1,339,ratio19_2_20_8.png,,,,,,,,,,,,
,,,,,,,,,,,,Less than half,Many,Half,Few,All,More than half,Some,None,Most,0.519389648,0.390273437,1,0,0,QQQ1,,,,,,,,English,2020-07-02_11h00.12.834,Experiment_English,3.2.4,MacIntel,60,,,1,0,340,88,1,339,ratio13_3_12_5.png,,,,,,,,,,,,
,,,,,,,,,,,,More than half,Some,Many,None,Less than half,Most,All,Half,Few,-0.426977539,0.33409668,1,0,0,QQQ7,,,,,,,,English,2020-07-02_11h00.12.834,Experiment_English,3.2.4,MacIntel,60,,,1,0,340,50,1,339,ratioX0_12_12_3.png,,,,,,,,,,,,
,,,,,,,,,,,,None,Some,Less than half,Few,Many,More than half,Most,Half,All,-0.443793945,0.308564453,1,0,0,QQQ7,,,,,,,,English,2020-07-02_11h00.12.834,Experiment_English,3.2.4,MacIntel,60,,,1,0,340,317,1,339,ratio51_15_18_13.png,,,,,,,,,,,,
,,,,,,,,,,,,Most,Few,More than half,Half,All,Many,None,Some,Less than half,0.093354492,0.01980957,1,0,0,QQQ5,,,,,,,,English,2020-07-02_11h00.12.834,Experiment_English,3.2.4,MacIntel,60,,,1,0,340,40,1,339,ratioX0_3_3_5.png,,,,,,,,,,,,
,,,,,,,,,,,,Most,More than half,Many,Some,Less than half,None,All,Half,Few,0.591459961,0.305170898,1,0,0,QQQ1,,,,,,,,English,2020-07-02_11h00.12.834,Experiment_English,3.2.4,MacIntel,60,,,1,0,340,268,1,339,ratio41_8_10_5.png,,,,,,,,,,,,
,,,,,,,,,,,,Few,Most,All,Many,Half,None,Less than half,Some,More than half,-0.465629883,-0.315307617,1,0,0,QQQ9,,,,,,,,English,2020-07-02_11h00.12.834,Experiment_English,3.2.4,MacIntel,60,,,1,0,340,225,1,339,ratio32_6_10_4.png,,,,,,,,,,,,
,,,,,,,,,,,,Some,Most,Few,Half,None,All,Many,More than half,Less than half,0.500961914,-0.050688477,1,0,0,QQQ2,,,,,,,,English,2020-07-02_11h00.12.834,Experiment_English,3.2.4,MacIntel,60,,,1,0,340,262,1,339,ratio41_4_5_4.png,,,,,,,,,,,,
,,,,,,,,,,,,Few,Many,All,More than half,Some,Less than half,Most,Half,None,0.031000977,0.29703125,1,0,0,QQQ4,,,,,,,,English,2020-07-02_11h00.12.834,Experiment_English,3.2.4,MacIntel,60,,,1,0,340,288,1,339,ratio43_4_7_18.png,,,,,,,,,,,,
,,,,,,,,,,,,All,Many,None,Less than half,Few,More than half,Some,Half,Most,-0.498305664,-0.271513672,1,0,0,QQQ9,,,,,,,,English,2020-07-02_11h00.12.834,Experiment_English,3.2.4,MacIntel,60,,,1,0,340,272,1,339,ratio41_12_15_7.png,,,,,,,,,,,,
,,,,,,,,,,,,Most,Half,Many,All,Few,Less than half,More than half,None,Some,-0.532529297,0.262915039,1,0,0,QQQ7,,,,,,,,English,2020-07-02_11h00.12.834,Experiment_English,3.2.4,MacIntel,60,,,1,0,340,236,1,339,ratio32_12_20_2.png,,,,,,,,,,,,
,,,,,,,,,,,,Less than half,Some,All,Many,More than half,Few,None,Half,Most,0.545786133,0.315244141,1,0,0,QQQ1,,,,,,,,English,2020-07-02_11h00.12.834,Experiment_English,3.2.4,MacIntel,60,,,1,0,340,245,1,339,ratio34_3_7_10.png,0.306044922,-0.402646484,1,0,0,continue_button_pause,1,0,1,0,1,0
,,,,,,,,,,,,,,,,,,,,,,,,,,,,,,,,,,English,2020-07-02_11h00.12.834,Experiment_English,3.2.4,MacIntel,60,,,1,0,340,245,1,339,ratio34_3_7_10.png,,,,,,,,,,,,
,,,,,,,,,,,,Some,Few,Half,Most,All,Many,None,Less than half,More than half,0.525556641,0.018520508,1,0,0,QQQ2,,,,,,,,English,2020-07-02_11h00.12.834,Experiment_English,3.2.4,MacIntel,60,,,1,0,340,159,1,339,ratio19_2_20_20.png,,,,,,,,,,,,
,,,,,,,,,,,,Half,Few,All,None,Most,Less than half,Many,Some,More than half,-0.419052734,-0.330268555,1,0,0,QQQ9,,,,,,,,English,2020-07-02_11h00.12.834,Experiment_English,3.2.4,MacIntel,60,,,1,0,340,234,1,339,ratio32_9_15_10.png,,,,,,,,,,,,
,,,,,,,,,,,,More than half,All,Less than half,Many,Most,Few,Some,None,Half,-0.020395508,0.025698242,1,0,0,QQQ5,,,,,,,,English,2020-07-02_11h00.12.834,Experiment_English,3.2.4,MacIntel,60,,,1,0,340,315,1,339,ratio51_15_18_10.png,,,,,,,,,,,,
,,,,,,,,,,,,Less than half,Few,Some,None,Most,All,More than half,Half,Many,-0.532172852,0.30652832,1,0,0,QQQ7,,,,,,,,English,2020-07-02_11h00.12.834,Experiment_English,3.2.4,MacIntel,60,,,1,0,340,294,1,339,ratio43_8_14_9.png,,,,,,,,,,,,
,,,,,,,,,,,,Some,More than half,All,Less than half,Half,Many,None,Most,Few,-0.071518555,0.352128906,1,0,0,QQQ4,,,,,,,,English,2020-07-02_11h00.12.834,Experiment_English,3.2.4,MacIntel,60,,,1,0,340,92,1,339,ratio13_4_16_3.png,,,,,,,,,,,,
,,,,,,,,,,,,Half,Few,Many,None,Some,All,More than half,Less than half,Most,-0.406679687,-0.238212891,1,0,0,QQQ9,,,,,,,,English,2020-07-02_11h00.12.834,Experiment_English,3.2.4,MacIntel,60,,,1,0,340,303,1,339,ratio51_5_6_6.png,,,,,,,,,,,,
,,,,,,,,,,,,Most,Many,Less than half,All,More than half,None,Half,Some,Few,-0.003989258,-0.049931641,1,0,0,QQQ5,,,,,,,,English,2020-07-02_11h00.12.834,Experiment_English,3.2.4,MacIntel,60,,,1,0,340,232,1,339,ratio32_9_15_8.png,,,,,,,,,,,,
,,,,,,,,,,,,More than half,All,Many,Some,Half,Most,Few,None,Less than half,-0.556972656,-0.32046875,1,0,0,QQQ9,,,,,,,,English,2020-07-02_11h00.12.834,Experiment_English,3.2.4,MacIntel,60,,,1,0,340,189,1,339,ratio23_4_10_8.png,,,,,,,,,,,,
,,,,,,,,,,,,Less than half,Few,All,Some,Half,Most,None,More than half,Many,0.362167969,-0.272114258,1,0,0,QQQ3,,,,,,,,English,2020-07-02_11h00.12.834,Experiment_English,3.2.4,MacIntel,60,,,1,0,340,57,1,339,ratioX0_18_18_1.png,,,,,,,,,,,,
,,,,,,,,,,,,Half,Less than half,Many,Most,More than half,Some,All,None,Few,0.10440918,-0.085546875,1,0,0,QQQ5,,,,,,,,English,2020-07-02_11h00.12.834,Experiment_English,3.2.4,MacIntel,60,,,1,0,340,298,1,339,ratio43_8_14_14.png,,,,,,,,,,,,
,,,,,,,,,,,,More than half,Most,Few,All,Some,Many,Less than half,None,Half,-0.009780273,0.360498047,1,0,0,QQQ4,,,,,,,,English,2020-07-02_11h00.12.834,Experiment_English,3.2.4,MacIntel,60,,,1,0,340,59,1,339,ratioX0_20_20_9.png,,,,,,,,,,,,
,,,,,,,,,,,,Most,Half,All,Few,Some,Less than half,More than half,None,Many,-0.059125977,-0.332294922,1,0,0,QQQ6,,,,,,,,English,2020-07-02_11h00.12.834,Experiment_English,3.2.4,MacIntel,60,,,1,0,340,257,1,339,ratio34_6_14_12.png,,,,,,,,,,,,
,,,,,,,,,,,,Most,Less than half,Many,More than half,All,None,Some,Half,Few,0.619794922,0.281967773,1,0,0,QQQ1,,,,,,,,English,2020-07-02_11h00.12.834,Experiment_English,3.2.4,MacIntel,60,,,1,0,340,302,1,339,ratio51_5_6_5.png,,,,,,,,,,,,
,,,,,,,,,,,,Few,None,Some,More than half,Half,Many,Less than half,All,Most,-0.015117188,0.247050781,1,0,0,QQQ4,,,,,,,,English,2020-07-02_11h00.12.834,Experiment_English,3.2.4,MacIntel,60,,,1,0,340,34,1,339,ratio11_8_16_8.png,,,,,,,,,,,,
,,,,,,,,,,,,Most,More than half,Half,Many,Few,None,Less than half,All,Some,0.495629883,-0.288466797,1,0,0,QQQ3,,,,,,,,English,2020-07-02_11h00.12.834,Experiment_English,3.2.4,MacIntel,60,,,1,0,340,24,1,339,ratio11_4_8_3.png,,,,,,,,,,,,
,,,,,,,,,,,,Few,Half,Many,Some,More than half,Most,Less than half,None,All,-0.479453125,-0.286772461,1,0,0,QQQ9,,,,,,,,English,2020-07-02_11h00.12.834,Experiment_English,3.2.4,MacIntel,60,,,1,0,340,41,1,339,ratioX0_4_4_9.png,,,,,,,,,,,,
,,,,,,,,,,,,Half,Less than half,Some,All,None,Most,More than half,Few,Many,-0.491157227,0.334838867,1,0,0,QQQ7,,,,,,,,English,2020-07-02_11h00.12.834,Experiment_English,3.2.4,MacIntel,60,,,1,0,340,214,1,339,ratio31_12_16_5.png,,,,,,,,,,,,
,,,,,,,,,,,,Most,None,Less than half,Some,Many,More than half,Half,All,Few,0.450483398,-0.201865234,1,0,0,QQQ3,,,,,,,,English,2020-07-02_11h00.12.834,Experiment_English,3.2.4,MacIntel,60,,,1,0,340,25,1,339,ratio11_4_8_10.png,,,,,,,,,,,,
,,,,,,,,,,,,Few,More than half,Half,Less than half,Many,Some,None,All,Most,0.51737793,0.002744141,1,0,0,QQQ2,,,,,,,,English,2020-07-02_11h00.12.834,Experiment_English,3.2.4,MacIntel,60,,,1,0,340,296,1,339,ratio43_8_14_12.png,,,,,,,,,,,,
,,,,,,,,,,,,Half,Most,Less than half,Many,Few,None,All,More than half,Some,0.559228516,-0.334882813,1,0,0,QQQ3,,,,,,,,English,2020-07-02_11h00.12.834,Experiment_English,3.2.4,MacIntel,60,,,1,0,340,116,1,339,ratio14_4_20_3.png,,,,,,,,,,,,
,,,,,,,,,,,,Many,Few,None,Most,More than half,Some,Half,Less than half,All,0.003813477,0.272421875,1,0,0,QQQ4,,,,,,,,English,2020-07-02_11h00.12.834,Experiment_English,3.2.4,MacIntel,60,,,1,0,340,266,1,339,ratio41_8_10_2.png,,,,,,,,,,,,
,,,,,,,,,,,,Many,Some,More than half,None,Most,Half,Few,All,Less than half,-0.398759766,-0.282797852,1,0,0,QQQ9,,,,,,,,English,2020-07-02_11h00.12.834,Experiment_English,3.2.4,MacIntel,60,,,1,0,340,248,1,339,ratio34_3_7_19.png,,,,,,,,,,,,
,,,,,,,,,,,,Half,All,None,Less than half,More than half,Some,Most,Many,Few,-0.558334961,0.220415039,1,0,0,QQQ7,,,,,,,,English,2020-07-02_11h00.12.834,Experiment_English,3.2.4,MacIntel,60,,,1,0,340,324,1,339,ratio91_9_10_7.png,,,,,,,,,,,,
,,,,,,,,,,,,All,Most,Many,Some,More than half,Less than half,Half,None,Few,-0.048452148,-0.043173828,1,0,0,QQQ5,,,,,,,,English,2020-07-02_11h00.12.834,Experiment_English,3.2.4,MacIntel,60,,,1,0,340,281,1,339,ratio43_4_7_4.png,,,,,,,,,,,,
,,,,,,,,,,,,None,Some,More than half,Most,Half,Less than half,Many,All,Few,-0.520913086,-0.298769531,1,0,0,QQQ9,,,,,,,,English,2020-07-02_11h00.12.834,Experiment_English,3.2.4,MacIntel,60,,,1,0,340,126,1,339,ratio15_2_12_1.png,,,,,,,,,,,,
,,,,,,,,,,,,None,Few,Many,More than half,Half,Some,Most,Less than half,All,0.021142578,0.248686523,1,0,0,QQQ4,,,,,,,,English,2020-07-02_11h00.12.834,Experiment_English,3.2.4,MacIntel,60,,,1,0,340,292,1,339,ratio43_8_14_6.png,,,,,,,,,,,,
,,,,,,,,,,,,Few,Some,Most,Many,None,Half,Less than half,More than half,All,0.450571289,0.290541992,1,0,0,QQQ1,,,,,,,,English,2020-07-02_11h00.12.834,Experiment_English,3.2.4,MacIntel,60,,,1,0,340,104,1,339,ratio14_1_5_10.png,,,,,,,,,,,,
,,,,,,,,,,,,Some,All,Few,Half,Many,None,Most,Less than half,More than half,0.039350586,0.318916016,1,0,0,QQQ4,,,,,,,,English,2020-07-02_11h00.12.834,Experiment_English,3.2.4,MacIntel,60,,,1,0,340,35,1,339,ratio11_8_16_10.png,,,,,,,,,,,,
,,,,,,,,,,,,Most,Few,Half,More than half,All,Less than half,Some,None,Many,-0.012919922,0.289545898,1,0,0,QQQ4,,,,,,,,English,2020-07-02_11h00.12.834,Experiment_English,3.2.4,MacIntel,60,,,1,0,340,239,1,339,ratio32_12_20_10.png,,,,,,,,,,,,
,,,,,,,,,,,,Many,More than half,All,Few,Some,Less than half,Half,Most,None,-0.005771484,-0.005356445,1,0,0,QQQ5,,,,,,,,English,2020-07-02_11h00.12.834,Experiment_English,3.2.4,MacIntel,60,,,1,0,340,7,1,339,ratio12_3_9_2.png,,,,,,,,,,,,
,,,,,,,,,,,,All,None,Less than half,Some,More than half,Half,Many,Few,Most,0.577773437,-0.047436523,1,0,0,QQQ2,,,,,,,,English,2020-07-02_11h00.12.834,Experiment_English,3.2.4,MacIntel,60,,,1,0,340,65,1,339,ratio0Y_0_8_4.png,,,,,,,,,,,,
,,,,,,,,,,,,Most,All,Few,Some,More than half,Less than half,None,Half,Many,0.389384766,-0.307182617,1,0,0,QQQ3,,,,,,,,English,2020-07-02_11h00.12.834,Experiment_English,3.2.4,MacIntel,60,,,1,0,340,89,1,339,ratio13_3_12_6.png,,,,,,,,,,,,
,,,,,,,,,,,,Less than half,None,Few,Most,Many,Some,Half,All,More than half,-0.010405273,0.280742188,1,0,0,QQQ4,,,,,,,,English,2020-07-02_11h00.12.834,Experiment_English,3.2.4,MacIntel,60,,,1,0,340,312,1,339,ratio51_10_12_16.png,,,,,,,,,,,,
,,,,,,,,,,,,Half,More than half,Few,All,Less than half,Most,None,Many,Some,0.561411133,-0.020351562,1,0,0,QQQ2,,,,,,,,English,2020-07-02_11h00.12.834,Experiment_English,3.2.4,MacIntel,60,,,1,0,340,280,1,339,ratio43_4_7_2.png,0.268764648,-0.409257812,1,0,0,continue_button_pause,1,0,1,0,1,0
,,,,,,,,,,,,,,,,,,,,,,,,,,,,,,,,,,English,2020-07-02_11h00.12.834,Experiment_English,3.2.4,MacIntel,60,,,1,0,340,280,1,339,ratio43_4_7_2.png,,,,,,,,,,,,
,,,,,,,,,,,,Some,Few,All,None,Half,More than half,Less than half,Many,Most,0.522910156,0.045576172,1,0,0,QQQ2,,,,,,,,English,2020-07-02_11h00.12.834,Experiment_English,3.2.4,MacIntel,60,,,1,0,340,105,1,339,ratio14_2_10_1.png,,,,,,,,,,,,
,,,,,,,,,,,,Some,Many,Half,Most,Less than half,None,More than half,All,Few,-0.406396484,-0.288618164,1,0,0,QQQ9,,,,,,,,English,2020-07-02_11h00.12.834,Experiment_English,3.2.4,MacIntel,60,,,1,0,340,141,1,339,ratio19_1_10_2.png,,,,,,,,,,,,
,,,,,,,,,,,,All,None,Many,Few,Most,Less than half,Some,Half,More than half,-0.010722656,0.055878906,1,0,0,QQQ5,,,,,,,,English,2020-07-02_11h00.12.834,Experiment_English,3.2.4,MacIntel,60,,,1,0,340,330,1,339,ratio91_18_20_2.png,,,,,,,,,,,,
,,,,,,,,,,,,Some,All,Less than half,Half,Most,More than half,Many,None,Few,-0.010722656,0.046645508,1,0,0,QQQ5,,,,,,,,English,2020-07-02_11h00.12.834,Experiment_English,3.2.4,MacIntel,60,,,1,0,340,260,1,339,ratio41_4_5_2.png,,,,,,,,,,,,
,,,,,,,,,,,,Many,More than half,None,Half,Some,All,Most,Less than half,Few,-0.461791992,0.368813477,1,0,0,QQQ7,,,,,,,,English,2020-07-02_11h00.12.834,Experiment_English,3.2.4,MacIntel,60,,,1,0,340,269,1,339,ratio41_8_10_6.png,,,,,,,,,,,,
,,,,,,,,,,,,Most,Some,All,Many,None,More than half,Few,Less than half,Half,0.34222168,-0.318549805,1,0,0,QQQ3,,,,,,,,English,2020-07-02_11h00.12.834,Experiment_English,3.2.4,MacIntel,60,,,1,0,340,42,1,339,ratioX0_5_5_5.png,,,,,,,,,,,,
,,,,,,,,,,,,Some,None,Few,Most,Less than half,All,Half,More than half,Many,0.031635742,0.014882813,1,0,0,QQQ5,,,,,,,,English,2020-07-02_11h00.12.834,Experiment_English,3.2.4,MacIntel,60,,,1,0,340,99,1,339,ratio13_5_20_4.png,,,,,,,,,,,,
,,,,,,,,,,,,Many,Less than half,Few,All,More than half,None,Half,Some,Most,0.590371094,-0.031269531,1,0,0,QQQ2,,,,,,,,English,2020-07-02_11h00.12.834,Experiment_English,3.2.4,MacIntel,60,,,1,0,340,11,1,339,ratio12_4_12_7.png,,,,,,,,,,,,
,,,,,,,,,,,,More than half,None,Less than half,Half,All,Many,Few,Some,Most,0.396762695,0.299868164,1,0,0,QQQ1,,,,,,,,English,2020-07-02_11h00.12.834,Experiment_English,3.2.4,MacIntel,60,,,1,0,340,212,1,339,ratio31_12_16_1.png,,,,,,,,,,,,
,,,,,,,,,,,,More than half,Few,Less than half,Many,None,Half,All,Some,Most,0.030375977,-0.04887207,1,0,0,QQQ5,,,,,,,,English,2020-07-02_11h00.12.834,Experiment_English,3.2.4,MacIntel,60,,,1,0,340,72,1,339,ratio0Y_0_13_4.png,,,,,,,,,,,,
,,,,,,,,,,,,Some,Most,Half,Many,Few,None,More than half,All,Less than half,-0.4678125,0.205576172,1,0,0,QQQ7,,,,,,,,English,2020-07-02_11h00.12.834,Experiment_English,3.2.4,MacIntel,60,,,1,0,340,274,1,339,ratio41_12_15_9.png,,,,,,,,,,,,
,,,,,,,,,,,,None,Most,Some,Few,All,Half,Many,More than half,Less than half,-0.422329102,0.004165039,1,0,0,QQQ8,,,,,,,,English,2020-07-02_11h00.12.834,Experiment_English,3.2.4,MacIntel,60,,,1,0,340,258,1,339,ratio34_6_14_14.png,,,,,,,,,,,,
,,,,,,,,,,,,Half,Some,Most,Few,None,All,Many,More than half,Less than half,-0.417905273,0.01125,1,0,0,QQQ8,,,,,,,,English,2020-07-02_11h00.12.834,Experiment_English,3.2.4,MacIntel,60,,,1,0,340,276,1,339,ratio41_16_20_4.png,,,,,,,,,,,,
,,,,,,,,,,,,Most,All,Some,None,Few,Less than half,More than half,Half,Many,-0.3640625,0.28269043,1,0,0,QQQ7,,,,,,,,English,2020-07-02_11h00.12.834,Experiment_English,3.2.4,MacIntel,60,,,1,0,340,291,1,339,ratio43_8_14_5.png,,,,,,,,,,,,
,,,,,,,,,,,,Most,All,Many,More than half,Half,None,Few,Some,Less than half,0.536918945,0.005537109,1,0,0,QQQ2,,,,,,,,English,2020-07-02_11h00.12.834,Experiment_English,3.2.4,MacIntel,60,,,1,0,340,51,1,339,ratioX0_12_12_9.png,,,,,,,,,,,,
,,,,,,,,,,,,Few,All,Most,Some,Many,None,Less than half,More than half,Half,-0.47737793,0.312993164,1,0,0,QQQ7,,,,,,,,English,2020-07-02_11h00.12.834,Experiment_English,3.2.4,MacIntel,60,,,1,0,340,17,1,339,ratio12_6_18_5.png,,,,,,,,,,,,
,,,,,,,,,,,,All,Few,Half,None,Most,Less than half,Many,Some,More than half,0.409707031,0.032016602,1,0,0,QQQ2,,,,,,,,English,2020-07-02_11h00.12.834,Experiment_English,3.2.4,MacIntel,60,,,1,0,340,143,1,339,ratio19_1_10_9.png,,,,,,,,,,,,
,,,,,,,,,,,,Most,All,None,Many,More than half,Some,Half,Few,Less than half,-0.415429687,-0.323789063,1,0,0,QQQ9,,,,,,,,English,2020-07-02_11h00.12.834,Experiment_English,3.2.4,MacIntel,60,,,1,0,340,190,1,339,ratio23_6_15_3.png,,,,,,,,,,,,
,,,,,,,,,,,,Less than half,All,Some,Few,Half,None,Most,Many,More than half,0.476904297,-0.219111328,1,0,0,QQQ3,,,,,,,,English,2020-07-02_11h00.12.834,Experiment_English,3.2.4,MacIntel,60,,,1,0,340,97,1,339,ratio13_5_20_2.png,,,,,,,,,,,,
,,,,,,,,,,,,All,More than half,Few,Half,Many,None,Less than half,Most,Some,-0.049179687,0.256777344,1,0,0,QQQ4,,,,,,,,English,2020-07-02_11h00.12.834,Experiment_English,3.2.4,MacIntel,60,,,1,0,340,252,1,339,ratio34_6_14_3.png,,,,,,,,,,,,
,,,,,,,,,,,,None,More than half,Less than half,Many,Few,Most,Some,Half,All,-0.031088867,-0.077753906,1,0,0,QQQ5,,,,,,,,English,2020-07-02_11h00.12.834,Experiment_English,3.2.4,MacIntel,60,,,1,0,340,139,1,339,ratio15_3_18_20.png,,,,,,,,,,,,
,,,,,,,,,,,,Many,All,Few,Half,Less than half,More than half,None,Some,Most,-0.031088867,-0.077753906,1,0,0,QQQ5,,,,,,,,English,2020-07-02_11h00.12.834,Experiment_English,3.2.4,MacIntel,60,,,1,0,340,19,1,339,ratio12_6_18_9.png,,,,,,,,,,,,
,,,,,,,,,,,,Less than half,All,Some,Most,More than half,Many,Half,None,Few,-0.408334961,-0.313798828,1,0,0,QQQ9,,,,,,,,English,2020-07-02_11h00.12.834,Experiment_English,3.2.4,MacIntel,60,,,1,0,340,106,1,339,ratio14_2_10_2.png,,,,,,,,,,,,
,,,,,,,,,,,,Most,Some,All,Few,None,Half,More than half,Less than half,Many,0.084106445,0.34112793,1,0,0,QQQ4,,,,,,,,English,2020-07-02_11h00.12.834,Experiment_English,3.2.4,MacIntel,60,,,1,0,340,154,1,339,ratio19_2_20_11.png,,,,,,,,,,,,
,,,,,,,,,,,,More than half,Some,Less than half,Half,Many,None,Most,All,Few,0.436494141,-0.31996582,1,0,0,QQQ3,,,,,,,,English,2020-07-02_11h00.12.834,Experiment_English,3.2.4,MacIntel,60,,,1,0,340,1,1,339,ratio12_1_3_7.png,,,,,,,,,,,,
,,,,,,,,,,,,Many,All,Half,Some,More than half,Less than half,Most,Few,None,0.454604492,0.093618164,1,0,0,QQQ2,,,,,,,,English,2020-07-02_11h00.12.834,Experiment_English,3.2.4,MacIntel,60,,,1,0,340,56,1,339,ratioX0_17_17_10.png,,,,,,,,,,,,
,,,,,,,,,,,,More than half,Many,All,Some,Most,Half,None,Few,Less than half,0.521166992,-0.23824707,1,0,0,QQQ3,,,,,,,,English,2020-07-02_11h00.12.834,Experiment_English,3.2.4,MacIntel,60,,,1,0,340,44,1,339,ratioX0_7_7_5.png,,,,,,,,,,,,
,,,,,,,,,,,,Half,Few,Less than half,Most,More than half,Many,Some,All,None,-0.493588867,-0.297514648,1,0,0,QQQ9,,,,,,,,English,2020-07-02_11h00.12.834,Experiment_English,3.2.4,MacIntel,60,,,1,0,340,63,1,339,ratio0Y_0_6_8.png,,,,,,,,,,,,
,,,,,,,,,,,,Less than half,Most,Half,More than half,All,None,Few,Some,Many,0.00871582,0.24253418,1,0,0,QQQ4,,,,,,,,English,2020-07-02_11h00.12.834,Experiment_English,3.2.4,MacIntel,60,,,1,0,340,164,1,339,ratio21_4_6_6.png,,,,,,,,,,,,
,,,,,,,,,,,,Many,More than half,Few,All,Most,Some,None,Less than half,Half,0.411420898,-0.310332031,1,0,0,QQQ3,,,,,,,,English,2020-07-02_11h00.12.834,Experiment_English,3.2.4,MacIntel,60,,,1,0,340,155,1,339,ratio19_2_20_13.png,,,,,,,,,,,,
,,,,,,,,,,,,Many,None,Less than half,Half,All,Most,Some,Few,More than half,-0.363818359,-0.27996582,1,0,0,QQQ9,,,,,,,,English,2020-07-02_11h00.12.834,Experiment_English,3.2.4,MacIntel,60,,,1,0,340,176,1,339,ratio21_10_15_3.png,,,,,,,,,,,,
,,,,,,,,,,,,Many,None,Some,More than half,All,Half,Less than half,Few,Most,-0.053022461,0.3540625,1,0,0,QQQ4,,,,,,,,English,2020-07-02_11h00.12.834,Experiment_English,3.2.4,MacIntel,60,,,1,0,340,318,1,339,ratio51_15_18_18.png,,,,,,,,,,,,
,,,,,,,,,,,,Half,None,More than half,All,Some,Less than half,Many,Few,Most,0.452451172,-0.28144043,1,0,0,QQQ3,,,,,,,,English,2020-07-02_11h00.12.834,Experiment_English,3.2.4,MacIntel,60,,,1,0,340,167,1,339,ratio21_6_9_2.png,,,,,,,,,,,,
,,,,,,,,,,,,Most,Half,Some,None,Less than half,All,More than half,Many,Few,-0.483037109,0.237597656,1,0,0,QQQ7,,,,,,,,English,2020-07-02_11h00.12.834,Experiment_English,3.2.4,MacIntel,60,,,1,0,340,213,1,339,ratio31_12_16_2.png,0.290253906,-0.415219727,1,0,0,continue_button_pause,1,0,1,0,1,0
,,,,,,,,,,,,,,,,,,,,,,,,,,,,,,,,,,English,2020-07-02_11h00.12.834,Experiment_English,3.2.4,MacIntel,60,,,1,0,340,213,1,339,ratio31_12_16_2.png,,,,,,,,,,,,
,,,,,,,,,,,,None,Half,Many,All,Some,Most,More than half,Less than half,Few,-0.4509375,0.332636719,1,0,0,QQQ7,,,,,,,,English,2020-07-02_11h00.12.834,Experiment_English,3.2.4,MacIntel,60,,,1,0,340,246,1,339,ratio34_3_7_11.png,,,,,,,,,,,,
,,,,,,,,,,,,Less than half,More than half,Half,Many,All,Some,Few,None,Most,0.00597168,-0.0075,1,0,0,QQQ5,,,,,,,,English,2020-07-02_11h00.12.834,Experiment_English,3.2.4,MacIntel,60,,,1,0,340,78,1,339,ratio0Y_0_19_1.png,,,,,,,,,,,,
,,,,,,,,,,,,Half,More than half,Few,All,Less than half,None,Some,Most,Many,-0.431289062,-0.069536133,1,0,0,QQQ8,,,,,,,,English,2020-07-02_11h00.12.834,Experiment_English,3.2.4,MacIntel,60,,,1,0,340,26,1,339,ratio11_5_10_4.png,,,,,,,,,,,,
,,,,,,,,,,,,Less than half,All,Many,Half,More than half,Most,None,Some,Few,0.025429687,-0.304077148,1,0,0,QQQ6,,,,,,,,English,2020-07-02_11h00.12.834,Experiment_English,3.2.4,MacIntel,60,,,1,0,340,202,1,339,ratio31_3_4_8.png,,,,,,,,,,,,
,,,,,,,,,,,,Half,All,Some,Less than half,Most,Few,Many,More than half,None,0.057583008,-0.05831543,1,0,0,QQQ5,,,,,,,,English,2020-07-02_11h00.12.834,Experiment_English,3.2.4,MacIntel,60,,,1,0,340,329,1,339,ratio91_9_10_20.png,,,,,,,,,,,,
,,,,,,,,,,,,None,Few,Less than half,More than half,Many,Some,All,Half,Most,0.575307617,0.318916016,1,0,0,QQQ1,,,,,,,,English,2020-07-02_11h00.12.834,Experiment_English,3.2.4,MacIntel,60,,,1,0,340,79,1,339,ratio0Y_0_20_4.png,,,,,,,,,,,,
,,,,,,,,,,,,Few,All,More than half,Most,Many,None,Some,Less than half,Half,0.416650391,-0.010805664,1,0,0,QQQ2,,,,,,,,English,2020-07-02_11h00.12.834,Experiment_English,3.2.4,MacIntel,60,,,1,0,340,45,1,339,ratioX0_8_8_3.png,,,,,,,,,,,,
,,,,,,,,,,,,Many,Few,All,Some,Less than half,Most,None,More than half,Half,-0.417543945,0.068828125,1,0,0,QQQ8,,,,,,,,English,2020-07-02_11h00.12.834,Experiment_English,3.2.4,MacIntel,60,,,1,0,340,30,1,339,ratio11_6_12_6.png,,,,,,,,,,,,
,,,,,,,,,,,,All,Some,Few,Half,None,Less than half,More than half,Most,Many,0.034707031,-0.269951172,1,0,0,QQQ6,,,,,,,,English,2020-07-02_11h00.12.834,Experiment_English,3.2.4,MacIntel,60,,,1,0,340,119,1,339,ratio14_4_20_10.png,,,,,,,,,,,,
,,,,,,,,,,,,None,Half,More than half,Less than half,Many,Most,Few,Some,All,0.458583984,0.013325195,1,0,0,QQQ2,,,,,,,,English,2020-07-02_11h00.12.834,Experiment_English,3.2.4,MacIntel,60,,,1,0,340,20,1,339,ratio11_2_4_3.png,,,,,,,,,,,,
,,,,,,,,,,,,Many,Less than half,Few,Half,None,Some,Most,All,More than half,0.453955078,0.011479492,1,0,0,QQQ2,,,,,,,,English,2020-07-02_11h00.12.834,Experiment_English,3.2.4,MacIntel,60,,,1,0,340,15,1,339,ratio12_5_15_5.png,,,,,,,,,,,,
,,,,,,,,,,,,Few,Half,More than half,Less than half,None,Most,Many,Some,All,0.44546875,0.303774414,1,0,0,QQQ1,,,,,,,,English,2020-07-02_11h00.12.834,Experiment_English,3.2.4,MacIntel,60,,,1,0,340,130,1,339,ratio15_2_12_12.png,,,,,,,,,,,,
,,,,,,,,,,,,Most,More than half,Few,None,Half,Many,Less than half,Some,All,0.453149414,-0.025141602,1,0,0,QQQ2,,,,,,,,English,2020-07-02_11h00.12.834,Experiment_English,3.2.4,MacIntel,60,,,1,0,340,278,1,339,ratio41_16_20_9.png,,,,,,,,,,,,
,,,,,,,,,,,,Some,Most,None,Less than half,All,Few,Half,Many,More than half,-0.634384766,-0.330087891,1,0,0,QQQ9,,,,,,,,English,2020-07-02_11h00.12.834,Experiment_English,3.2.4,MacIntel,60,,,1,0,340,233,1,339,ratio32_9_15_9.png,,,,,,,,,,,,
,,,,,,,,,,,,Few,Some,Most,Many,None,Less than half,More than half,Half,All,-0.027373047,-0.321132812,1,0,0,QQQ6,,,,,,,,English,2020-07-02_11h00.12.834,Experiment_English,3.2.4,MacIntel,60,,,1,0,340,18,1,339,ratio12_6_18_7.png,,,,,,,,,,,,
,,,,,,,,,,,,Some,None,Less than half,All,Few,More than half,Half,Most,Many,0.463486328,-0.019775391,1,0,0,QQQ2,,,,,,,,English,2020-07-02_11h00.12.834,Experiment_English,3.2.4,MacIntel,60,,,1,0,340,71,1,339,ratio0Y_0_12_10.png,,,,,,,,,,,,
,,,,,,,,,,,,Some,All,Many,None,Most,Few,Half,Less than half,More than half,-0.073720703,-0.326645508,1,0,0,QQQ6,,,,,,,,English,2020-07-02_11h00.12.834,Experiment_English,3.2.4,MacIntel,60,,,1,0,340,107,1,339,ratio14_2_10_5.png,,,,,,,,,,,,
,,,,,,,,,,,,Some,Few,All,Most,Half,Less than half,More than half,None,Many,-0.415703125,0.263666992,1,0,0,QQQ7,,,,,,,,English,2020-07-02_11h00.12.834,Experiment_English,3.2.4,MacIntel,60,,,1,0,340,319,1,339,ratio51_15_18_20.png,,,,,,,,,,,,
,,,,,,,,,,,,Many,Few,More than half,Less than half,None,Some,Half,All,Most,0.379707031,-0.248320313,1,0,0,QQQ3,,,,,,,,English,2020-07-02_11h00.12.834,Experiment_English,3.2.4,MacIntel,60,,,1,0,340,308,1,339,ratio51_10_12_9.png,,,,,,,,,,,,
,,,,,,,,,,,,Some,None,Many,Most,Less than half,Half,All,Few,More than half,-0.492397461,0.290341797,1,0,0,QQQ7,,,,,,,,English,2020-07-02_11h00.12.834,Experiment_English,3.2.4,MacIntel,60,,,1,0,340,54,1,339,ratioX0_15_15_5.png,,,,,,,,,,,,
,,,,,,,,,,,,Half,Most,All,None,Less than half,Many,Some,More than half,Few,0.011796875,0.006879883,1,0,0,QQQ5,,,,,,,,English,2020-07-02_11h00.12.834,Experiment_English,3.2.4,MacIntel,60,,,1,0,340,193,1,339,ratio23_6_15_9.png,,,,,,,,,,,,
,,,,,,,,,,,,Some,None,Few,All,More than half,Less than half,Many,Half,Most,-0.46402832,-0.292788086,1,0,0,QQQ9,,,,,,,,English,2020-07-02_11h00.12.834,Experiment_English,3.2.4,MacIntel,60,,,1,0,340,321,1,339,ratio91_9_10_2.png,,,,,,,,,,,,
,,,,,,,,,,,,Few,Half,All,More than half,Most,Some,Many,Less than half,None,0.428481445,0.295947266,1,0,0,QQQ1,,,,,,,,English,2020-07-02_11h00.12.834,Experiment_English,3.2.4,MacIntel,60,,,1,0,340,125,1,339,ratio15_1_6_19.png,,,,,,,,,,,,
,,,,,,,,,,,,Most,Few,Many,None,Less than half,All,Some,Half,More than half,-0.401396484,-0.280771484,1,0,0,QQQ9,,,,,,,,English,2020-07-02_11h00.12.834,Experiment_English,3.2.4,MacIntel,60,,,1,0,340,205,1,339,ratio31_6_8_2.png,,,,,,,,,,,,
,,,,,,,,,,,,Some,Few,Most,Many,None,Half,All,More than half,Less than half,-0.050698242,-0.392294922,1,0,0,QQQ6,,,,,,,,English,2020-07-02_11h00.12.834,Experiment_English,3.2.4,MacIntel,60,,,1,0,340,254,1,339,ratio34_6_14_9.png,,,,,,,,,,,,
,,,,,,,,,,,,Most,More than half,All,Many,Half,None,Some,Few,Less than half,0.515185547,0.329047852,1,0,0,QQQ1,,,,,,,,English,2020-07-02_11h00.12.834,Experiment_English,3.2.4,MacIntel,60,,,1,0,340,337,1,339,ratio91_18_20_16.png,,,,,,,,,,,,
,,,,,,,,,,,,Many,Some,More than half,Few,Most,Less than half,Half,All,None,0.389501953,-0.364199219,1,0,0,QQQ3,,,,,,,,English,2020-07-02_11h00.12.834,Experiment_English,3.2.4,MacIntel,60,,,1,0,340,283,1,339,ratio43_4_7_8.png,,,,,,,,,,,,
,,,,,,,,,,,,None,Few,More than half,All,Most,Many,Some,Half,Less than half,-0.472866211,-0.296171875,1,0,0,QQQ9,,,,,,,,English,2020-07-02_11h00.12.834,Experiment_English,3.2.4,MacIntel,60,,,1,0,340,181,1,339,ratio23_2_5_6.png,,,,,,,,,,,,
,,,,,,,,,,,,None,Half,Few,Some,Many,More than half,Most,Less than half,All,-0.006401367,-0.302851563,1,0,0,QQQ6,,,,,,,,English,2020-07-02_11h00.12.834,Experiment_English,3.2.4,MacIntel,60,,,1,0,340,313,1,339,ratio51_15_18_2.png,,,,,,,,,,,,
,,,,,,,,,,,,Many,Some,None,More than half,Less than half,Half,All,Few,Most,0.046020508,0.237553711,1,0,0,QQQ4,,,,,,,,English,2020-07-02_11h00.12.834,Experiment_English,3.2.4,MacIntel,60,,,1,0,340,311,1,339,ratio51_10_12_14.png,,,,,,,,,,,,
,,,,,,,,,,,,Half,Some,Few,Less than half,All,Many,Most,More than half,None,0.516826172,-0.298911133,1,0,0,QQQ3,,,,,,,,English,2020-07-02_11h00.12.834,Experiment_English,3.2.4,MacIntel,60,,,1,0,340,157,1,339,ratio19_2_20_16.png,,,,,,,,,,,,
,,,,,,,,,,,,More than half,None,All,Many,Less than half,Most,Few,Half,Some,0.479453125,0.340839844,1,0,0,QQQ1,,,,,,,,English,2020-07-02_11h00.12.834,Experiment_English,3.2.4,MacIntel,60,,,1,0,340,314,1,339,ratio51_15_18_4.png,,,,,,,,,,,,
,,,,,,,,,,,,Some,None,Many,Half,Less than half,Few,All,More than half,Most,-0.429404297,-0.009799805,1,0,0,QQQ8,,,,,,,,English,2020-07-02_11h00.12.834,Experiment_English,3.2.4,MacIntel,60,,,1,0,340,211,1,339,ratio31_9_12_10.png,,,,,,,,,,,,
,,,,,,,,,,,,Many,Most,Half,Less than half,More than half,Some,Few,None,All,0.499750977,-0.349204102,1,0,0,QQQ3,,,,,,,,English,2020-07-02_11h00.12.834,Experiment_English,3.2.4,MacIntel,60,,,1,0,340,255,1,339,ratio34_6_14_10.png,0.428984375,-0.37762207,1,0,0,continue_button_pause,1,0,1,0,1,0
,,,,,,,,,,,,,,,,,,,,,,,,,,,,,,,,,,English,2020-07-02_11h00.12.834,Experiment_English,3.2.4,MacIntel,60,,,1,0,340,255,1,339,ratio34_6_14_10.png,,,,,,,,,,,,
,,,,,,,,,,,,None,Many,Most,Some,Few,Half,More than half,Less than half,All,-0.417792969,0.275224609,1,0,0,QQQ7,,,,,,,,English,2020-07-02_11h00.12.834,Experiment_English,3.2.4,MacIntel,60,,,1,0,340,226,1,339,ratio32_6_10_5.png,,,,,,,,,,,,
,,,,,,,,,,,,Many,More than half,All,Less than half,Half,Few,Some,None,Most,0.023203125,0.260712891,1,0,0,QQQ4,,,,,,,,English,2020-07-02_11h00.12.834,Experiment_English,3.2.4,MacIntel,60,,,1,0,340,242,1,339,ratio34_3_7_6.png,,,,,,,,,,,,
,,,,,,,,,,,,Less than half,More than half,All,Few,Half,Many,Some,Most,None,0.496821289,-0.038955078,1,0,0,QQQ2,,,,,,,,English,2020-07-02_11h00.12.834,Experiment_English,3.2.4,MacIntel,60,,,1,0,340,238,1,339,ratio32_12_20_9.png,,,,,,,,,,,,
,,,,,,,,,,,,Half,Few,More than half,None,All,Most,Some,Many,Less than half,0.013652344,-0.314868164,1,0,0,QQQ6,,,,,,,,English,2020-07-02_11h00.12.834,Experiment_English,3.2.4,MacIntel,60,,,1,0,340,161,1,339,ratio21_2_3_8.png,,,,,,,,,,,,
,,,,,,,,,,,,All,Half,More than half,Most,Many,Few,Some,None,Less than half,-0.451738281,0.26519043,1,0,0,QQQ7,,,,,,,,English,2020-07-02_11h00.12.834,Experiment_English,3.2.4,MacIntel,60,,,1,0,340,110,1,339,ratio14_3_15_2.png,,,,,,,,,,,,
,,,,,,,,,,,,Less than half,More than half,Most,None,Some,Half,Many,All,Few,0.48050293,-0.317397461,1,0,0,QQQ3,,,,,,,,English,2020-07-02_11h00.12.834,Experiment_English,3.2.4,MacIntel,60,,,1,0,340,279,1,339,ratio41_16_20_10.png,,,,,,,,,,,,
,,,,,,,,,,,,Few,Most,All,Some,Half,More than half,Less than half,Many,None,-0.598686523,-0.228725586,1,0,0,QQQ9,,,,,,,,English,2020-07-02_11h00.12.834,Experiment_English,3.2.4,MacIntel,60,,,1,0,340,77,1,339,ratio0Y_0_18_3.png,,,,,,,,,,,,
,,,,,,,,,,,,Some,All,Most,Few,More than half,None,Many,Less than half,Half,0.467895508,-0.311044922,1,0,0,QQQ3,,,,,,,,English,2020-07-02_11h00.12.834,Experiment_English,3.2.4,MacIntel,60,,,1,0,340,332,1,339,ratio91_18_20_4.png,,,,,,,,,,,,
,,,,,,,,,,,,Less than half,Few,All,Half,None,Most,Some,Many,More than half,0.46796875,0.231533203,1,0,0,QQQ1,,,,,,,,English,2020-07-02_11h00.12.834,Experiment_English,3.2.4,MacIntel,60,,,1,0,340,244,1,339,ratio34_3_7_9.png,,,,,,,,,,,,
,,,,,,,,,,,,Many,More than half,All,Few,Less than half,Most,Half,None,Some,-0.018125,0.247558594,1,0,0,QQQ4,,,,,,,,English,2020-07-02_11h00.12.834,Experiment_English,3.2.4,MacIntel,60,,,1,0,340,124,1,339,ratio15_1_6_16.png,,,,,,,,,,,,
,,,,,,,,,,,,Half,Most,Many,All,Few,Some,None,More than half,Less than half,-0.439765625,-0.07112793,1,0,0,QQQ8,,,,,,,,English,2020-07-02_11h00.12.834,Experiment_English,3.2.4,MacIntel,60,,,1,0,340,201,1,339,ratio31_3_4_7.png,,,,,,,,,,,,
,,,,,,,,,,,,Some,Few,All,More than half,Many,Most,None,Less than half,Half,0.425131836,-0.058466797,1,0,0,QQQ2,,,,,,,,English,2020-07-02_11h00.12.834,Experiment_English,3.2.4,MacIntel,60,,,1,0,340,122,1,339,ratio15_1_6_7.png,,,,,,,,,,,,
,,,,,,,,,,,,More than half,All,Few,None,Many,Some,Half,Most,Less than half,-0.409277344,-0.057895508,1,0,0,QQQ8,,,,,,,,English,2020-07-02_11h00.12.834,Experiment_English,3.2.4,MacIntel,60,,,1,0,340,277,1,339,ratio41_16_20_8.png,,,,,,,,,,,,
,,,,,,,,,,,,None,Some,More than half,Most,Few,All,Half,Many,Less than half,-0.431835937,-0.324462891,1,0,0,QQQ9,,,,,,,,English,2020-07-02_11h00.12.834,Experiment_English,3.2.4,MacIntel,60,,,1,0,340,94,1,339,ratio13_4_16_8.png,,,,,,,,,,,,
,,,,,,,,,,,,None,Less than half,Few,Most,All,Half,More than half,Some,Many,-0.4271875,0.224716797,1,0,0,QQQ7,,,,,,,,English,2020-07-02_11h00.12.834,Experiment_English,3.2.4,MacIntel,60,,,1,0,340,270,1,339,ratio41_12_15_3.png,,,,,,,,,,,,
,,,,,,,,,,,,Few,None,Many,Most,Less than half,Half,All,More than half,Some,0.541181641,-0.049179687,1,0,0,QQQ2,,,,,,,,English,2020-07-02_11h00.12.834,Experiment_English,3.2.4,MacIntel,60,,,1,0,340,67,1,339,ratio0Y_0_10_10.png,,,,,,,,,,,,
,,,,,,,,,,,,Many,Half,Few,All,More than half,Some,Most,None,Less than half,0.380664063,-0.052641602,1,0,0,QQQ2,,,,,,,,English,2020-07-02_11h00.12.834,Experiment_English,3.2.4,MacIntel,60,,,1,0,340,235,1,339,ratio32_12_20_1.png,,,,,,,,,,,,
,,,,,,,,,,,,Most,More than half,Some,Half,Few,None,Less than half,All,Many,-0.034863281,-0.077895508,1,0,0,QQQ5,,,,,,,,English,2020-07-02_11h00.12.834,Experiment_English,3.2.4,MacIntel,60,,,1,0,340,147,1,339,ratio19_1_10_18.png,,,,,,,,,,,,
,,,,,,,,,,,,More than half,Some,Most,All,Few,Less than half,None,Half,Many,0.540620117,0.329707031,1,0,0,QQQ1,,,,,,,,English,2020-07-02_11h00.12.834,Experiment_English,3.2.4,MacIntel,60,,,1,0,340,218,1,339,ratio31_15_20_7.png,,,,,,,,,,,,
,,,,,,,,,,,,All,Some,Many,Half,Most,Less than half,Few,More than half,None,0.059916992,-0.015791016,1,0,0,QQQ5,,,,,,,,English,2020-07-02_11h00.12.834,Experiment_English,3.2.4,MacIntel,60,,,1,0,340,301,1,339,ratio51_5_6_4.png,,,,,,,,,,,,
,,,,,,,,,,,,Many,Most,Half,All,Less than half,Some,More than half,Few,None,-0.341967773,-0.047680664,1,0,0,QQQ8,,,,,,,,English,2020-07-02_11h00.12.834,Experiment_English,3.2.4,MacIntel,60,,,1,0,340,80,1,339,ratio13_1_4_3.png,,,,,,,,,,,,
,,,,,,,,,,,,Half,All,More than half,Less than half,Many,None,Some,Most,Few,-0.002412109,0.26878418,1,0,0,QQQ4,,,,,,,,English,2020-07-02_11h00.12.834,Experiment_English,3.2.4,MacIntel,60,,,1,0,340,117,1,339,ratio14_4_20_6.png,,,,,,,,,,,,
,,,,,,,,,,,,None,Many,Some,Few,Half,More than half,Less than half,Most,All,0.028188477,-0.325546875,1,0,0,QQQ6,,,,,,,,English,2020-07-02_11h00.12.834,Experiment_English,3.2.4,MacIntel,60,,,1,0,340,162,1,339,ratio21_2_3_9.png,,,,,,,,,,,,
,,,,,,,,,,,,None,Few,Many,All,Most,More than half,Half,Some,Less than half,-0.365097656,-0.294448242,1,0,0,QQQ9,,,,,,,,English,2020-07-02_11h00.12.834,Experiment_English,3.2.4,MacIntel,60,,,1,0,340,196,1,339,ratio23_8_20_5.png,,,,,,,,,,,,
,,,,,,,,,,,,Many,More than half,Few,Less than half,Most,All,Half,Some,None,0.051699219,0.216777344,1,0,0,QQQ4,,,,,,,,English,2020-07-02_11h00.12.834,Experiment_English,3.2.4,MacIntel,60,,,1,0,340,137,1,339,ratio15_3_18_16.png,,,,,,,,,,,,
,,,,,,,,,,,,All,Half,None,Many,Some,More than half,Few,Less than half,Most,-0.085234375,-0.334091797,1,0,0,QQQ6,,,,,,,,English,2020-07-02_11h00.12.834,Experiment_English,3.2.4,MacIntel,60,,,1,0,340,175,1,339,ratio21_10_15_2.png,,,,,,,,,,,,
,,,,,,,,,,,,None,Some,Most,Many,Half,All,More than half,Less than half,Few,0.503857422,-0.256401367,1,0,0,QQQ3,,,,,,,,English,2020-07-02_11h00.12.834,Experiment_English,3.2.4,MacIntel,60,,,1,0,340,339,1,339,ratio91_18_20_19.png,,,,,,,,,,,,
,,,,,,,,,,,,None,Most,Few,Many,Some,More than half,Less than half,All,Half,0.023056641,-0.070009766,1,0,0,QQQ5,,,,,,,,English,2020-07-02_11h00.12.834,Experiment_English,3.2.4,MacIntel,60,,,1,0,340,91,1,339,ratio13_3_12_10.png,,,,,,,,,,,,
,,,,,,,,,,,,Many,All,Half,More than half,Most,Some,None,Few,Less than half,0.461704102,-0.277788086,1,0,0,QQQ3,,,,,,,,English,2020-07-02_11h00.12.834,Experiment_English,3.2.4,MacIntel,60,,,1,0,340,29,1,339,ratio11_6_12_1.png,,,,,,,,,,,,
,,,,,,,,,,,,None,Some,Most,All,Less than half,More than half,Half,Many,Few,0.090551758,-0.008032227,1,0,0,QQQ5,,,,,,,,English,2020-07-02_11h00.12.834,Experiment_English,3.2.4,MacIntel,60,,,1,0,340,87,1,339,ratio13_2_8_8.png,,,,,,,,,,,,
,,,,,,,,,,,,Many,Less than half,Half,More than half,Most,All,None,Few,Some,0.552680664,0.015073242,1,0,0,QQQ2,,,,,,,,English,2020-07-02_11h00.12.834,Experiment_English,3.2.4,MacIntel,60,,,1,0,340,191,1,339,ratio23_6_15_7.png,,,,,,,,,,,,
,,,,,,,,,,,,Few,More than half,All,Some,Many,None,Half,Less than half,Most,0.575693359,-0.08875,1,0,0,QQQ2,,,,,,,,English,2020-07-02_11h00.12.834,Experiment_English,3.2.4,MacIntel,60,,,1,0,340,160,1,339,ratio21_2_3_2.png,,,,,,,,,,,,
,,,,,,,,,,,,All,Less than half,Many,More than half,Half,Few,Some,None,Most,-0.497426758,-0.327709961,1,0,0,QQQ9,,,,,,,,English,2020-07-02_11h00.12.834,Experiment_English,3.2.4,MacIntel,60,,,1,0,340,305,1,339,ratio51_5_6_14.png,,,,,,,,,,,,
,,,,,,,,,,,,None,All,More than half,Many,Some,Half,Less than half,Most,Few,-0.459008789,0.032802734,1,0,0,QQQ8,,,,,,,,English,2020-07-02_11h00.12.834,Experiment_English,3.2.4,MacIntel,60,,,1,0,340,316,1,339,ratio51_15_18_11.png,0.320932617,-0.368588867,1,0,0,continue_button_pause,1,0,1,0,1,0
,,,,,,,,,,,,,,,,,,,,,,,,,,,,,,,,,,English,2020-07-02_11h00.12.834,Experiment_English,3.2.4,MacIntel,60,,,1,0,340,316,1,339,ratio51_15_18_11.png,,,,,,,,,,,,
,,,,,,,,,,,,More than half,Less than half,Few,Most,Many,All,Some,Half,None,0.486645508,0.012514648,1,0,0,QQQ2,,,,,,,,English,2020-07-02_11h00.12.834,Experiment_English,3.2.4,MacIntel,60,,,1,0,340,82,1,339,ratio13_1_4_7.png,,,,,,,,,,,,
,,,,,,,,,,,,Less than half,Most,Many,More than half,Some,Half,Few,None,All,-0.071225586,0.303925781,1,0,0,QQQ4,,,,,,,,English,2020-07-02_11h00.12.834,Experiment_English,3.2.4,MacIntel,60,,,1,0,340,297,1,339,ratio43_8_14_13.png,,,,,,,,,,,,
,,,,,,,,,,,,All,Less than half,Most,Some,More than half,Few,Half,Many,None,0.039038086,-0.294101563,1,0,0,QQQ6,,,,,,,,English,2020-07-02_11h00.12.834,Experiment_English,3.2.4,MacIntel,60,,,1,0,340,123,1,339,ratio15_1_6_12.png,,,,,,,,,,,,
,,,,,,,,,,,,Few,None,Less than half,More than half,Most,Many,Half,All,Some,0.054882813,0.05625,1,0,0,QQQ5,,,,,,,,English,2020-07-02_11h00.12.834,Experiment_English,3.2.4,MacIntel,60,,,1,0,340,328,1,339,ratio91_9_10_15.png,,,,,,,,,,,,
,,,,,,,,,,,,Few,Some,Half,More than half,Most,All,Many,None,Less than half,-0.429916992,-0.274375,1,0,0,QQQ9,,,,,,,,English,2020-07-02_11h00.12.834,Experiment_English,3.2.4,MacIntel,60,,,1,0,340,247,1,339,ratio34_3_7_12.png,,,,,,,,,,,,
,,,,,,,,,,,,Half,Many,Few,All,Less than half,None,Most,More than half,Some,0.471142578,-0.330195313,1,0,0,QQQ3,,,,,,,,English,2020-07-02_11h00.12.834,Experiment_English,3.2.4,MacIntel,60,,,1,0,340,158,1,339,ratio19_2_20_17.png,,,,,,,,,,,,
,,,,,,,,,,,,Less than half,All,Many,Half,More than half,Most,Some,None,Few,-0.051772461,0.241245117,1,0,0,QQQ4,,,,,,,,English,2020-07-02_11h00.12.834,Experiment_English,3.2.4,MacIntel,60,,,1,0,340,37,1,339,ratio11_9_18_8.png,,,,,,,,,,,,
,,,,,,,,,,,,Less than half,Many,Few,None,More than half,Some,Half,Most,All,0.382661133,0.32730957,1,0,0,QQQ1,,,,,,,,English,2020-07-02_11h00.12.834,Experiment_English,3.2.4,MacIntel,60,,,1,0,340,182,1,339,ratio23_2_5_7.png,,,,,,,,,,,,
,,,,,,,,,,,,All,Less than half,Half,Few,More than half,None,Some,Most,Many,-0.012802734,-0.066625977,1,0,0,QQQ5,,,,,,,,English,2020-07-02_11h00.12.834,Experiment_English,3.2.4,MacIntel,60,,,1,0,340,32,1,339,ratio11_7_14_5.png,,,,,,,,,,,,
,,,,,,,,,,,,Few,Half,All,Less than half,Most,More than half,Some,Many,None,-0.08262207,0.290571289,1,0,0,QQQ4,,,,,,,,English,2020-07-02_11h00.12.834,Experiment_English,3.2.4,MacIntel,60,,,1,0,340,115,1,339,ratio14_4_20_1.png,,,,,,,,,,,,
,,,,,,,,,,,,Many,Half,None,Some,Most,All,Less than half,Few,More than half,-0.08262207,0.289995117,1,0,0,QQQ4,,,,,,,,English,2020-07-02_11h00.12.834,Experiment_English,3.2.4,MacIntel,60,,,1,0,340,138,1,339,ratio15_3_18_17.png,,,,,,,,,,,,
,,,,,,,,,,,,Few,More than half,All,None,Less than half,Half,Some,Many,Most,0.454667969,0.259750977,1,0,0,QQQ1,,,,,,,,English,2020-07-02_11h00.12.834,Experiment_English,3.2.4,MacIntel,60,,,1,0,340,83,1,339,ratio13_1_4_10.png,,,,,,,,,,,,
,,,,,,,,,,,,Few,Less than half,More than half,Half,Most,Many,Some,All,None,0.001982422,-0.041279297,1,0,0,QQQ5,,,,,,,,English,2020-07-02_11h00.12.834,Experiment_English,3.2.4,MacIntel,60,,,1,0,340,304,1,339,ratio51_5_6_13.png,,,,,,,,,,,,
,,,,,,,,,,,,Few,None,All,Less than half,Most,Many,More than half,Some,Half,-0.002021484,0.297661133,1,0,0,QQQ4,,,,,,,,English,2020-07-02_11h00.12.834,Experiment_English,3.2.4,MacIntel,60,,,1,0,340,259,1,339,ratio34_6_14_19.png,,,,,,,,,,,,
,,,,,,,,,,,,Many,None,Few,All,Some,More than half,Most,Less than half,Half,-0.469770508,-0.039165039,1,0,0,QQQ8,,,,,,,,English,2020-07-02_11h00.12.834,Experiment_English,3.2.4,MacIntel,60,,,1,0,340,86,1,339,ratio13_2_8_6.png,,,,,,,,,,,,
,,,,,,,,,,,,More than half,Most,Half,Many,All,None,Few,Some,Less than half,-0.469770508,-0.039165039,1,0,0,QQQ8,,,,,,,,English,2020-07-02_11h00.12.834,Experiment_English,3.2.4,MacIntel,60,,,1,0,340,194,1,339,ratio23_6_15_10.png,,,,,,,,,,,,
,,,,,,,,,,,,All,None,Less than half,Few,More than half,Half,Some,Most,Many,-0.408208008,-0.026098633,1,0,0,QQQ8,,,,,,,,English,2020-07-02_11h00.12.834,Experiment_English,3.2.4,MacIntel,60,,,1,0,340,322,1,339,ratio91_9_10_3.png,,,,,,,,,,,,
,,,,,,,,,,,,Less than half,None,Half,Many,All,Some,Most,More than half,Few,-0.408208008,-0.026098633,1,0,0,QQQ8,,,,,,,,English,2020-07-02_11h00.12.834,Experiment_English,3.2.4,MacIntel,60,,,1,0,340,74,1,339,ratio0Y_0_15_10.png,,,,,,,,,,,,
,,,,,,,,,,,,Many,Half,Some,More than half,Few,Less than half,Most,None,All,0.090454102,-0.314023438,1,0,0,QQQ6,,,,,,,,English,2020-07-02_11h00.12.834,Experiment_English,3.2.4,MacIntel,60,,,1,0,340,98,1,339,ratio13_5_20_3.png,,,,,,,,,,,,
,,,,,,,,,,,,Few,Half,None,All,More than half,Most,Less than half,Some,Many,-0.490224609,0.297075195,1,0,0,QQQ7,,,,,,,,English,2020-07-02_11h00.12.834,Experiment_English,3.2.4,MacIntel,60,,,1,0,340,185,1,339,ratio23_4_10_1.png,,,,,,,,,,,,
,,,,,,,,,,,,Half,All,Few,None,Some,Many,Less than half,Most,More than half,0.500024414,-0.231157227,1,0,0,QQQ3,,,,,,,,English,2020-07-02_11h00.12.834,Experiment_English,3.2.4,MacIntel,60,,,1,0,340,84,1,339,ratio13_2_8_1.png,,,,,,,,,,,,
,,,,,,,,,,,,All,Few,Less than half,More than half,Some,Half,None,Many,Most,-0.057324219,-0.009243164,1,0,0,QQQ5,,,,,,,,English,2020-07-02_11h00.12.834,Experiment_English,3.2.4,MacIntel,60,,,1,0,340,118,1,339,ratio14_4_20_8.png,,,,,,,,,,,,
,,,,,,,,,,,,Few,Less than half,Most,More than half,Many,None,Some,All,Half,0.524140625,0.019838867,1,0,0,QQQ2,,,,,,,,English,2020-07-02_11h00.12.834,Experiment_English,3.2.4,MacIntel,60,,,1,0,340,4,1,339,ratio12_2_6_5.png,,,,,,,,,,,,
,,,,,,,,,,,,Half,All,Some,Few,Many,Less than half,More than half,Most,None,-0.497666016,0.310634766,1,0,0,QQQ7,,,,,,,,English,2020-07-02_11h00.12.834,Experiment_English,3.2.4,MacIntel,60,,,1,0,340,27,1,339,ratio11_5_10_7.png,,,,,,,,,,,,
,,,,,,,,,,,,Some,All,Most,More than half,Half,Few,None,Less than half,Many,-0.388984375,-0.055957031,1,0,0,QQQ8,,,,,,,,English,2020-07-02_11h00.12.834,Experiment_English,3.2.4,MacIntel,60,,,1,0,340,6,1,339,ratio12_3_9_1.png,,,,,,,,,,,,
,,,,,,,,,,,,More than half,Many,None,Most,Few,Half,Less than half,Some,All,-0.06234375,0.018193359,1,0,0,QQQ5,,,,,,,,English,2020-07-02_11h00.12.834,Experiment_English,3.2.4,MacIntel,60,,,1,0,340,134,1,339,ratio15_3_18_5.png,,,,,,,,,,,,
,,,,,,,,,,,,Few,Half,Some,Most,Less than half,Many,None,All,More than half,-0.456166992,-0.235976562,1,0,0,QQQ9,,,,,,,,English,2020-07-02_11h00.12.834,Experiment_English,3.2.4,MacIntel,60,,,1,0,340,282,1,339,ratio43_4_7_7.png,,,,,,,,,,,,
,,,,,,,,,,,,Half,Less than half,Many,More than half,Some,All,Few,None,Most,0.032260742,-0.067988281,1,0,0,QQQ5,,,,,,,,English,2020-07-02_11h00.12.834,Experiment_English,3.2.4,MacIntel,60,,,1,0,340,180,1,339,ratio23_2_5_4.png,,,,,,,,,,,,
,,,,,,,,,,,,Less than half,Most,Some,Few,Half,More than half,None,All,Many,0.012675781,0.285996094,1,0,0,QQQ4,,,,,,,,English,2020-07-02_11h00.12.834,Experiment_English,3.2.4,MacIntel,60,,,1,0,340,121,1,339,ratio15_1_6_4.png,,,,,,,,,,,,
,,,,,,,,,,,,Few,Most,None,Many,Some,Less than half,All,Half,More than half,-0.433017578,0.28246582,1,0,0,QQQ7,,,,,,,,English,2020-07-02_11h00.12.834,Experiment_English,3.2.4,MacIntel,60,,,1,0,340,48,1,339,ratioX0_10_10_1.png,,,,,,,,,,,,
,,,,,,,,,,,,Less than half,None,Most,Many,All,More than half,Half,Few,Some,-0.46668457,0.266635742,1,0,0,QQQ7,,,,,,,,English,2020-07-02_11h00.12.834,Experiment_English,3.2.4,MacIntel,60,,,1,0,340,243,1,339,ratio34_3_7_8.png,,,,,,,,,,,,
,,,,,,,,,,,,Half,All,Some,Many,More than half,None,Most,Few,Less than half,-0.438344727,-0.290151367,1,0,0,QQQ9,,,,,,,,English,2020-07-02_11h00.12.834,Experiment_English,3.2.4,MacIntel,60,,,1,0,340,275,1,339,ratio41_16_20_2.png,,,,,,,,,,,,
,,,,,,,,,,,,Few,Many,All,Half,Some,None,Less than half,More than half,Most,-0.388496094,-6.83594E-05,1,0,0,QQQ8,,,,,,,,English,2020-07-02_11h00.12.834,Experiment_English,3.2.4,MacIntel,60,,,1,0,340,210,1,339,ratio31_9_12_9.png,,,,,,,,,,,,
,,,,,,,,,,,,Less than half,Most,Few,Half,None,Many,Some,More than half,All,0.422895508,0.311416016,1,0,0,QQQ1,,,,,,,,English,2020-07-02_11h00.12.834,Experiment_English,3.2.4,MacIntel,60,,,1,0,340,8,1,339,ratio12_3_9_4.png,0.364379883,-0.412607422,1,0,0,continue_button_pause,1,0,1,0,1,0
,,,,,,,,,,,,,,,,,,,,,,,,,,,,,,,,,,English,2020-07-02_11h00.12.834,Experiment_English,3.2.4,MacIntel,60,,,1,0,340,8,1,339,ratio12_3_9_4.png,,,,,,,,,,,,
,,,,,,,,,,,,Most,None,Half,Many,Some,All,More than half,Few,Less than half,0.475561523,0.267641602,1,0,0,QQQ1,,,,,,,,English,2020-07-02_11h00.12.834,Experiment_English,3.2.4,MacIntel,60,,,1,0,340,261,1,339,ratio41_4_5_3.png,,,,,,,,,,,,
,,,,,,,,,,,,Most,Less than half,Some,Many,None,More than half,All,Few,Half,-0.415063477,-0.000185547,1,0,0,QQQ8,,,,,,,,English,2020-07-02_11h00.12.834,Experiment_English,3.2.4,MacIntel,60,,,1,0,340,132,1,339,ratio15_2_12_16.png,,,,,,,,,,,,
,,,,,,,,,,,,Few,Many,Most,Some,Half,Less than half,More than half,None,All,-0.132729492,0.31980957,1,0,0,QQQ4,,,,,,,,English,2020-07-02_11h00.12.834,Experiment_English,3.2.4,MacIntel,60,,,1,0,340,336,1,339,ratio91_18_20_12.png,,,,,,,,,,,,
,,,,,,,,,,,,Some,Most,Less than half,Half,None,Many,Few,All,More than half,0.438110352,-0.271293945,1,0,0,QQQ3,,,,,,,,English,2020-07-02_11h00.12.834,Experiment_English,3.2.4,MacIntel,60,,,1,0,340,188,1,339,ratio23_4_10_6.png,,,,,,,,,,,,
,,,,,,,,,,,,More than half,None,Some,All,Half,Most,Few,Many,Less than half,-0.440644531,-0.281225586,1,0,0,QQQ9,,,,,,,,English,2020-07-02_11h00.12.834,Experiment_English,3.2.4,MacIntel,60,,,1,0,340,192,1,339,ratio23_6_15_8.png,,,,,,,,,,,,
,,,,,,,,,,,,Half,Some,Less than half,None,Few,Most,All,More than half,Many,0.055239258,0.286762695,1,0,0,QQQ4,,,,,,,,English,2020-07-02_11h00.12.834,Experiment_English,3.2.4,MacIntel,60,,,1,0,340,60,1,339,ratio0Y_0_3_5.png,,,,,,,,,,,,
,,,,,,,,,,,,Half,Many,Most,All,More than half,Some,Less than half,None,Few,0.411455078,-0.316762695,1,0,0,QQQ3,,,,,,,,English,2020-07-02_11h00.12.834,Experiment_English,3.2.4,MacIntel,60,,,1,0,340,103,1,339,ratio14_1_5_9.png,,,,,,,,,,,,
,,,,,,,,,,,,Some,Half,None,More than half,All,Many,Less than half,Most,Few,0.001411133,-0.02059082,1,0,0,QQQ5,,,,,,,,English,2020-07-02_11h00.12.834,Experiment_English,3.2.4,MacIntel,60,,,1,0,340,52,1,339,ratioX0_13_13_10.png,,,,,,,,,,,,
,,,,,,,,,,,,Less than half,Half,Few,Some,None,More than half,Most,All,Many,0.001411133,-0.02059082,1,0,0,QQQ5,,,,,,,,English,2020-07-02_11h00.12.834,Experiment_English,3.2.4,MacIntel,60,,,1,0,340,62,1,339,ratio0Y_0_5_4.png,,,,,,,,,,,,
,,,,,,,,,,,,More than half,None,All,Half,Many,Less than half,Few,Most,Some,0.088105469,-0.278989258,1,0,0,QQQ6,,,,,,,,English,2020-07-02_11h00.12.834,Experiment_English,3.2.4,MacIntel,60,,,1,0,340,249,1,339,ratio34_3_7_20.png,,,,,,,,,,,,
,,,,,,,,,,,,All,More than half,Few,None,Some,Half,Most,Many,Less than half,-0.546738281,-0.363999023,1,0,0,QQQ9,,,,,,,,English,2020-07-02_11h00.12.834,Experiment_English,3.2.4,MacIntel,60,,,1,0,340,256,1,339,ratio34_6_14_11.png,,,,,,,,,,,,
,,,,,,,,,,,,None,Less than half,Many,Half,Most,Few,Some,All,More than half,0.48140625,0.033916016,1,0,0,QQQ2,,,,,,,,English,2020-07-02_11h00.12.834,Experiment_English,3.2.4,MacIntel,60,,,1,0,340,199,1,339,ratio23_8_20_8.png,,,,,,,,,,,,
,,,,,,,,,,,,Most,None,All,Half,Less than half,Few,Some,More than half,Many,0.096870117,-0.284301758,1,0,0,QQQ6,,,,,,,,English,2020-07-02_11h00.12.834,Experiment_English,3.2.4,MacIntel,60,,,1,0,340,114,1,339,ratio14_3_15_10.png,,,,,,,,,,,,
,,,,,,,,,,,,Half,Some,Less than half,Many,Most,More than half,All,None,Few,0.467788086,-0.085419922,1,0,0,QQQ2,,,,,,,,English,2020-07-02_11h00.12.834,Experiment_English,3.2.4,MacIntel,60,,,1,0,340,136,1,339,ratio15_3_18_8.png,,,,,,,,,,,,
,,,,,,,,,,,,Some,Less than half,Many,Half,More than half,All,Few,Most,None,-0.454257813,-0.035776367,1,0,0,QQQ8,,,,,,,,English,2020-07-02_11h00.12.834,Experiment_English,3.2.4,MacIntel,60,,,1,0,340,271,1,339,ratio41_12_15_6.png,,,,,,,,,,,,
,,,,,,,,,,,,All,Many,Less than half,Few,Half,None,Some,Most,More than half,-0.45152832,-0.035776367,1,0,0,QQQ8,,,,,,,,English,2020-07-02_11h00.12.834,Experiment_English,3.2.4,MacIntel,60,,,1,0,340,335,1,339,ratio91_18_20_11.png,,,,,,,,,,,,
,,,,,,,,,,,,Few,None,Many,Most,More than half,Some,Less than half,All,Half,0.041098633,-0.044863281,1,0,0,QQQ5,,,,,,,,English,2020-07-02_11h00.12.834,Experiment_English,3.2.4,MacIntel,60,,,1,0,340,285,1,339,ratio43_4_7_14.png,,,,,,,,,,,,
,,,,,,,,,,,,Few,Most,More than half,Many,Less than half,Some,None,All,Half,0.384707031,-0.305234375,1,0,0,QQQ3,,,,,,,,English,2020-07-02_11h00.12.834,Experiment_English,3.2.4,MacIntel,60,,,1,0,340,179,1,339,ratio21_12_18_8.png,,,,,,,,,,,,
,,,,,,,,,,,,Many,All,Most,Few,Half,More than half,None,Some,Less than half,0.034868164,0.225366211,1,0,0,QQQ4,,,,,,,,English,2020-07-02_11h00.12.834,Experiment_English,3.2.4,MacIntel,60,,,1,0,340,85,1,339,ratio13_2_8_5.png,,,,,,,,,,,,
,,,,,,,,,,,,All,Some,More than half,Few,Half,Less than half,Many,Most,None,0.495336914,0.244819336,1,0,0,QQQ1,,,,,,,,English,2020-07-02_11h00.12.834,Experiment_English,3.2.4,MacIntel,60,,,1,0,340,55,1,339,ratioX0_16_16_3.png,,,,,,,,,,,,
,,,,,,,,,,,,None,Few,All,Half,Less than half,Most,Some,Many,More than half,0.407460938,0.262851563,1,0,0,QQQ1,,,,,,,,English,2020-07-02_11h00.12.834,Experiment_English,3.2.4,MacIntel,60,,,1,0,340,64,1,339,ratio0Y_0_7_1.png,,,,,,,,,,,,
,,,,,,,,,,,,Less than half,All,Many,More than half,Few,None,Most,Some,Half,0.089291992,0.315263672,1,0,0,QQQ4,,,,,,,,English,2020-07-02_11h00.12.834,Experiment_English,3.2.4,MacIntel,60,,,1,0,340,209,1,339,ratio31_9_12_6.png,,,,,,,,,,,,
,,,,,,,,,,,,All,Half,None,Few,Most,More than half,Many,Less than half,Some,0.036835937,-0.305810547,1,0,0,QQQ6,,,,,,,,English,2020-07-02_11h00.12.834,Experiment_English,3.2.4,MacIntel,60,,,1,0,340,36,1,339,ratio11_9_18_1.png,,,,,,,,,,,,
,,,,,,,,,,,,All,Many,Some,Half,Less than half,More than half,None,Few,Most,0.034243164,-0.299711914,1,0,0,QQQ6,,,,,,,,English,2020-07-02_11h00.12.834,Experiment_English,3.2.4,MacIntel,60,,,1,0,340,295,1,339,ratio43_8_14_11.png,,,,,,,,,,,,
,,,,,,,,,,,,Few,Less than half,Half,All,More than half,Most,None,Many,Some,0.446855469,-0.026660156,1,0,0,QQQ2,,,,,,,,English,2020-07-02_11h00.12.834,Experiment_English,3.2.4,MacIntel,60,,,1,0,340,287,1,339,ratio43_4_7_17.png,,,,,,,,,,,,
,,,,,,,,,,,,Less than half,Many,Most,All,Half,Few,None,More than half,Some,0.496342773,0.28480957,1,0,0,QQQ1,,,,,,,,English,2020-07-02_11h00.12.834,Experiment_English,3.2.4,MacIntel,60,,,1,0,340,253,1,339,ratio34_6_14_5.png,,,,,,,,,,,,
,,,,,,,,,,,,Many,None,Some,More than half,Most,Less than half,Few,All,Half,0.055317383,0.289658203,1,0,0,QQQ4,,,,,,,,English,2020-07-02_11h00.12.834,Experiment_English,3.2.4,MacIntel,60,,,1,0,340,293,1,339,ratio43_8_14_7.png,,,,,,,,,,,,
,,,,,,,,,,,,Many,Most,Some,Half,More than half,Few,None,Less than half,All,0.000253906,-0.001904297,1,0,0,QQQ5,,,,,,,,English,2020-07-02_11h00.12.834,Experiment_English,3.2.4,MacIntel,60,,,1,0,340,230,1,339,ratio32_9_15_1.png,,,,,,,,,,,,
,,,,,,,,,,,,None,Less than half,Most,Half,Many,Few,All,More than half,Some,0.469179687,-0.009536133,1,0,0,QQQ2,,,,,,,,English,2020-07-02_11h00.12.834,Experiment_English,3.2.4,MacIntel,60,,,1,0,340,187,1,339,ratio23_4_10_5.png,,,,,,,,,,,,
,,,,,,,,,,,,Some,Many,More than half,Less than half,None,All,Few,Most,Half,0.03609375,0.264599609,1,0,0,QQQ4,,,,,,,,English,2020-07-02_11h00.12.834,Experiment_English,3.2.4,MacIntel,60,,,1,0,340,327,1,339,ratio91_9_10_11.png,,,,,,,,,,,,
,,,,,,,,,,,,Few,Some,Many,More than half,None,Half,All,Most,Less than half,0.042431641,0.265917969,1,0,0,QQQ4,,,,,,,,English,2020-07-02_11h00.12.834,Experiment_English,3.2.4,MacIntel,60,,,1,0,340,129,1,339,ratio15_2_12_9.png,,,,,,,,,,,,
,,,,,,,,,,,,Less than half,Half,All,Most,None,Some,More than half,Few,Many,-0.479331055,0.242148438,1,0,0,QQQ7,,,,,,,,English,2020-07-02_11h00.12.834,Experiment_English,3.2.4,MacIntel,60,,,1,0,340,231,1,339,ratio32_9_15_2.png,,,,,,,,,,,,
,,,,,,,,,,,,More than half,Most,None,Half,All,Many,Few,Some,Less than half,0.572197266,0.210712891,1,0,0,QQQ1,,,,,,,,English,2020-07-02_11h00.12.834,Experiment_English,3.2.4,MacIntel,60,,,1,0,340,223,1,339,ratio32_3_5_5.png,,,,,,,,,,,,
,,,,,,,,,,,,All,Some,More than half,Half,Most,Less than half,None,Many,Few,-0.42465332,-0.075864258,1,0,0,QQQ8,,,,,,,,English,2020-07-02_11h00.12.834,Experiment_English,3.2.4,MacIntel,60,,,1,0,340,265,1,339,ratio41_8_10_1.png,,,,,,,,,,,,
