continue_mouse.x,continue_mouse.y,continue_mouse.leftButton,continue_mouse.midButton,continue_mouse.rightButton,continue_mouse.clicked_name,continue_mouse_2.x,continue_mouse_2.y,continue_mouse_2.leftButton,continue_mouse_2.midButton,continue_mouse_2.rightButton,continue_mouse_2.clicked_name,Q1,Q2,Q3,Q4,Q5,Q6,Q7,Q8,Q9,select_answer.x,select_answer.y,select_answer.leftButton,select_answer.midButton,select_answer.rightButton,select_answer.clicked_name,trial.thisRepN,trial.thisTrialN,trial.thisN,trial.thisIndex,trial.ran,trial.order,trials,Native tongue*,date,expName,psychopyVersion,OS,frameRate,key_resp.keys,key_resp.rt,Actual_Experiment.thisRepN,Actual_Experiment.thisTrialN,Actual_Experiment.thisN,Actual_Experiment.thisIndex,Actual_Experiment.ran,Actual_Experiment.order,Pic,mouse_pause.x,mouse_pause.y,mouse_pause.leftButton,mouse_pause.midButton,mouse_pause.rightButton,mouse_pause.clicked_name,pause.thisRepN,pause.thisTrialN,pause.thisN,pause.thisIndex,pause.ran,pause.order
0.374401042,-0.440980903,1,0,0,continue_button,0.372955729,-0.431918403,1,0,0,continue_button_2,Some,Half,Less than half,Many,More than half,Most,All,None,Few,0.043151042,-0.296857639,1,0,0,QQQ6,1,0,16,15,1,15,ratio0Y_0_14_10.png,English,2020-06-16_15h38.15.681,Experiment_English,3.2.4,MacIntel,60,,,,,,,,,,,,,,,,,,,,,
,,,,,,,,,,,,Half,More than half,None,Few,Less than half,Many,Some,Most,All,0.014809028,0.013381076,1,0,0,QQQ5,1,0,16,12,1,15,ratio13_3_12_3.png,English,2020-06-16_15h38.15.681,Experiment_English,3.2.4,MacIntel,60,,,,,,,,,,,,,,,,,,,,,
,,,,,,,,,,,,Many,Most,More than half,Half,Some,None,Few,Less than half,All,-0.451979167,0.277578125,1,0,0,QQQ7,1,0,16,10,1,15,ratio15_2_12_4.png,English,2020-06-16_15h38.15.681,Experiment_English,3.2.4,MacIntel,60,,,,,,,,,,,,,,,,,,,,,
,,,,,,,,,,,,Few,Most,Half,More than half,Less than half,None,Some,Many,All,0.494609375,0.013355035,1,0,0,QQQ2,1,0,16,0,1,15,ratio91_9_10_19.png,English,2020-06-16_15h38.15.681,Experiment_English,3.2.4,MacIntel,60,,,,,,,,,,,,,,,,,,,,,
,,,,,,,,,,,,Less than half,Most,Many,Half,All,None,Few,More than half,Some,0.503888889,-0.045243056,1,0,0,QQQ2,1,0,16,3,1,15,ratio41_8_10_8.png,English,2020-06-16_15h38.15.681,Experiment_English,3.2.4,MacIntel,60,,,,,,,,,,,,,,,,,,,,,
,,,,,,,,,,,,More than half,Half,None,Most,Less than half,All,Many,Some,Few,-0.035338542,0.276527778,1,0,0,QQQ4,,,,,,,,English,2020-06-16_15h38.15.681,Experiment_English,3.2.4,MacIntel,60,b,9.463000059,1,0,340,234,1,339,ratio32_9_15_10.png,,,,,,,,,,,,
,,,,,,,,,,,,More than half,None,Less than half,Many,All,Some,Most,Few,Half,-0.434696181,0.32375,1,0,0,QQQ7,,,,,,,,English,2020-06-16_15h38.15.681,Experiment_English,3.2.4,MacIntel,60,,,1,0,340,318,1,339,ratio51_15_18_18.png,,,,,,,,,,,,
,,,,,,,,,,,,Few,Most,Some,None,Less than half,Many,Half,All,More than half,-0.382330729,-0.287039931,1,0,0,QQQ9,,,,,,,,English,2020-06-16_15h38.15.681,Experiment_English,3.2.4,MacIntel,60,,,1,0,340,230,1,339,ratio32_9_15_1.png,,,,,,,,,,,,
,,,,,,,,,,,,Most,Many,Few,All,Half,More than half,Less than half,Some,None,0.526506076,0.286614583,1,0,0,QQQ1,,,,,,,,English,2020-06-16_15h38.15.681,Experiment_English,3.2.4,MacIntel,60,,,1,0,340,308,1,339,ratio51_10_12_9.png,,,,,,,,,,,,
,,,,,,,,,,,,Less than half,Half,None,Few,More than half,Most,All,Some,Many,0.016197917,-0.057539063,1,0,0,QQQ5,,,,,,,,English,2020-06-16_15h38.15.681,Experiment_English,3.2.4,MacIntel,60,,,1,0,340,170,1,339,ratio21_6_9_8.png,,,,,,,,,,,,
,,,,,,,,,,,,All,Most,Less than half,Many,Some,Few,Half,More than half,None,0.47390191,-0.301649306,1,0,0,QQQ3,,,,,,,,English,2020-06-16_15h38.15.681,Experiment_English,3.2.4,MacIntel,60,,,1,0,340,19,1,339,ratio12_6_18_9.png,,,,,,,,,,,,
,,,,,,,,,,,,Few,Many,More than half,Half,Less than half,Most,All,Some,None,0.054075521,0.014761285,1,0,0,QQQ5,,,,,,,,English,2020-06-16_15h38.15.681,Experiment_English,3.2.4,MacIntel,60,,,1,0,340,251,1,339,ratio34_6_14_2.png,,,,,,,,,,,,
,,,,,,,,,,,,Half,Less than half,Many,Most,More than half,All,None,Some,Few,-0.492013889,-0.285924479,1,0,0,QQQ9,,,,,,,,English,2020-06-16_15h38.15.681,Experiment_English,3.2.4,MacIntel,60,,,1,0,340,110,1,339,ratio14_3_15_2.png,,,,,,,,,,,,
,,,,,,,,,,,,All,Some,Few,Less than half,Many,Most,More than half,Half,None,0.546675347,-0.019800347,1,0,0,QQQ2,,,,,,,,English,2020-06-16_15h38.15.681,Experiment_English,3.2.4,MacIntel,60,,,1,0,340,186,1,339,ratio23_4_10_2.png,,,,,,,,,,,,
,,,,,,,,,,,,Most,Less than half,Few,All,Some,More than half,Half,None,Many,0.499114583,-0.289765625,1,0,0,QQQ3,,,,,,,,English,2020-06-16_15h38.15.681,Experiment_English,3.2.4,MacIntel,60,,,1,0,340,246,1,339,ratio34_3_7_11.png,,,,,,,,,,,,
,,,,,,,,,,,,More than half,All,Half,Less than half,None,Many,Few,Some,Most,-0.374592014,-0.347743056,1,0,0,QQQ9,,,,,,,,English,2020-06-16_15h38.15.681,Experiment_English,3.2.4,MacIntel,60,,,1,0,340,329,1,339,ratio91_9_10_20.png,,,,,,,,,,,,
,,,,,,,,,,,,Most,More than half,Some,None,Few,Many,Less than half,Half,All,0.053255208,-0.022690972,1,0,0,QQQ5,,,,,,,,English,2020-06-16_15h38.15.681,Experiment_English,3.2.4,MacIntel,60,,,1,0,340,155,1,339,ratio19_2_20_13.png,,,,,,,,,,,,
,,,,,,,,,,,,More than half,None,All,Most,Many,Half,Few,Some,Less than half,-0.409414063,0.247378472,1,0,0,QQQ7,,,,,,,,English,2020-06-16_15h38.15.681,Experiment_English,3.2.4,MacIntel,60,,,1,0,340,146,1,339,ratio19_1_10_17.png,,,,,,,,,,,,
,,,,,,,,,,,,Less than half,Many,None,All,More than half,Some,Few,Half,Most,-0.47468316,0.021150174,1,0,0,QQQ8,,,,,,,,English,2020-06-16_15h38.15.681,Experiment_English,3.2.4,MacIntel,60,,,1,0,340,255,1,339,ratio34_6_14_10.png,,,,,,,,,,,,
,,,,,,,,,,,,Few,All,Some,None,More than half,Most,Half,Many,Less than half,0.020321181,-0.050802951,1,0,0,QQQ5,,,,,,,,English,2020-06-16_15h38.15.681,Experiment_English,3.2.4,MacIntel,60,,,1,0,340,175,1,339,ratio21_10_15_2.png,,,,,,,,,,,,
,,,,,,,,,,,,Most,All,Many,More than half,None,Some,Less than half,Half,Few,0.033541667,0.289240451,1,0,0,QQQ4,,,,,,,,English,2020-06-16_15h38.15.681,Experiment_English,3.2.4,MacIntel,60,,,1,0,340,31,1,339,ratio11_6_12_9.png,,,,,,,,,,,,
,,,,,,,,,,,,Some,None,All,Most,Less than half,Few,Many,Half,More than half,0.053142361,0.336744792,1,0,0,QQQ4,,,,,,,,English,2020-06-16_15h38.15.681,Experiment_English,3.2.4,MacIntel,60,,,1,0,340,176,1,339,ratio21_10_15_3.png,,,,,,,,,,,,
,,,,,,,,,,,,None,Few,Some,Less than half,Many,More than half,All,Half,Most,-0.422903646,0.046228299,1,0,0,QQQ8,,,,,,,,English,2020-06-16_15h38.15.681,Experiment_English,3.2.4,MacIntel,60,,,1,0,340,259,1,339,ratio34_6_14_19.png,,,,,,,,,,,,
,,,,,,,,,,,,None,Few,Many,Half,More than half,All,Less than half,Most,Some,0.541467014,0.01187066,1,0,0,QQQ2,,,,,,,,English,2020-06-16_15h38.15.681,Experiment_English,3.2.4,MacIntel,60,,,1,0,340,105,1,339,ratio14_2_10_1.png,,,,,,,,,,,,
,,,,,,,,,,,,Half,Some,Less than half,Most,None,Few,More than half,All,Many,0.519092882,0.015052083,1,0,0,QQQ2,,,,,,,,English,2020-06-16_15h38.15.681,Experiment_English,3.2.4,MacIntel,60,,,1,0,340,193,1,339,ratio23_6_15_9.png,,,,,,,,,,,,
,,,,,,,,,,,,Many,Less than half,Most,Half,All,Some,None,More than half,Few,0.443880208,0.223302951,1,0,0,QQQ1,,,,,,,,English,2020-06-16_15h38.15.681,Experiment_English,3.2.4,MacIntel,60,,,1,0,340,264,1,339,ratio41_4_5_6.png,,,,,,,,,,,,
,,,,,,,,,,,,Many,Less than half,All,Most,More than half,Half,Few,None,Some,0.095837674,-0.312591146,1,0,0,QQQ6,,,,,,,,English,2020-06-16_15h38.15.681,Experiment_English,3.2.4,MacIntel,60,,,1,0,340,20,1,339,ratio11_2_4_3.png,,,,,,,,,,,,
,,,,,,,,,,,,Most,Less than half,None,All,Many,Some,Few,Half,More than half,-0.041996528,0.254136285,1,0,0,QQQ4,,,,,,,,English,2020-06-16_15h38.15.681,Experiment_English,3.2.4,MacIntel,60,,,1,0,340,42,1,339,ratioX0_5_5_5.png,,,,,,,,,,,,
,,,,,,,,,,,,Half,Some,Less than half,Many,None,More than half,Few,All,Most,-0.012573785,-0.020043403,1,0,0,QQQ5,,,,,,,,English,2020-06-16_15h38.15.681,Experiment_English,3.2.4,MacIntel,60,,,1,0,340,75,1,339,ratio0Y_0_16_10.png,,,,,,,,,,,,
,,,,,,,,,,,,Most,Less than half,Few,More than half,Some,Many,Half,None,All,-0.077430556,0.271762153,1,0,0,QQQ4,,,,,,,,English,2020-06-16_15h38.15.681,Experiment_English,3.2.4,MacIntel,60,,,1,0,340,165,1,339,ratio21_4_6_10.png,,,,,,,,,,,,
,,,,,,,,,,,,Half,Most,Many,None,More than half,Some,All,Less than half,Few,-0.559075521,0.066579861,1,0,0,QQQ8,,,,,,,,English,2020-06-16_15h38.15.681,Experiment_English,3.2.4,MacIntel,60,,,1,0,340,198,1,339,ratio23_8_20_7.png,,,,,,,,,,,,
,,,,,,,,,,,,Less than half,None,More than half,Some,Most,Few,Many,Half,All,0.107165799,0.068020833,1,0,0,QQQ5,,,,,,,,English,2020-06-16_15h38.15.681,Experiment_English,3.2.4,MacIntel,60,,,1,0,340,210,1,339,ratio31_9_12_9.png,,,,,,,,,,,,
,,,,,,,,,,,,Most,None,Half,Some,Many,Less than half,All,Few,More than half,-0.410950521,-0.046844618,1,0,0,QQQ8,,,,,,,,English,2020-06-16_15h38.15.681,Experiment_English,3.2.4,MacIntel,60,,,1,0,340,10,1,339,ratio12_4_12_4.png,,,,,,,,,,,,
,,,,,,,,,,,,Some,None,Most,Less than half,More than half,All,Many,Few,Half,0.050924479,-0.024045139,1,0,0,QQQ5,,,,,,,,English,2020-06-16_15h38.15.681,Experiment_English,3.2.4,MacIntel,60,,,1,0,340,218,1,339,ratio31_15_20_7.png,,,,,,,,,,,,
,,,,,,,,,,,,Most,Many,Some,Less than half,None,Half,All,More than half,Few,-0.432356771,-0.315086806,1,0,0,QQQ9,,,,,,,,English,2020-06-16_15h38.15.681,Experiment_English,3.2.4,MacIntel,60,,,1,0,340,182,1,339,ratio23_2_5_7.png,,,,,,,,,,,,
,,,,,,,,,,,,Half,Some,More than half,Many,Few,Less than half,All,None,Most,0.516141493,-0.06515625,1,0,0,QQQ2,,,,,,,,English,2020-06-16_15h38.15.681,Experiment_English,3.2.4,MacIntel,60,,,1,0,340,187,1,339,ratio23_4_10_5.png,,,,,,,,,,,,
,,,,,,,,,,,,All,Many,Most,Few,Half,More than half,Some,None,Less than half,0.048789063,0.261263021,1,0,0,QQQ4,,,,,,,,English,2020-06-16_15h38.15.681,Experiment_English,3.2.4,MacIntel,60,,,1,0,340,8,1,339,ratio12_3_9_4.png,,,,,,,,,,,,
,,,,,,,,,,,,More than half,All,Some,Few,Half,Most,Many,None,Less than half,0.017669271,-0.324856771,1,0,0,QQQ6,,,,,,,,English,2020-06-16_15h38.15.681,Experiment_English,3.2.4,MacIntel,60,,,1,0,340,312,1,339,ratio51_10_12_16.png,,,,,,,,,,,,
,,,,,,,,,,,,Few,None,Some,Most,Half,More than half,Many,Less than half,All,-0.444717882,-0.010425347,1,0,0,QQQ8,,,,,,,,English,2020-06-16_15h38.15.681,Experiment_English,3.2.4,MacIntel,60,,,1,0,340,96,1,339,ratio13_5_20_1.png,0.351002604,-0.396892361,1,0,0,continue_button_pause,1,0,1,0,1,0
,,,,,,,,,,,,,,,,,,,,,,,,,,,,,,,,,,English,2020-06-16_15h38.15.681,Experiment_English,3.2.4,MacIntel,60,,,1,0,340,96,1,339,ratio13_5_20_1.png,,,,,,,,,,,,
,,,,,,,,,,,,None,Few,Half,Many,Less than half,All,Some,Most,More than half,0.096002604,0.306692708,1,0,0,QQQ4,,,,,,,,English,2020-06-16_15h38.15.681,Experiment_English,3.2.4,MacIntel,60,,,1,0,340,277,1,339,ratio41_16_20_8.png,,,,,,,,,,,,
,,,,,,,,,,,,Few,Less than half,More than half,Many,None,Most,Some,All,Half,-0.436019965,0.278537326,1,0,0,QQQ7,,,,,,,,English,2020-06-16_15h38.15.681,Experiment_English,3.2.4,MacIntel,60,,,1,0,340,189,1,339,ratio23_4_10_8.png,,,,,,,,,,,,
,,,,,,,,,,,,Half,Less than half,More than half,Many,All,Most,Few,Some,None,-0.454231771,0.258133681,1,0,0,QQQ7,,,,,,,,English,2020-06-16_15h38.15.681,Experiment_English,3.2.4,MacIntel,60,,,1,0,340,97,1,339,ratio13_5_20_2.png,,,,,,,,,,,,
,,,,,,,,,,,,Half,Few,Some,Many,Most,More than half,Less than half,All,None,0.565911458,0.274188368,1,0,0,QQQ1,,,,,,,,English,2020-06-16_15h38.15.681,Experiment_English,3.2.4,MacIntel,60,,,1,0,340,231,1,339,ratio32_9_15_2.png,,,,,,,,,,,,
,,,,,,,,,,,,Half,All,More than half,Some,Less than half,Most,Few,Many,None,0.533628472,-0.270334201,1,0,0,QQQ3,,,,,,,,English,2020-06-16_15h38.15.681,Experiment_English,3.2.4,MacIntel,60,,,1,0,340,222,1,339,ratio32_3_5_4.png,,,,,,,,,,,,
,,,,,,,,,,,,Half,Most,Few,Less than half,Some,Many,More than half,All,None,0.036015625,-0.015638021,1,0,0,QQQ5,,,,,,,,English,2020-06-16_15h38.15.681,Experiment_English,3.2.4,MacIntel,60,,,1,0,340,63,1,339,ratio0Y_0_6_8.png,,,,,,,,,,,,
,,,,,,,,,,,,Many,All,None,Some,Most,More than half,Less than half,Few,Half,0.003072917,-0.377148437,1,0,0,QQQ6,,,,,,,,English,2020-06-16_15h38.15.681,Experiment_English,3.2.4,MacIntel,60,,,1,0,340,233,1,339,ratio32_9_15_9.png,,,,,,,,,,,,
,,,,,,,,,,,,Some,None,Many,More than half,All,Most,Less than half,Few,Half,0.441545139,-0.300273438,1,0,0,QQQ3,,,,,,,,English,2020-06-16_15h38.15.681,Experiment_English,3.2.4,MacIntel,60,,,1,0,340,301,1,339,ratio51_5_6_4.png,,,,,,,,,,,,
,,,,,,,,,,,,None,Few,All,Some,Most,Many,Less than half,More than half,Half,0.10796875,-0.36046875,1,0,0,QQQ6,,,,,,,,English,2020-06-16_15h38.15.681,Experiment_English,3.2.4,MacIntel,60,,,1,0,340,220,1,339,ratio32_3_5_1.png,,,,,,,,,,,,
,,,,,,,,,,,,Many,Few,More than half,All,Half,None,Less than half,Some,Most,-0.463615451,0.264114583,1,0,0,QQQ7,,,,,,,,English,2020-06-16_15h38.15.681,Experiment_English,3.2.4,MacIntel,60,,,1,0,340,0,1,339,ratio12_1_3_3.png,,,,,,,,,,,,
,,,,,,,,,,,,None,Half,Some,Most,All,Many,Less than half,Few,More than half,0.54703125,0.242265625,1,0,0,QQQ1,,,,,,,,English,2020-06-16_15h38.15.681,Experiment_English,3.2.4,MacIntel,60,,,1,0,340,43,1,339,ratioX0_6_6_9.png,,,,,,,,,,,,
,,,,,,,,,,,,More than half,All,Few,None,Less than half,Many,Half,Some,Most,-0.433220486,-0.000104167,1,0,0,QQQ8,,,,,,,,English,2020-06-16_15h38.15.681,Experiment_English,3.2.4,MacIntel,60,,,1,0,340,247,1,339,ratio34_3_7_12.png,,,,,,,,,,,,
,,,,,,,,,,,,All,None,Many,Most,Half,Some,Less than half,Few,More than half,0.034657118,-0.002573785,1,0,0,QQQ5,,,,,,,,English,2020-06-16_15h38.15.681,Experiment_English,3.2.4,MacIntel,60,,,1,0,340,213,1,339,ratio31_12_16_2.png,,,,,,,,,,,,
,,,,,,,,,,,,Most,Many,More than half,Half,All,Less than half,Some,Few,None,-0.020907118,-0.295377604,1,0,0,QQQ6,,,,,,,,English,2020-06-16_15h38.15.681,Experiment_English,3.2.4,MacIntel,60,,,1,0,340,125,1,339,ratio15_1_6_19.png,,,,,,,,,,,,
,,,,,,,,,,,,None,Some,Few,More than half,All,Less than half,Most,Half,Many,-0.471957465,0.303702257,1,0,0,QQQ7,,,,,,,,English,2020-06-16_15h38.15.681,Experiment_English,3.2.4,MacIntel,60,,,1,0,340,306,1,339,ratio51_5_6_18.png,,,,,,,,,,,,
,,,,,,,,,,,,Less than half,Many,Half,Few,All,None,Some,Most,More than half,-0.486028646,-0.002109375,1,0,0,QQQ8,,,,,,,,English,2020-06-16_15h38.15.681,Experiment_English,3.2.4,MacIntel,60,,,1,0,340,303,1,339,ratio51_5_6_6.png,,,,,,,,,,,,
,,,,,,,,,,,,Many,Half,More than half,Less than half,All,Few,None,Most,Some,-0.469739583,0.340130208,1,0,0,QQQ7,,,,,,,,English,2020-06-16_15h38.15.681,Experiment_English,3.2.4,MacIntel,60,,,1,0,340,69,1,339,ratio0Y_0_11_6.png,,,,,,,,,,,,
,,,,,,,,,,,,More than half,All,None,Half,Most,Few,Less than half,Some,Many,0.023168403,-0.033233507,1,0,0,QQQ5,,,,,,,,English,2020-06-16_15h38.15.681,Experiment_English,3.2.4,MacIntel,60,,,1,0,340,278,1,339,ratio41_16_20_9.png,,,,,,,,,,,,
,,,,,,,,,,,,Less than half,Few,Some,More than half,All,Most,None,Many,Half,-0.461944444,-0.341284722,1,0,0,QQQ9,,,,,,,,English,2020-06-16_15h38.15.681,Experiment_English,3.2.4,MacIntel,60,,,1,0,340,32,1,339,ratio11_7_14_5.png,,,,,,,,,,,,
,,,,,,,,,,,,Most,Few,Half,More than half,Some,Less than half,None,Many,All,-0.431731771,0.328940972,1,0,0,QQQ7,,,,,,,,English,2020-06-16_15h38.15.681,Experiment_English,3.2.4,MacIntel,60,,,1,0,340,322,1,339,ratio91_9_10_3.png,,,,,,,,,,,,
,,,,,,,,,,,,Many,Half,None,Less than half,More than half,Few,All,Most,Some,-0.385381944,0.000898438,1,0,0,QQQ8,,,,,,,,English,2020-06-16_15h38.15.681,Experiment_English,3.2.4,MacIntel,60,,,1,0,340,320,1,339,ratio91_9_10_1.png,,,,,,,,,,,,
,,,,,,,,,,,,All,Most,Few,More than half,Many,Some,Half,Less than half,None,-0.03859809,-0.035338542,1,0,0,QQQ5,,,,,,,,English,2020-06-16_15h38.15.681,Experiment_English,3.2.4,MacIntel,60,,,1,0,340,195,1,339,ratio23_8_20_1.png,,,,,,,,,,,,
,,,,,,,,,,,,Some,More than half,All,Less than half,Few,Half,Many,None,Most,0.00780816,-0.036167535,1,0,0,QQQ5,,,,,,,,English,2020-06-16_15h38.15.681,Experiment_English,3.2.4,MacIntel,60,,,1,0,340,131,1,339,ratio15_2_12_14.png,,,,,,,,,,,,
,,,,,,,,,,,,None,Less than half,Half,Most,Many,All,More than half,Few,Some,-0.3925,0.222452257,1,0,0,QQQ7,,,,,,,,English,2020-06-16_15h38.15.681,Experiment_English,3.2.4,MacIntel,60,,,1,0,340,272,1,339,ratio41_12_15_7.png,,,,,,,,,,,,
,,,,,,,,,,,,None,More than half,All,Many,Some,Half,Most,Less than half,Few,-0.464270833,0.296675347,1,0,0,QQQ7,,,,,,,,English,2020-06-16_15h38.15.681,Experiment_English,3.2.4,MacIntel,60,,,1,0,340,325,1,339,ratio91_9_10_8.png,,,,,,,,,,,,
,,,,,,,,,,,,Some,Few,Less than half,More than half,Many,Most,None,All,Half,-0.489301215,-0.287013889,1,0,0,QQQ9,,,,,,,,English,2020-06-16_15h38.15.681,Experiment_English,3.2.4,MacIntel,60,,,1,0,340,37,1,339,ratio11_9_18_8.png,,,,,,,,,,,,
,,,,,,,,,,,,Few,None,All,More than half,Many,Half,Less than half,Some,Most,-0.528359375,-0.291432292,1,0,0,QQQ9,,,,,,,,English,2020-06-16_15h38.15.681,Experiment_English,3.2.4,MacIntel,60,,,1,0,340,168,1,339,ratio21_6_9_3.png,,,,,,,,,,,,
,,,,,,,,,,,,Some,All,Less than half,Many,More than half,Few,None,Most,Half,0.542912326,0.259144965,1,0,0,QQQ1,,,,,,,,English,2020-06-16_15h38.15.681,Experiment_English,3.2.4,MacIntel,60,,,1,0,340,199,1,339,ratio23_8_20_8.png,,,,,,,,,,,,
,,,,,,,,,,,,All,Half,None,Few,Some,Most,More than half,Many,Less than half,0.097686632,0.274396701,1,0,0,QQQ4,,,,,,,,English,2020-06-16_15h38.15.681,Experiment_English,3.2.4,MacIntel,60,,,1,0,340,103,1,339,ratio14_1_5_9.png,,,,,,,,,,,,
,,,,,,,,,,,,Few,Most,Many,Half,Less than half,None,All,More than half,Some,0.420755208,-0.041189236,1,0,0,QQQ2,,,,,,,,English,2020-06-16_15h38.15.681,Experiment_English,3.2.4,MacIntel,60,,,1,0,340,211,1,339,ratio31_9_12_10.png,,,,,,,,,,,,
,,,,,,,,,,,,Less than half,More than half,Some,All,Many,Half,Few,Most,None,-0.445959201,0.288294271,1,0,0,QQQ7,,,,,,,,English,2020-06-16_15h38.15.681,Experiment_English,3.2.4,MacIntel,60,,,1,0,340,85,1,339,ratio13_2_8_5.png,,,,,,,,,,,,
,,,,,,,,,,,,Less than half,Most,All,Few,Some,Many,Half,None,More than half,-0.40718316,-0.307456597,1,0,0,QQQ9,,,,,,,,English,2020-06-16_15h38.15.681,Experiment_English,3.2.4,MacIntel,60,,,1,0,340,34,1,339,ratio11_8_16_8.png,,,,,,,,,,,,
,,,,,,,,,,,,Less than half,Half,All,None,Some,Few,Many,More than half,Most,0.079322917,0.02968316,1,0,0,QQQ5,,,,,,,,English,2020-06-16_15h38.15.681,Experiment_English,3.2.4,MacIntel,60,,,1,0,340,172,1,339,ratio21_8_12_6.png,,,,,,,,,,,,
,,,,,,,,,,,,Many,Most,Some,More than half,Few,Less than half,Half,None,All,0.13671441,0.279800347,1,0,0,QQQ4,,,,,,,,English,2020-06-16_15h38.15.681,Experiment_English,3.2.4,MacIntel,60,,,1,0,340,225,1,339,ratio32_6_10_4.png,0.381944444,-0.399244792,1,0,0,continue_button_pause,1,0,1,0,1,0
,,,,,,,,,,,,,,,,,,,,,,,,,,,,,,,,,,English,2020-06-16_15h38.15.681,Experiment_English,3.2.4,MacIntel,60,,,1,0,340,225,1,339,ratio32_6_10_4.png,,,,,,,,,,,,
,,,,,,,,,,,,Some,More than half,Many,All,Few,Most,Half,None,Less than half,-0.028480903,-0.292955729,1,0,0,QQQ6,,,,,,,,English,2020-06-16_15h38.15.681,Experiment_English,3.2.4,MacIntel,60,,,1,0,340,177,1,339,ratio21_12_18_1.png,,,,,,,,,,,,
,,,,,,,,,,,,Few,Some,Many,Most,Less than half,Half,More than half,All,None,0.129418403,0.229027778,1,0,0,QQQ4,,,,,,,,English,2020-06-16_15h38.15.681,Experiment_English,3.2.4,MacIntel,60,,,1,0,340,338,1,339,ratio91_18_20_18.png,,,,,,,,,,,,
,,,,,,,,,,,,More than half,None,Less than half,Some,Most,All,Few,Half,Many,0.489322917,0.24125,1,0,0,QQQ1,,,,,,,,English,2020-06-16_15h38.15.681,Experiment_English,3.2.4,MacIntel,60,,,1,0,340,237,1,339,ratio32_12_20_5.png,,,,,,,,,,,,
,,,,,,,,,,,,Few,More than half,Half,All,Many,None,Most,Less than half,Some,0.417065972,0.313680556,1,0,0,QQQ1,,,,,,,,English,2020-06-16_15h38.15.681,Experiment_English,3.2.4,MacIntel,60,,,1,0,340,157,1,339,ratio19_2_20_16.png,,,,,,,,,,,,
,,,,,,,,,,,,Few,Many,Half,Less than half,All,Some,Most,None,More than half,0.475303819,0.2803125,1,0,0,QQQ1,,,,,,,,English,2020-06-16_15h38.15.681,Experiment_English,3.2.4,MacIntel,60,,,1,0,340,13,1,339,ratio12_5_15_3.png,,,,,,,,,,,,
,,,,,,,,,,,,More than half,All,Less than half,Half,Many,Few,Some,None,Most,-0.401206597,0.270724826,1,0,0,QQQ7,,,,,,,,English,2020-06-16_15h38.15.681,Experiment_English,3.2.4,MacIntel,60,,,1,0,340,118,1,339,ratio14_4_20_8.png,,,,,,,,,,,,
,,,,,,,,,,,,Many,Few,Half,None,Some,More than half,All,Most,Less than half,-0.422929687,0.271497396,1,0,0,QQQ7,,,,,,,,English,2020-06-16_15h38.15.681,Experiment_English,3.2.4,MacIntel,60,,,1,0,340,54,1,339,ratioX0_15_15_5.png,,,,,,,,,,,,
,,,,,,,,,,,,Most,Some,All,Few,More than half,Half,Less than half,None,Many,0.441983507,-0.324965278,1,0,0,QQQ3,,,,,,,,English,2020-06-16_15h38.15.681,Experiment_English,3.2.4,MacIntel,60,,,1,0,340,48,1,339,ratioX0_10_10_1.png,,,,,,,,,,,,
,,,,,,,,,,,,None,Less than half,Few,Most,Some,More than half,Half,All,Many,0.106080729,-0.073576389,1,0,0,QQQ5,,,,,,,,English,2020-06-16_15h38.15.681,Experiment_English,3.2.4,MacIntel,60,,,1,0,340,93,1,339,ratio13_4_16_7.png,,,,,,,,,,,,
,,,,,,,,,,,,Many,All,Few,Most,None,More than half,Half,Less than half,Some,-0.387695313,-0.344600694,1,0,0,QQQ9,,,,,,,,English,2020-06-16_15h38.15.681,Experiment_English,3.2.4,MacIntel,60,,,1,0,340,114,1,339,ratio14_3_15_10.png,,,,,,,,,,,,
,,,,,,,,,,,,Most,More than half,Some,Many,All,Less than half,None,Few,Half,-0.466857639,0.331354167,1,0,0,QQQ7,,,,,,,,English,2020-06-16_15h38.15.681,Experiment_English,3.2.4,MacIntel,60,,,1,0,340,70,1,339,ratio0Y_0_12_5.png,,,,,,,,,,,,
,,,,,,,,,,,,Half,Some,None,Less than half,Most,Few,Many,All,More than half,-0.113003472,0.000668403,1,0,0,QQQ5,,,,,,,,English,2020-06-16_15h38.15.681,Experiment_English,3.2.4,MacIntel,60,,,1,0,340,273,1,339,ratio41_12_15_8.png,,,,,,,,,,,,
,,,,,,,,,,,,Many,More than half,Most,None,Half,All,Some,Few,Less than half,-0.408415799,-0.008975694,1,0,0,QQQ8,,,,,,,,English,2020-06-16_15h38.15.681,Experiment_English,3.2.4,MacIntel,60,,,1,0,340,2,1,339,ratio12_1_3_10.png,,,,,,,,,,,,
,,,,,,,,,,,,All,Few,Less than half,Most,Many,Half,Some,More than half,None,0.472664931,-0.025685764,1,0,0,QQQ2,,,,,,,,English,2020-06-16_15h38.15.681,Experiment_English,3.2.4,MacIntel,60,,,1,0,340,120,1,339,ratio15_1_6_1.png,,,,,,,,,,,,
,,,,,,,,,,,,Few,None,All,Half,More than half,Some,Many,Less than half,Most,0.042934028,-0.048133681,1,0,0,QQQ5,,,,,,,,English,2020-06-16_15h38.15.681,Experiment_English,3.2.4,MacIntel,60,,,1,0,340,238,1,339,ratio32_12_20_9.png,,,,,,,,,,,,
,,,,,,,,,,,,All,Some,Most,None,Many,Few,Half,More than half,Less than half,0.052773437,-0.051866319,1,0,0,QQQ5,,,,,,,,English,2020-06-16_15h38.15.681,Experiment_English,3.2.4,MacIntel,60,,,1,0,340,216,1,339,ratio31_15_20_3.png,,,,,,,,,,,,
,,,,,,,,,,,,More than half,Some,Less than half,None,All,Half,Few,Most,Many,-0.382847222,0.226957465,1,0,0,QQQ7,,,,,,,,English,2020-06-16_15h38.15.681,Experiment_English,3.2.4,MacIntel,60,,,1,0,340,183,1,339,ratio23_2_5_9.png,,,,,,,,,,,,
,,,,,,,,,,,,Less than half,Many,Most,Few,None,Half,Some,All,More than half,0.411384549,0.277165799,1,0,0,QQQ1,,,,,,,,English,2020-06-16_15h38.15.681,Experiment_English,3.2.4,MacIntel,60,,,1,0,340,11,1,339,ratio12_4_12_7.png,,,,,,,,,,,,
,,,,,,,,,,,,Few,Many,All,Half,Less than half,Most,Some,None,More than half,0.407821181,0.259557292,1,0,0,QQQ1,,,,,,,,English,2020-06-16_15h38.15.681,Experiment_English,3.2.4,MacIntel,60,,,1,0,340,119,1,339,ratio14_4_20_10.png,,,,,,,,,,,,
,,,,,,,,,,,,Few,Half,Many,Most,None,Some,Less than half,More than half,All,-0.044717882,-0.039939236,1,0,0,QQQ5,,,,,,,,English,2020-06-16_15h38.15.681,Experiment_English,3.2.4,MacIntel,60,,,1,0,340,68,1,339,ratio0Y_0_11_3.png,,,,,,,,,,,,
,,,,,,,,,,,,Most,Less than half,More than half,Some,Half,None,Many,All,Few,-0.474409722,-0.264357639,1,0,0,QQQ9,,,,,,,,English,2020-06-16_15h38.15.681,Experiment_English,3.2.4,MacIntel,60,,,1,0,340,1,1,339,ratio12_1_3_7.png,,,,,,,,,,,,
,,,,,,,,,,,,Some,Less than half,All,Many,Most,Half,Few,None,More than half,0.425260417,-0.326827257,1,0,0,QQQ3,,,,,,,,English,2020-06-16_15h38.15.681,Experiment_English,3.2.4,MacIntel,60,,,1,0,340,58,1,339,ratioX0_19_19_4.png,,,,,,,,,,,,
,,,,,,,,,,,,None,Some,Less than half,More than half,All,Many,Few,Most,Half,-0.364262153,0.257764757,1,0,0,QQQ7,,,,,,,,English,2020-06-16_15h38.15.681,Experiment_English,3.2.4,MacIntel,60,,,1,0,340,15,1,339,ratio12_5_15_5.png,,,,,,,,,,,,
,,,,,,,,,,,,All,More than half,Less than half,Some,Most,None,Few,Many,Half,-0.364262153,0.261050347,1,0,0,QQQ7,,,,,,,,English,2020-06-16_15h38.15.681,Experiment_English,3.2.4,MacIntel,60,,,1,0,340,191,1,339,ratio23_6_15_7.png,,,,,,,,,,,,
,,,,,,,,,,,,Half,None,More than half,Few,All,Many,Some,Less than half,Most,-0.364262153,0.261050347,1,0,0,QQQ7,,,,,,,,English,2020-06-16_15h38.15.681,Experiment_English,3.2.4,MacIntel,60,,,1,0,340,297,1,339,ratio43_8_14_13.png,,,,,,,,,,,,
,,,,,,,,,,,,All,More than half,Some,Less than half,Few,Many,Most,None,Half,-0.364262153,0.261050347,1,0,0,QQQ7,,,,,,,,English,2020-06-16_15h38.15.681,Experiment_English,3.2.4,MacIntel,60,,,1,0,340,261,1,339,ratio41_4_5_3.png,,,,,,,,,,,,
,,,,,,,,,,,,Half,Few,Some,All,Many,Less than half,Most,None,More than half,0.528789063,-0.07937066,1,0,0,QQQ2,,,,,,,,English,2020-06-16_15h38.15.681,Experiment_English,3.2.4,MacIntel,60,,,1,0,340,181,1,339,ratio23_2_5_6.png,,,,,,,,,,,,
,,,,,,,,,,,,Many,Few,Some,Half,More than half,Most,None,All,Less than half,0.080286458,0.221480035,1,0,0,QQQ4,,,,,,,,English,2020-06-16_15h38.15.681,Experiment_English,3.2.4,MacIntel,60,,,1,0,340,21,1,339,ratio11_2_4_10.png,,,,,,,,,,,,
,,,,,,,,,,,,Few,More than half,Some,Most,None,Half,Less than half,All,Many,0.49655816,0.015091146,1,0,0,QQQ2,,,,,,,,English,2020-06-16_15h38.15.681,Experiment_English,3.2.4,MacIntel,60,,,1,0,340,161,1,339,ratio21_2_3_8.png,,,,,,,,,,,,
,,,,,,,,,,,,All,More than half,None,Few,Most,Less than half,Some,Many,Half,0.499305556,0.007669271,1,0,0,QQQ2,,,,,,,,English,2020-06-16_15h38.15.681,Experiment_English,3.2.4,MacIntel,60,,,1,0,340,305,1,339,ratio51_5_6_14.png,,,,,,,,,,,,
,,,,,,,,,,,,Some,Less than half,All,More than half,Half,None,Few,Many,Most,0.530659722,-0.282261285,1,0,0,QQQ3,,,,,,,,English,2020-06-16_15h38.15.681,Experiment_English,3.2.4,MacIntel,60,,,1,0,340,55,1,339,ratioX0_16_16_3.png,,,,,,,,,,,,
,,,,,,,,,,,,Few,Half,All,Most,Some,None,More than half,Less than half,Many,0.108572049,-0.077539063,1,0,0,QQQ5,,,,,,,,English,2020-06-16_15h38.15.681,Experiment_English,3.2.4,MacIntel,60,,,1,0,340,130,1,339,ratio15_2_12_12.png,,,,,,,,,,,,
,,,,,,,,,,,,All,Some,Less than half,None,Most,Few,More than half,Half,Many,0.108858507,-0.076072049,1,0,0,QQQ5,,,,,,,,English,2020-06-16_15h38.15.681,Experiment_English,3.2.4,MacIntel,60,,,1,0,340,280,1,339,ratio43_4_7_2.png,,,,,,,,,,,,
,,,,,,,,,,,,Few,All,Most,Less than half,Many,Some,Half,None,More than half,0.062404514,-0.252782118,1,0,0,QQQ6,,,,,,,,English,2020-06-16_15h38.15.681,Experiment_English,3.2.4,MacIntel,60,,,1,0,340,184,1,339,ratio23_2_5_10.png,0.386219618,-0.422400174,1,0,0,continue_button_pause,1,0,1,0,1,0
,,,,,,,,,,,,,,,,,,,,,,,,,,,,,,,,,,English,2020-06-16_15h38.15.681,Experiment_English,3.2.4,MacIntel,60,,,1,0,340,184,1,339,ratio23_2_5_10.png,,,,,,,,,,,,
,,,,,,,,,,,,None,All,Few,More than half,Half,Some,Most,Less than half,Many,-0.461393229,0.000907118,1,0,0,QQQ8,,,,,,,,English,2020-06-16_15h38.15.681,Experiment_English,3.2.4,MacIntel,60,,,1,0,340,144,1,339,ratio19_1_10_11.png,,,,,,,,,,,,
,,,,,,,,,,,,Most,Half,More than half,Few,Less than half,All,None,Many,Some,-0.459960938,-0.004361979,1,0,0,QQQ8,,,,,,,,English,2020-06-16_15h38.15.681,Experiment_English,3.2.4,MacIntel,60,,,1,0,340,212,1,339,ratio31_12_16_1.png,,,,,,,,,,,,
,,,,,,,,,,,,More than half,Half,All,None,Many,Most,Some,Less than half,Few,-0.46046441,-4.3428E-05,1,0,0,QQQ8,,,,,,,,English,2020-06-16_15h38.15.681,Experiment_English,3.2.4,MacIntel,60,,,1,0,340,142,1,339,ratio19_1_10_6.png,,,,,,,,,,,,
,,,,,,,,,,,,Some,Less than half,Most,More than half,Few,Half,Many,None,All,-0.46046441,-4.3428E-05,1,0,0,QQQ8,,,,,,,,English,2020-06-16_15h38.15.681,Experiment_English,3.2.4,MacIntel,60,,,1,0,340,72,1,339,ratio0Y_0_13_4.png,,,,,,,,,,,,
,,,,,,,,,,,,More than half,Few,All,None,Many,Half,Most,Some,Less than half,-0.46046441,-4.3428E-05,1,0,0,QQQ8,,,,,,,,English,2020-06-16_15h38.15.681,Experiment_English,3.2.4,MacIntel,60,,,1,0,340,139,1,339,ratio15_3_18_20.png,,,,,,,,,,,,
,,,,,,,,,,,,Many,Half,Less than half,Some,More than half,All,None,Few,Most,-0.468459201,-0.257287326,1,0,0,QQQ9,,,,,,,,English,2020-06-16_15h38.15.681,Experiment_English,3.2.4,MacIntel,60,,,1,0,340,331,1,339,ratio91_18_20_3.png,,,,,,,,,,,,
,,,,,,,,,,,,All,Half,Many,None,Some,Few,Most,More than half,Less than half,-0.467703993,-0.258802083,1,0,0,QQQ9,,,,,,,,English,2020-06-16_15h38.15.681,Experiment_English,3.2.4,MacIntel,60,,,1,0,340,113,1,339,ratio14_3_15_8.png,,,,,,,,,,,,
,,,,,,,,,,,,All,Less than half,Most,Few,More than half,Half,None,Some,Many,-0.45734375,-0.049583333,1,0,0,QQQ8,,,,,,,,English,2020-06-16_15h38.15.681,Experiment_English,3.2.4,MacIntel,60,,,1,0,340,197,1,339,ratio23_8_20_6.png,,,,,,,,,,,,
,,,,,,,,,,,,Half,All,Many,Few,Some,Less than half,None,More than half,Most,0.083706597,0.297751736,1,0,0,QQQ4,,,,,,,,English,2020-06-16_15h38.15.681,Experiment_English,3.2.4,MacIntel,60,,,1,0,340,24,1,339,ratio11_4_8_3.png,,,,,,,,,,,,
,,,,,,,,,,,,Many,Less than half,Most,Few,Some,Half,More than half,None,All,-0.381467014,0.018624132,1,0,0,QQQ8,,,,,,,,English,2020-06-16_15h38.15.681,Experiment_English,3.2.4,MacIntel,60,,,1,0,340,64,1,339,ratio0Y_0_7_1.png,,,,,,,,,,,,
,,,,,,,,,,,,Few,Less than half,Most,More than half,Half,Some,All,None,Many,-0.02812066,-0.016232639,1,0,0,QQQ5,,,,,,,,English,2020-06-16_15h38.15.681,Experiment_English,3.2.4,MacIntel,60,,,1,0,340,245,1,339,ratio34_3_7_10.png,,,,,,,,,,,,
,,,,,,,,,,,,Half,Less than half,Some,None,Few,All,Most,Many,More than half,-0.025755208,-0.015907118,1,0,0,QQQ5,,,,,,,,English,2020-06-16_15h38.15.681,Experiment_English,3.2.4,MacIntel,60,,,1,0,340,215,1,339,ratio31_12_16_8.png,,,,,,,,,,,,
,,,,,,,,,,,,Less than half,All,None,Half,Many,Few,More than half,Some,Most,-0.023793403,-0.023038194,1,0,0,QQQ5,,,,,,,,English,2020-06-16_15h38.15.681,Experiment_English,3.2.4,MacIntel,60,,,1,0,340,250,1,339,ratio34_6_14_1.png,,,,,,,,,,,,
,,,,,,,,,,,,Most,Few,More than half,All,Less than half,Half,None,Many,Some,-0.504570312,0.299314236,1,0,0,QQQ7,,,,,,,,English,2020-06-16_15h38.15.681,Experiment_English,3.2.4,MacIntel,60,,,1,0,340,79,1,339,ratio0Y_0_20_4.png,,,,,,,,,,,,
,,,,,,,,,,,,Few,Half,Many,More than half,None,Some,Less than half,Most,All,-0.495147569,0.290759549,1,0,0,QQQ7,,,,,,,,English,2020-06-16_15h38.15.681,Experiment_English,3.2.4,MacIntel,60,,,1,0,340,4,1,339,ratio12_2_6_5.png,,,,,,,,,,,,
,,,,,,,,,,,,Half,Some,More than half,Most,Less than half,Many,Few,All,None,0.637092014,0.267369792,1,0,0,QQQ1,,,,,,,,English,2020-06-16_15h38.15.681,Experiment_English,3.2.4,MacIntel,60,,,1,0,340,242,1,339,ratio34_3_7_6.png,,,,,,,,,,,,
,,,,,,,,,,,,All,Most,Many,Less than half,None,More than half,Half,Few,Some,0.466393229,-0.020672743,1,0,0,QQQ2,,,,,,,,English,2020-06-16_15h38.15.681,Experiment_English,3.2.4,MacIntel,60,,,1,0,340,206,1,339,ratio31_6_8_6.png,,,,,,,,,,,,
,,,,,,,,,,,,All,More than half,Most,None,Few,Many,Less than half,Half,Some,0.468250868,-0.019453125,1,0,0,QQQ2,,,,,,,,English,2020-06-16_15h38.15.681,Experiment_English,3.2.4,MacIntel,60,,,1,0,340,295,1,339,ratio43_8_14_11.png,,,,,,,,,,,,
,,,,,,,,,,,,None,Many,More than half,Some,Most,Less than half,All,Few,Half,-0.432838542,0.241888021,1,0,0,QQQ7,,,,,,,,English,2020-06-16_15h38.15.681,Experiment_English,3.2.4,MacIntel,60,,,1,0,340,51,1,339,ratioX0_12_12_9.png,,,,,,,,,,,,
,,,,,,,,,,,,Few,Some,Half,None,Less than half,More than half,Most,All,Many,0.002317708,-0.037842882,1,0,0,QQQ5,,,,,,,,English,2020-06-16_15h38.15.681,Experiment_English,3.2.4,MacIntel,60,,,1,0,340,18,1,339,ratio12_6_18_7.png,,,,,,,,,,,,
,,,,,,,,,,,,Most,Some,All,Few,Many,More than half,Less than half,Half,None,0.001679687,-0.037842882,1,0,0,QQQ5,,,,,,,,English,2020-06-16_15h38.15.681,Experiment_English,3.2.4,MacIntel,60,,,1,0,340,299,1,339,ratio43_8_14_17.png,,,,,,,,,,,,
,,,,,,,,,,,,More than half,Few,Many,Less than half,Some,Most,None,Half,All,0.00202691,-0.040559896,1,0,0,QQQ5,,,,,,,,English,2020-06-16_15h38.15.681,Experiment_English,3.2.4,MacIntel,60,,,1,0,340,257,1,339,ratio34_6_14_12.png,,,,,,,,,,,,
,,,,,,,,,,,,Many,Half,Most,All,Some,None,Less than half,Few,More than half,-0.005360243,0.277022569,1,0,0,QQQ4,,,,,,,,English,2020-06-16_15h38.15.681,Experiment_English,3.2.4,MacIntel,60,,,1,0,340,45,1,339,ratioX0_8_8_3.png,,,,,,,,,,,,
,,,,,,,,,,,,Most,All,Many,Few,None,Less than half,Half,More than half,Some,0.55906684,-0.047842882,1,0,0,QQQ2,,,,,,,,English,2020-06-16_15h38.15.681,Experiment_English,3.2.4,MacIntel,60,,,1,0,340,56,1,339,ratioX0_17_17_10.png,,,,,,,,,,,,
,,,,,,,,,,,,None,Half,Few,Less than half,All,Many,More than half,Some,Most,-0.430859375,-0.30515625,1,0,0,QQQ9,,,,,,,,English,2020-06-16_15h38.15.681,Experiment_English,3.2.4,MacIntel,60,,,1,0,340,208,1,339,ratio31_9_12_3.png,,,,,,,,,,,,
,,,,,,,,,,,,Most,Few,Half,Some,None,Less than half,All,More than half,Many,-0.429140625,-0.310581597,1,0,0,QQQ9,,,,,,,,English,2020-06-16_15h38.15.681,Experiment_English,3.2.4,MacIntel,60,,,1,0,340,262,1,339,ratio41_4_5_4.png,,,,,,,,,,,,
,,,,,,,,,,,,Some,None,Most,Half,Few,All,Less than half,Many,More than half,-0.056002604,-0.294335937,1,0,0,QQQ6,,,,,,,,English,2020-06-16_15h38.15.681,Experiment_English,3.2.4,MacIntel,60,,,1,0,340,46,1,339,ratioX0_9_9_3.png,,,,,,,,,,,,
,,,,,,,,,,,,More than half,Many,Few,Most,Half,All,Some,None,Less than half,-0.053515625,-0.300247396,1,0,0,QQQ6,,,,,,,,English,2020-06-16_15h38.15.681,Experiment_English,3.2.4,MacIntel,60,,,1,0,340,57,1,339,ratioX0_18_18_1.png,,,,,,,,,,,,
,,,,,,,,,,,,None,Most,Few,Half,Some,More than half,All,Less than half,Many,0.491302083,-0.353016493,1,0,0,QQQ3,,,,,,,,English,2020-06-16_15h38.15.681,Experiment_English,3.2.4,MacIntel,60,,,1,0,340,123,1,339,ratio15_1_6_12.png,,,,,,,,,,,,
,,,,,,,,,,,,Many,Some,Less than half,More than half,All,None,Few,Most,Half,-0.430703125,-0.299557292,1,0,0,QQQ9,,,,,,,,English,2020-06-16_15h38.15.681,Experiment_English,3.2.4,MacIntel,60,,,1,0,340,185,1,339,ratio23_4_10_1.png,,,,,,,,,,,,
,,,,,,,,,,,,None,Less than half,Many,More than half,All,Few,Half,Most,Some,-0.042274306,0.278802083,1,0,0,QQQ4,,,,,,,,English,2020-06-16_15h38.15.681,Experiment_English,3.2.4,MacIntel,60,,,1,0,340,293,1,339,ratio43_8_14_7.png,,,,,,,,,,,,
,,,,,,,,,,,,Some,None,More than half,Half,All,Many,Less than half,Most,Few,-0.420338542,-0.021805556,1,0,0,QQQ8,,,,,,,,English,2020-06-16_15h38.15.681,Experiment_English,3.2.4,MacIntel,60,,,1,0,340,326,1,339,ratio91_9_10_10.png,,,,,,,,,,,,
,,,,,,,,,,,,Less than half,Most,Half,More than half,Few,Some,Many,None,All,-0.449032118,0.263025174,1,0,0,QQQ7,,,,,,,,English,2020-06-16_15h38.15.681,Experiment_English,3.2.4,MacIntel,60,,,1,0,340,321,1,339,ratio91_9_10_2.png,,,,,,,,,,,,
,,,,,,,,,,,,Most,All,Some,Less than half,Few,More than half,Many,None,Half,-0.448398438,0.262391493,1,0,0,QQQ7,,,,,,,,English,2020-06-16_15h38.15.681,Experiment_English,3.2.4,MacIntel,60,,,1,0,340,39,1,339,ratio11_10_20_6.png,0.317634549,-0.390217014,1,0,0,continue_button_pause,1,0,1,0,1,0
,,,,,,,,,,,,,,,,,,,,,,,,,,,,,,,,,,English,2020-06-16_15h38.15.681,Experiment_English,3.2.4,MacIntel,60,,,1,0,340,39,1,339,ratio11_10_20_6.png,,,,,,,,,,,,
,,,,,,,,,,,,Half,None,Some,More than half,Less than half,Most,Many,Few,All,0.450572917,0.247513021,1,0,0,QQQ1,,,,,,,,English,2020-06-16_15h38.15.681,Experiment_English,3.2.4,MacIntel,60,,,1,0,340,241,1,339,ratio34_3_7_5.png,,,,,,,,,,,,
,,,,,,,,,,,,None,More than half,Many,Most,All,Less than half,Few,Some,Half,-0.494778646,0.318012153,1,0,0,QQQ7,,,,,,,,English,2020-06-16_15h38.15.681,Experiment_English,3.2.4,MacIntel,60,,,1,0,340,107,1,339,ratio14_2_10_5.png,,,,,,,,,,,,
,,,,,,,,,,,,All,Most,Few,More than half,Many,Half,Less than half,None,Some,-0.496293403,0.314952257,1,0,0,QQQ7,,,,,,,,English,2020-06-16_15h38.15.681,Experiment_English,3.2.4,MacIntel,60,,,1,0,340,99,1,339,ratio13_5_20_4.png,,,,,,,,,,,,
,,,,,,,,,,,,More than half,Some,Many,Few,All,Half,None,Most,Less than half,-0.065117188,0.247170139,1,0,0,QQQ4,,,,,,,,English,2020-06-16_15h38.15.681,Experiment_English,3.2.4,MacIntel,60,,,1,0,340,129,1,339,ratio15_2_12_9.png,,,,,,,,,,,,
,,,,,,,,,,,,All,Less than half,Half,More than half,None,Most,Some,Few,Many,0.599722222,-0.025347222,1,0,0,QQQ2,,,,,,,,English,2020-06-16_15h38.15.681,Experiment_English,3.2.4,MacIntel,60,,,1,0,340,248,1,339,ratio34_3_7_19.png,,,,,,,,,,,,
,,,,,,,,,,,,None,Some,Many,Half,More than half,Less than half,All,Few,Most,0.599722222,-0.022699653,1,0,0,QQQ2,,,,,,,,English,2020-06-16_15h38.15.681,Experiment_English,3.2.4,MacIntel,60,,,1,0,340,126,1,339,ratio15_2_12_1.png,,,,,,,,,,,,
,,,,,,,,,,,,Many,More than half,All,Some,Few,Half,None,Less than half,Most,-0.480568576,0.271801215,1,0,0,QQQ7,,,,,,,,English,2020-06-16_15h38.15.681,Experiment_English,3.2.4,MacIntel,60,,,1,0,340,74,1,339,ratio0Y_0_15_10.png,,,,,,,,,,,,
,,,,,,,,,,,,All,Half,More than half,Many,Few,Some,None,Less than half,Most,-0.444782986,-0.018810764,1,0,0,QQQ8,,,,,,,,English,2020-06-16_15h38.15.681,Experiment_English,3.2.4,MacIntel,60,,,1,0,340,252,1,339,ratio34_6_14_3.png,,,,,,,,,,,,
,,,,,,,,,,,,Few,None,All,Many,More than half,Most,Some,Less than half,Half,-0.444782986,-0.016653646,1,0,0,QQQ8,,,,,,,,English,2020-06-16_15h38.15.681,Experiment_English,3.2.4,MacIntel,60,,,1,0,340,95,1,339,ratio13_4_16_10.png,,,,,,,,,,,,
,,,,,,,,,,,,Few,Many,More than half,Some,None,All,Less than half,Most,Half,0.088884549,0.275642361,1,0,0,QQQ4,,,,,,,,English,2020-06-16_15h38.15.681,Experiment_English,3.2.4,MacIntel,60,,,1,0,340,169,1,339,ratio21_6_9_7.png,,,,,,,,,,,,
,,,,,,,,,,,,Few,Half,Most,None,Less than half,Some,Many,More than half,All,-0.067864583,-0.304674479,1,0,0,QQQ6,,,,,,,,English,2020-06-16_15h38.15.681,Experiment_English,3.2.4,MacIntel,60,,,1,0,340,202,1,339,ratio31_3_4_8.png,,,,,,,,,,,,
,,,,,,,,,,,,Some,Less than half,Half,Many,More than half,Most,All,Few,None,0.505260417,-0.297039931,1,0,0,QQQ3,,,,,,,,English,2020-06-16_15h38.15.681,Experiment_English,3.2.4,MacIntel,60,,,1,0,340,23,1,339,ratio11_3_6_9.png,,,,,,,,,,,,
,,,,,,,,,,,,Half,More than half,Many,Most,Some,Less than half,All,Few,None,0.519418403,0.018025174,1,0,0,QQQ2,,,,,,,,English,2020-06-16_15h38.15.681,Experiment_English,3.2.4,MacIntel,60,,,1,0,340,298,1,339,ratio43_8_14_14.png,,,,,,,,,,,,
,,,,,,,,,,,,Some,None,Many,Few,Less than half,Most,Half,More than half,All,0.058420139,-0.279040799,1,0,0,QQQ6,,,,,,,,English,2020-06-16_15h38.15.681,Experiment_English,3.2.4,MacIntel,60,,,1,0,340,315,1,339,ratio51_15_18_10.png,,,,,,,,,,,,
,,,,,,,,,,,,All,Most,Some,None,Few,Many,Less than half,Half,More than half,0.008841146,0.270060764,1,0,0,QQQ4,,,,,,,,English,2020-06-16_15h38.15.681,Experiment_English,3.2.4,MacIntel,60,,,1,0,340,65,1,339,ratio0Y_0_8_4.png,,,,,,,,,,,,
,,,,,,,,,,,,Less than half,None,All,Most,More than half,Few,Many,Some,Half,0.061597222,-0.048502604,1,0,0,QQQ5,,,,,,,,English,2020-06-16_15h38.15.681,Experiment_English,3.2.4,MacIntel,60,,,1,0,340,17,1,339,ratio12_6_18_5.png,,,,,,,,,,,,
,,,,,,,,,,,,Most,None,All,Half,More than half,Some,Few,Less than half,Many,0.061914062,-0.049357639,1,0,0,QQQ5,,,,,,,,English,2020-06-16_15h38.15.681,Experiment_English,3.2.4,MacIntel,60,,,1,0,340,253,1,339,ratio34_6_14_5.png,,,,,,,,,,,,
,,,,,,,,,,,,Few,None,Some,All,Most,Half,Less than half,Many,More than half,0.007382812,-0.304835069,1,0,0,QQQ6,,,,,,,,English,2020-06-16_15h38.15.681,Experiment_English,3.2.4,MacIntel,60,,,1,0,340,16,1,339,ratio12_5_15_6.png,,,,,,,,,,,,
,,,,,,,,,,,,All,Few,Most,Less than half,More than half,Half,Many,None,Some,0.457144097,-0.053363715,1,0,0,QQQ2,,,,,,,,English,2020-06-16_15h38.15.681,Experiment_English,3.2.4,MacIntel,60,,,1,0,340,108,1,339,ratio14_2_10_6.png,,,,,,,,,,,,
,,,,,,,,,,,,Less than half,All,None,Half,Most,Some,Few,Many,More than half,0.058867188,0.033624132,1,0,0,QQQ5,,,,,,,,English,2020-06-16_15h38.15.681,Experiment_English,3.2.4,MacIntel,60,,,1,0,340,292,1,339,ratio43_8_14_6.png,,,,,,,,,,,,
,,,,,,,,,,,,None,More than half,Few,Half,Some,Many,Most,All,Less than half,0.061788194,0.033719618,1,0,0,QQQ5,,,,,,,,English,2020-06-16_15h38.15.681,Experiment_English,3.2.4,MacIntel,60,,,1,0,340,244,1,339,ratio34_3_7_9.png,,,,,,,,,,,,
,,,,,,,,,,,,Some,Less than half,All,More than half,Few,Half,Many,None,Most,0.063363715,0.029309896,1,0,0,QQQ5,,,,,,,,English,2020-06-16_15h38.15.681,Experiment_English,3.2.4,MacIntel,60,,,1,0,340,82,1,339,ratio13_1_4_7.png,,,,,,,,,,,,
,,,,,,,,,,,,All,More than half,None,Half,Many,Few,Some,Less than half,Most,0.063632812,0.036888021,1,0,0,QQQ5,,,,,,,,English,2020-06-16_15h38.15.681,Experiment_English,3.2.4,MacIntel,60,,,1,0,340,201,1,339,ratio31_3_4_7.png,,,,,,,,,,,,
,,,,,,,,,,,,More than half,All,Some,None,Less than half,Half,Many,Few,Most,0.063632812,0.037907986,1,0,0,QQQ5,,,,,,,,English,2020-06-16_15h38.15.681,Experiment_English,3.2.4,MacIntel,60,,,1,0,340,115,1,339,ratio14_4_20_1.png,,,,,,,,,,,,
,,,,,,,,,,,,None,Some,Many,Half,Few,All,More than half,Most,Less than half,0.065655382,0.034778646,1,0,0,QQQ5,,,,,,,,English,2020-06-16_15h38.15.681,Experiment_English,3.2.4,MacIntel,60,,,1,0,340,5,1,339,ratio12_2_6_9.png,,,,,,,,,,,,
,,,,,,,,,,,,Many,Few,None,Less than half,All,Half,More than half,Most,Some,-0.408381076,-0.294852431,1,0,0,QQQ9,,,,,,,,English,2020-06-16_15h38.15.681,Experiment_English,3.2.4,MacIntel,60,,,1,0,340,122,1,339,ratio15_1_6_7.png,,,,,,,,,,,,
,,,,,,,,,,,,Half,Many,Few,More than half,All,Some,Most,None,Less than half,-0.015112847,-0.018333333,1,0,0,QQQ5,,,,,,,,English,2020-06-16_15h38.15.681,Experiment_English,3.2.4,MacIntel,60,,,1,0,340,47,1,339,ratioX0_9_9_4.png,,,,,,,,,,,,
,,,,,,,,,,,,None,All,Less than half,Some,Many,More than half,Few,Most,Half,-0.494053819,-0.349986979,1,0,0,QQQ9,,,,,,,,English,2020-06-16_15h38.15.681,Experiment_English,3.2.4,MacIntel,60,,,1,0,340,22,1,339,ratio11_3_6_6.png,,,,,,,,,,,,
,,,,,,,,,,,,None,All,Some,More than half,Most,Few,Many,Half,Less than half,-0.454904514,-0.291302083,1,0,0,QQQ9,,,,,,,,English,2020-06-16_15h38.15.681,Experiment_English,3.2.4,MacIntel,60,,,1,0,340,190,1,339,ratio23_6_15_3.png,,,,,,,,,,,,
,,,,,,,,,,,,Half,All,Many,More than half,Less than half,Some,None,Few,Most,-0.454904514,-0.290664062,1,0,0,QQQ9,,,,,,,,English,2020-06-16_15h38.15.681,Experiment_English,3.2.4,MacIntel,60,,,1,0,340,304,1,339,ratio51_5_6_13.png,,,,,,,,,,,,
,,,,,,,,,,,,Few,None,Half,Some,Most,All,Less than half,More than half,Many,-0.454904514,-0.290664062,1,0,0,QQQ9,,,,,,,,English,2020-06-16_15h38.15.681,Experiment_English,3.2.4,MacIntel,60,,,1,0,340,91,1,339,ratio13_3_12_10.png,,,,,,,,,,,,
,,,,,,,,,,,,Most,Many,More than half,Less than half,Half,None,All,Some,Few,-0.454904514,-0.290664062,1,0,0,QQQ9,,,,,,,,English,2020-06-16_15h38.15.681,Experiment_English,3.2.4,MacIntel,60,,,1,0,340,148,1,339,ratio19_1_10_19.png,,,,,,,,,,,,
,,,,,,,,,,,,Many,Less than half,All,More than half,Half,Most,None,Few,Some,-0.453472222,-0.295247396,1,0,0,QQQ9,,,,,,,,English,2020-06-16_15h38.15.681,Experiment_English,3.2.4,MacIntel,60,,,1,0,340,285,1,339,ratio43_4_7_14.png,,,,,,,,,,,,
,,,,,,,,,,,,All,Half,Most,Few,Less than half,More than half,None,Some,Many,-0.031171875,0.25421875,1,0,0,QQQ4,,,,,,,,English,2020-06-16_15h38.15.681,Experiment_English,3.2.4,MacIntel,60,,,1,0,340,149,1,339,ratio19_1_10_20.png,0.347703993,-0.38797309,1,0,0,continue_button_pause,1,0,1,0,1,0
,,,,,,,,,,,,,,,,,,,,,,,,,,,,,,,,,,English,2020-06-16_15h38.15.681,Experiment_English,3.2.4,MacIntel,60,,,1,0,340,149,1,339,ratio19_1_10_20.png,,,,,,,,,,,,
,,,,,,,,,,,,Half,None,Few,Less than half,All,Some,Most,Many,More than half,0.628402778,0.270980903,1,0,0,QQQ1,,,,,,,,English,2020-06-16_15h38.15.681,Experiment_English,3.2.4,MacIntel,60,,,1,0,340,281,1,339,ratio43_4_7_4.png,,,,,,,,,,,,
,,,,,,,,,,,,Some,All,More than half,Many,Less than half,None,Half,Few,Most,0.041375868,-0.002465278,1,0,0,QQQ5,,,,,,,,English,2020-06-16_15h38.15.681,Experiment_English,3.2.4,MacIntel,60,,,1,0,340,38,1,339,ratio11_10_20_5.png,,,,,,,,,,,,
,,,,,,,,,,,,Some,Half,Few,None,Many,Most,More than half,All,Less than half,0.044331597,-0.012608507,1,0,0,QQQ5,,,,,,,,English,2020-06-16_15h38.15.681,Experiment_English,3.2.4,MacIntel,60,,,1,0,340,275,1,339,ratio41_16_20_2.png,,,,,,,,,,,,
,,,,,,,,,,,,More than half,None,All,Many,Some,Most,Few,Half,Less than half,0.044331597,-0.012608507,1,0,0,QQQ5,,,,,,,,English,2020-06-16_15h38.15.681,Experiment_English,3.2.4,MacIntel,60,,,1,0,340,327,1,339,ratio91_9_10_11.png,,,,,,,,,,,,
,,,,,,,,,,,,All,Many,Few,Some,More than half,Most,Less than half,Half,None,-0.457821181,-0.357395833,1,0,0,QQQ9,,,,,,,,English,2020-06-16_15h38.15.681,Experiment_English,3.2.4,MacIntel,60,,,1,0,340,66,1,339,ratio0Y_0_9_8.png,,,,,,,,,,,,
,,,,,,,,,,,,Many,All,Most,None,More than half,Half,Less than half,Few,Some,-0.058689236,-0.036588542,1,0,0,QQQ5,,,,,,,,English,2020-06-16_15h38.15.681,Experiment_English,3.2.4,MacIntel,60,,,1,0,340,332,1,339,ratio91_18_20_4.png,,,,,,,,,,,,
,,,,,,,,,,,,All,Few,None,Half,Some,Most,More than half,Many,Less than half,-0.058689236,-0.036588542,1,0,0,QQQ5,,,,,,,,English,2020-06-16_15h38.15.681,Experiment_English,3.2.4,MacIntel,60,,,1,0,340,221,1,339,ratio32_3_5_3.png,,,,,,,,,,,,
,,,,,,,,,,,,Half,More than half,All,Most,Some,Few,Many,None,Less than half,0.014904514,0.290811632,1,0,0,QQQ4,,,,,,,,English,2020-06-16_15h38.15.681,Experiment_English,3.2.4,MacIntel,60,,,1,0,340,302,1,339,ratio51_5_6_5.png,,,,,,,,,,,,
,,,,,,,,,,,,Most,All,Half,Less than half,More than half,None,Few,Some,Many,-0.015815972,0.002139757,1,0,0,QQQ5,,,,,,,,English,2020-06-16_15h38.15.681,Experiment_English,3.2.4,MacIntel,60,,,1,0,340,235,1,339,ratio32_12_20_1.png,,,,,,,,,,,,
,,,,,,,,,,,,More than half,None,Many,Some,Most,Less than half,Few,Half,All,-0.458203125,0.307009549,1,0,0,QQQ7,,,,,,,,English,2020-06-16_15h38.15.681,Experiment_English,3.2.4,MacIntel,60,,,1,0,340,143,1,339,ratio19_1_10_9.png,,,,,,,,,,,,
,,,,,,,,,,,,Half,Some,Many,Less than half,None,Few,All,Most,More than half,-0.458203125,0.307009549,1,0,0,QQQ7,,,,,,,,English,2020-06-16_15h38.15.681,Experiment_English,3.2.4,MacIntel,60,,,1,0,340,53,1,339,ratioX0_14_14_8.png,,,,,,,,,,,,
,,,,,,,,,,,,All,Some,More than half,Less than half,Most,Many,Half,Few,None,-0.497595486,0.001896701,1,0,0,QQQ8,,,,,,,,English,2020-06-16_15h38.15.681,Experiment_English,3.2.4,MacIntel,60,,,1,0,340,87,1,339,ratio13_2_8_8.png,,,,,,,,,,,,
,,,,,,,,,,,,None,Few,Some,Many,Less than half,Most,Half,More than half,All,-0.497595486,0.001896701,1,0,0,QQQ8,,,,,,,,English,2020-06-16_15h38.15.681,Experiment_English,3.2.4,MacIntel,60,,,1,0,340,309,1,339,ratio51_10_12_10.png,,,,,,,,,,,,
,,,,,,,,,,,,More than half,Some,Few,Less than half,Many,Most,None,Half,All,-0.066297743,-0.269900174,1,0,0,QQQ6,,,,,,,,English,2020-06-16_15h38.15.681,Experiment_English,3.2.4,MacIntel,60,,,1,0,340,323,1,339,ratio91_9_10_5.png,,,,,,,,,,,,
,,,,,,,,,,,,All,Few,Some,More than half,Less than half,Most,None,Many,Half,-0.065724826,-0.269900174,1,0,0,QQQ6,,,,,,,,English,2020-06-16_15h38.15.681,Experiment_English,3.2.4,MacIntel,60,,,1,0,340,260,1,339,ratio41_4_5_2.png,,,,,,,,,,,,
,,,,,,,,,,,,Half,Many,All,None,Most,Some,Few,More than half,Less than half,-0.065724826,-0.269900174,1,0,0,QQQ6,,,,,,,,English,2020-06-16_15h38.15.681,Experiment_English,3.2.4,MacIntel,60,,,1,0,340,112,1,339,ratio14_3_15_4.png,,,,,,,,,,,,
,,,,,,,,,,,,Few,None,Most,Half,Many,Some,More than half,All,Less than half,-0.064292535,-0.269900174,1,0,0,QQQ6,,,,,,,,English,2020-06-16_15h38.15.681,Experiment_English,3.2.4,MacIntel,60,,,1,0,340,180,1,339,ratio23_2_5_4.png,,,,,,,,,,,,
,,,,,,,,,,,,Half,All,Many,Most,Some,None,Less than half,More than half,Few,-0.371610243,-0.290755208,1,0,0,QQQ9,,,,,,,,English,2020-06-16_15h38.15.681,Experiment_English,3.2.4,MacIntel,60,,,1,0,340,150,1,339,ratio19_2_20_1.png,,,,,,,,,,,,
,,,,,,,,,,,,All,Most,Many,Some,Less than half,More than half,None,Few,Half,0.052560764,-0.324448785,1,0,0,QQQ6,,,,,,,,English,2020-06-16_15h38.15.681,Experiment_English,3.2.4,MacIntel,60,,,1,0,340,300,1,339,ratio51_5_6_1.png,,,,,,,,,,,,
,,,,,,,,,,,,More than half,None,Half,Some,Most,Few,Less than half,Many,All,0.052560764,-0.324448785,1,0,0,QQQ6,,,,,,,,English,2020-06-16_15h38.15.681,Experiment_English,3.2.4,MacIntel,60,,,1,0,340,81,1,339,ratio13_1_4_5.png,,,,,,,,,,,,
,,,,,,,,,,,,Many,None,Some,All,Most,More than half,Less than half,Few,Half,0.005108507,-0.046931424,1,0,0,QQQ5,,,,,,,,English,2020-06-16_15h38.15.681,Experiment_English,3.2.4,MacIntel,60,,,1,0,340,162,1,339,ratio21_2_3_9.png,,,,,,,,,,,,
,,,,,,,,,,,,Most,Some,Many,Half,Less than half,None,More than half,All,Few,0.524982639,0.037773437,1,0,0,QQQ2,,,,,,,,English,2020-06-16_15h38.15.681,Experiment_English,3.2.4,MacIntel,60,,,1,0,340,319,1,339,ratio51_15_18_20.png,,,,,,,,,,,,
,,,,,,,,,,,,None,Many,Half,Few,All,Most,Less than half,More than half,Some,0.444635417,0.029079861,1,0,0,QQQ2,,,,,,,,English,2020-06-16_15h38.15.681,Experiment_English,3.2.4,MacIntel,60,,,1,0,340,178,1,339,ratio21_12_18_2.png,,,,,,,,,,,,
,,,,,,,,,,,,More than half,None,Few,Some,Less than half,Many,Most,Half,All,0.435512153,0.263359375,1,0,0,QQQ1,,,,,,,,English,2020-06-16_15h38.15.681,Experiment_English,3.2.4,MacIntel,60,,,1,0,340,224,1,339,ratio32_3_5_10.png,,,,,,,,,,,,
,,,,,,,,,,,,Less than half,All,None,Some,Few,Half,More than half,Most,Many,0.48891059,0.283237847,1,0,0,QQQ1,,,,,,,,English,2020-06-16_15h38.15.681,Experiment_English,3.2.4,MacIntel,60,,,1,0,340,240,1,339,ratio34_3_7_4.png,,,,,,,,,,,,
,,,,,,,,,,,,Most,More than half,Few,Some,Many,Less than half,Half,All,None,0.150889757,0.309448785,1,0,0,QQQ4,,,,,,,,English,2020-06-16_15h38.15.681,Experiment_English,3.2.4,MacIntel,60,,,1,0,340,102,1,339,ratio14_1_5_8.png,,,,,,,,,,,,
,,,,,,,,,,,,Many,Most,Half,Some,Few,More than half,None,All,Less than half,0.150889757,0.309448785,1,0,0,QQQ4,,,,,,,,English,2020-06-16_15h38.15.681,Experiment_English,3.2.4,MacIntel,60,,,1,0,340,267,1,339,ratio41_8_10_4.png,,,,,,,,,,,,
,,,,,,,,,,,,Half,Few,Many,None,More than half,Most,Some,Less than half,All,0.150889757,0.309448785,1,0,0,QQQ4,,,,,,,,English,2020-06-16_15h38.15.681,Experiment_English,3.2.4,MacIntel,60,,,1,0,340,76,1,339,ratio0Y_0_17_10.png,,,,,,,,,,,,
,,,,,,,,,,,,Many,All,Half,Less than half,Some,Most,Few,More than half,None,0.411666667,0.297899306,1,0,0,QQQ1,,,,,,,,English,2020-06-16_15h38.15.681,Experiment_English,3.2.4,MacIntel,60,,,1,0,340,337,1,339,ratio91_18_20_16.png,,,,,,,,,,,,
,,,,,,,,,,,,More than half,Some,Half,Few,None,Most,Less than half,Many,All,0.411666667,0.297899306,1,0,0,QQQ1,,,,,,,,English,2020-06-16_15h38.15.681,Experiment_English,3.2.4,MacIntel,60,,,1,0,340,164,1,339,ratio21_4_6_6.png,,,,,,,,,,,,
,,,,,,,,,,,,Few,All,Some,Less than half,None,Many,Most,Half,More than half,0.411666667,0.297899306,1,0,0,QQQ1,,,,,,,,English,2020-06-16_15h38.15.681,Experiment_English,3.2.4,MacIntel,60,,,1,0,340,83,1,339,ratio13_1_4_10.png,,,,,,,,,,,,
,,,,,,,,,,,,Many,None,Some,Few,Most,Less than half,More than half,Half,All,0.086241319,0.271636285,1,0,0,QQQ4,,,,,,,,English,2020-06-16_15h38.15.681,Experiment_English,3.2.4,MacIntel,60,,,1,0,340,89,1,339,ratio13_3_12_6.png,,,,,,,,,,,,
,,,,,,,,,,,,More than half,All,Few,Less than half,Most,Half,Some,Many,None,0.086241319,0.271636285,1,0,0,QQQ4,,,,,,,,English,2020-06-16_15h38.15.681,Experiment_English,3.2.4,MacIntel,60,,,1,0,340,128,1,339,ratio15_2_12_8.png,,,,,,,,,,,,
,,,,,,,,,,,,Less than half,Few,More than half,Half,All,None,Some,Many,Most,0.481063368,0.054305556,1,0,0,QQQ2,,,,,,,,English,2020-06-16_15h38.15.681,Experiment_English,3.2.4,MacIntel,60,,,1,0,340,101,1,339,ratio14_1_5_7.png,0.406844618,-0.427682292,1,0,0,continue_button_pause,1,0,1,0,1,0
,,,,,,,,,,,,,,,,,,,,,,,,,,,,,,,,,,English,2020-06-16_15h38.15.681,Experiment_English,3.2.4,MacIntel,60,,,1,0,340,101,1,339,ratio14_1_5_7.png,,,,,,,,,,,,
,,,,,,,,,,,,None,Some,Few,Half,More than half,Most,All,Less than half,Many,-0.089544271,-0.311666667,1,0,0,QQQ6,,,,,,,,English,2020-06-16_15h38.15.681,Experiment_English,3.2.4,MacIntel,60,,,1,0,340,334,1,339,ratio91_18_20_9.png,,,,,,,,,,,,
,,,,,,,,,,,,None,Many,Most,Half,Few,Less than half,More than half,Some,All,0.505881076,0.263359375,1,0,0,QQQ1,,,,,,,,English,2020-06-16_15h38.15.681,Experiment_English,3.2.4,MacIntel,60,,,1,0,340,60,1,339,ratio0Y_0_3_5.png,,,,,,,,,,,,
,,,,,,,,,,,,Most,Few,None,Many,Some,More than half,Half,Less than half,All,0.553012153,-0.290360243,1,0,0,QQQ3,,,,,,,,English,2020-06-16_15h38.15.681,Experiment_English,3.2.4,MacIntel,60,,,1,0,340,73,1,339,ratio0Y_0_14_7.png,,,,,,,,,,,,
,,,,,,,,,,,,Few,Less than half,None,Many,Most,Some,All,Half,More than half,0.004392361,-0.331263021,1,0,0,QQQ6,,,,,,,,English,2020-06-16_15h38.15.681,Experiment_English,3.2.4,MacIntel,60,,,1,0,340,171,1,339,ratio21_8_12_4.png,,,,,,,,,,,,
,,,,,,,,,,,,Few,More than half,Less than half,All,Half,Many,Some,None,Most,0.004392361,-0.331263021,1,0,0,QQQ6,,,,,,,,English,2020-06-16_15h38.15.681,Experiment_English,3.2.4,MacIntel,60,,,1,0,340,271,1,339,ratio41_12_15_6.png,,,,,,,,,,,,
,,,,,,,,,,,,More than half,Some,Less than half,Half,Few,Many,None,Most,All,-0.013802083,0.022083333,1,0,0,QQQ5,,,,,,,,English,2020-06-16_15h38.15.681,Experiment_English,3.2.4,MacIntel,60,,,1,0,340,35,1,339,ratio11_8_16_10.png,,,,,,,,,,,,
,,,,,,,,,,,,More than half,Few,All,Some,Half,None,Many,Most,Less than half,0.433854167,0.039678819,1,0,0,QQQ2,,,,,,,,English,2020-06-16_15h38.15.681,Experiment_English,3.2.4,MacIntel,60,,,1,0,340,124,1,339,ratio15_1_6_16.png,,,,,,,,,,,,
,,,,,,,,,,,,Few,None,More than half,All,Most,Less than half,Half,Many,Some,-0.067408854,-0.00391059,1,0,0,QQQ5,,,,,,,,English,2020-06-16_15h38.15.681,Experiment_English,3.2.4,MacIntel,60,,,1,0,340,276,1,339,ratio41_16_20_4.png,,,,,,,,,,,,
,,,,,,,,,,,,None,All,Many,Less than half,Most,More than half,Few,Some,Half,0.384014757,0.249921875,1,0,0,QQQ1,,,,,,,,English,2020-06-16_15h38.15.681,Experiment_English,3.2.4,MacIntel,60,,,1,0,340,78,1,339,ratio0Y_0_19_1.png,,,,,,,,,,,,
,,,,,,,,,,,,Many,Few,Half,More than half,None,All,Some,Less than half,Most,0.384014757,0.249921875,1,0,0,QQQ1,,,,,,,,English,2020-06-16_15h38.15.681,Experiment_English,3.2.4,MacIntel,60,,,1,0,340,33,1,339,ratio11_7_14_8.png,,,,,,,,,,,,
,,,,,,,,,,,,Less than half,Most,All,Few,Some,Half,None,More than half,Many,0.384014757,0.249921875,1,0,0,QQQ1,,,,,,,,English,2020-06-16_15h38.15.681,Experiment_English,3.2.4,MacIntel,60,,,1,0,340,288,1,339,ratio43_4_7_18.png,,,,,,,,,,,,
,,,,,,,,,,,,Some,More than half,None,Half,All,Many,Less than half,Few,Most,0.412721354,-0.024513889,1,0,0,QQQ2,,,,,,,,English,2020-06-16_15h38.15.681,Experiment_English,3.2.4,MacIntel,60,,,1,0,340,174,1,339,ratio21_10_15_1.png,,,,,,,,,,,,
,,,,,,,,,,,,Many,Less than half,Few,Half,Most,None,Some,All,More than half,0.094318576,0.006671007,1,0,0,QQQ5,,,,,,,,English,2020-06-16_15h38.15.681,Experiment_English,3.2.4,MacIntel,60,,,1,0,340,328,1,339,ratio91_9_10_15.png,,,,,,,,,,,,
,,,,,,,,,,,,Half,Less than half,More than half,Most,All,Some,Few,None,Many,-0.45140191,0.206011285,1,0,0,QQQ7,,,,,,,,English,2020-06-16_15h38.15.681,Experiment_English,3.2.4,MacIntel,60,,,1,0,340,147,1,339,ratio19_1_10_18.png,,,,,,,,,,,,
,,,,,,,,,,,,None,All,More than half,Few,Half,Some,Most,Less than half,Many,-0.072994792,0.259891493,1,0,0,QQQ4,,,,,,,,English,2020-06-16_15h38.15.681,Experiment_English,3.2.4,MacIntel,60,,,1,0,340,223,1,339,ratio32_3_5_5.png,,,,,,,,,,,,
,,,,,,,,,,,,Some,None,Many,Most,All,Few,Less than half,Half,More than half,-0.427144097,0.23109375,1,0,0,QQQ7,,,,,,,,English,2020-06-16_15h38.15.681,Experiment_English,3.2.4,MacIntel,60,,,1,0,340,254,1,339,ratio34_6_14_9.png,,,,,,,,,,,,
,,,,,,,,,,,,Less than half,Half,Many,Most,All,None,Some,Few,More than half,-0.096341146,0.268272569,1,0,0,QQQ4,,,,,,,,English,2020-06-16_15h38.15.681,Experiment_English,3.2.4,MacIntel,60,,,1,0,340,269,1,339,ratio41_8_10_6.png,,,,,,,,,,,,
,,,,,,,,,,,,None,Some,Less than half,Most,Many,All,More than half,Half,Few,-0.096341146,0.268272569,1,0,0,QQQ4,,,,,,,,English,2020-06-16_15h38.15.681,Experiment_English,3.2.4,MacIntel,60,,,1,0,340,313,1,339,ratio51_15_18_2.png,,,,,,,,,,,,
,,,,,,,,,,,,Most,All,More than half,Half,Less than half,None,Few,Some,Many,-0.433806424,0.254578993,1,0,0,QQQ7,,,,,,,,English,2020-06-16_15h38.15.681,Experiment_English,3.2.4,MacIntel,60,,,1,0,340,111,1,339,ratio14_3_15_3.png,,,,,,,,,,,,
,,,,,,,,,,,,None,More than half,Some,Less than half,Most,All,Half,Few,Many,0.101623264,-0.00921875,1,0,0,QQQ5,,,,,,,,English,2020-06-16_15h38.15.681,Experiment_English,3.2.4,MacIntel,60,,,1,0,340,335,1,339,ratio91_18_20_11.png,,,,,,,,,,,,
,,,,,,,,,,,,More than half,Less than half,None,Some,Many,Few,Half,All,Most,0.101623264,-0.00921875,1,0,0,QQQ5,,,,,,,,English,2020-06-16_15h38.15.681,Experiment_English,3.2.4,MacIntel,60,,,1,0,340,310,1,339,ratio51_10_12_12.png,,,,,,,,,,,,
,,,,,,,,,,,,Few,More than half,Half,None,All,Some,Less than half,Many,Most,0.520768229,0.292469618,1,0,0,QQQ1,,,,,,,,English,2020-06-16_15h38.15.681,Experiment_English,3.2.4,MacIntel,60,,,1,0,340,287,1,339,ratio43_4_7_17.png,,,,,,,,,,,,
,,,,,,,,,,,,Some,Half,Many,Less than half,All,More than half,None,Most,Few,0.51391059,0.291901042,1,0,0,QQQ1,,,,,,,,English,2020-06-16_15h38.15.681,Experiment_English,3.2.4,MacIntel,60,,,1,0,340,243,1,339,ratio34_3_7_8.png,,,,,,,,,,,,
,,,,,,,,,,,,All,Less than half,More than half,Most,Some,Half,Few,Many,None,-0.025147569,-0.024652778,1,0,0,QQQ5,,,,,,,,English,2020-06-16_15h38.15.681,Experiment_English,3.2.4,MacIntel,60,,,1,0,340,140,1,339,ratio19_1_10_1.png,,,,,,,,,,,,
,,,,,,,,,,,,Many,More than half,All,Half,Less than half,None,Most,Some,Few,0.484461806,-0.013650174,1,0,0,QQQ2,,,,,,,,English,2020-06-16_15h38.15.681,Experiment_English,3.2.4,MacIntel,60,,,1,0,340,316,1,339,ratio51_15_18_11.png,,,,,,,,,,,,
,,,,,,,,,,,,None,Few,All,Half,Less than half,More than half,Most,Some,Many,0.454600694,0.287543403,1,0,0,QQQ1,,,,,,,,English,2020-06-16_15h38.15.681,Experiment_English,3.2.4,MacIntel,60,,,1,0,340,49,1,339,ratioX0_11_11_2.png,,,,,,,,,,,,
,,,,,,,,,,,,Less than half,Many,Few,More than half,None,Half,All,Most,Some,0.454600694,0.287543403,1,0,0,QQQ1,,,,,,,,English,2020-06-16_15h38.15.681,Experiment_English,3.2.4,MacIntel,60,,,1,0,340,188,1,339,ratio23_4_10_6.png,,,,,,,,,,,,
,,,,,,,,,,,,Some,More than half,Less than half,Most,None,Many,All,Half,Few,0.057209201,0.280577257,1,0,0,QQQ4,,,,,,,,English,2020-06-16_15h38.15.681,Experiment_English,3.2.4,MacIntel,60,,,1,0,340,311,1,339,ratio51_10_12_14.png,,,,,,,,,,,,
,,,,,,,,,,,,Some,Half,None,All,Less than half,Many,More than half,Most,Few,-0.514939236,0.288923611,1,0,0,QQQ7,,,,,,,,English,2020-06-16_15h38.15.681,Experiment_English,3.2.4,MacIntel,60,,,1,0,340,232,1,339,ratio32_9_15_8.png,,,,,,,,,,,,
,,,,,,,,,,,,Most,Less than half,Few,Many,More than half,All,Half,None,Some,-0.149587674,0.001775174,1,0,0,QQQ5,,,,,,,,English,2020-06-16_15h38.15.681,Experiment_English,3.2.4,MacIntel,60,,,1,0,340,274,1,339,ratio41_12_15_9.png,,,,,,,,,,,,
,,,,,,,,,,,,More than half,Few,None,Half,All,Less than half,Most,Some,Many,0.060130208,-0.246380208,1,0,0,QQQ6,,,,,,,,English,2020-06-16_15h38.15.681,Experiment_English,3.2.4,MacIntel,60,,,1,0,340,6,1,339,ratio12_3_9_1.png,,,,,,,,,,,,
,,,,,,,,,,,,All,Few,Most,Less than half,Many,Half,None,More than half,Some,0.634144965,0.03000434,1,0,0,QQQ2,,,,,,,,English,2020-06-16_15h38.15.681,Experiment_English,3.2.4,MacIntel,60,,,1,0,340,159,1,339,ratio19_2_20_20.png,,,,,,,,,,,,
,,,,,,,,,,,,Many,Half,Most,Some,None,Less than half,More than half,All,Few,-0.441809896,0.014006076,1,0,0,QQQ8,,,,,,,,English,2020-06-16_15h38.15.681,Experiment_English,3.2.4,MacIntel,60,,,1,0,340,59,1,339,ratioX0_20_20_9.png,,,,,,,,,,,,
,,,,,,,,,,,,Most,None,All,More than half,Less than half,Some,Many,Half,Few,-0.449596354,-0.274361979,1,0,0,QQQ9,,,,,,,,English,2020-06-16_15h38.15.681,Experiment_English,3.2.4,MacIntel,60,,,1,0,340,154,1,339,ratio19_2_20_11.png,0.314023438,-0.397712674,1,0,0,continue_button_pause,1,0,1,0,1,0
,,,,,,,,,,,,,,,,,,,,,,,,,,,,,,,,,,English,2020-06-16_15h38.15.681,Experiment_English,3.2.4,MacIntel,60,,,1,0,340,154,1,339,ratio19_2_20_11.png,,,,,,,,,,,,
,,,,,,,,,,,,None,All,More than half,Half,Less than half,Few,Most,Some,Many,0.465416667,0.223576389,1,0,0,QQQ1,,,,,,,,English,2020-06-16_15h38.15.681,Experiment_English,3.2.4,MacIntel,60,,,1,0,340,67,1,339,ratio0Y_0_10_10.png,,,,,,,,,,,,
,,,,,,,,,,,,Less than half,None,Most,Many,Some,Few,Half,All,More than half,0.465390625,0.228159722,1,0,0,QQQ1,,,,,,,,English,2020-06-16_15h38.15.681,Experiment_English,3.2.4,MacIntel,60,,,1,0,340,179,1,339,ratio21_12_18_8.png,,,,,,,,,,,,
,,,,,,,,,,,,Many,Few,Half,Less than half,Most,More than half,None,Some,All,0.455616319,0.205503472,1,0,0,QQQ1,,,,,,,,English,2020-06-16_15h38.15.681,Experiment_English,3.2.4,MacIntel,60,,,1,0,340,289,1,339,ratio43_4_7_20.png,,,,,,,,,,,,
,,,,,,,,,,,,Half,All,None,Some,Less than half,Most,More than half,Few,Many,0.457200521,0.200581597,1,0,0,QQQ1,,,,,,,,English,2020-06-16_15h38.15.681,Experiment_English,3.2.4,MacIntel,60,,,1,0,340,307,1,339,ratio51_10_12_1.png,,,,,,,,,,,,
,,,,,,,,,,,,Most,Few,Some,None,All,More than half,Less than half,Half,Many,0.458363715,0.229982639,1,0,0,QQQ1,,,,,,,,English,2020-06-16_15h38.15.681,Experiment_English,3.2.4,MacIntel,60,,,1,0,340,209,1,339,ratio31_9_12_6.png,,,,,,,,,,,,
,,,,,,,,,,,,Many,More than half,Half,None,Most,Few,Less than half,Some,All,-0.011041667,-0.368949653,1,0,0,QQQ6,,,,,,,,English,2020-06-16_15h38.15.681,Experiment_English,3.2.4,MacIntel,60,,,1,0,340,152,1,339,ratio19_2_20_6.png,,,,,,,,,,,,
,,,,,,,,,,,,Most,Half,None,Many,Few,All,Less than half,More than half,Some,0.004123264,0.302860243,1,0,0,QQQ4,,,,,,,,English,2020-06-16_15h38.15.681,Experiment_English,3.2.4,MacIntel,60,,,1,0,340,333,1,339,ratio91_18_20_6.png,,,,,,,,,,,,
,,,,,,,,,,,,All,Most,Half,More than half,Many,Less than half,Some,Few,None,0.475525174,0.322274306,1,0,0,QQQ1,,,,,,,,English,2020-06-16_15h38.15.681,Experiment_English,3.2.4,MacIntel,60,,,1,0,340,50,1,339,ratioX0_12_12_3.png,,,,,,,,,,,,
,,,,,,,,,,,,Half,Less than half,None,Few,Many,Most,Some,All,More than half,0.151497396,0.032313368,1,0,0,QQQ5,,,,,,,,English,2020-06-16_15h38.15.681,Experiment_English,3.2.4,MacIntel,60,,,1,0,340,330,1,339,ratio91_18_20_2.png,,,,,,,,,,,,
,,,,,,,,,,,,Many,Half,All,Most,Less than half,Some,More than half,None,Few,0.070269097,0.324487847,1,0,0,QQQ4,,,,,,,,English,2020-06-16_15h38.15.681,Experiment_English,3.2.4,MacIntel,60,,,1,0,340,279,1,339,ratio41_16_20_10.png,,,,,,,,,,,,
,,,,,,,,,,,,More than half,Many,None,Half,Some,Less than half,Most,All,Few,0.524826389,0.292118056,1,0,0,QQQ1,,,,,,,,English,2020-06-16_15h38.15.681,Experiment_English,3.2.4,MacIntel,60,,,1,0,340,317,1,339,ratio51_15_18_13.png,,,,,,,,,,,,
,,,,,,,,,,,,All,Many,Half,None,Most,Few,Less than half,More than half,Some,0.076028646,0.262230903,1,0,0,QQQ4,,,,,,,,English,2020-06-16_15h38.15.681,Experiment_English,3.2.4,MacIntel,60,,,1,0,340,61,1,339,ratio0Y_0_4_7.png,,,,,,,,,,,,
,,,,,,,,,,,,All,Few,Half,None,Most,Less than half,More than half,Some,Many,0.0365625,0.023411458,1,0,0,QQQ5,,,,,,,,English,2020-06-16_15h38.15.681,Experiment_English,3.2.4,MacIntel,60,,,1,0,340,286,1,339,ratio43_4_7_15.png,,,,,,,,,,,,
,,,,,,,,,,,,Most,All,Half,More than half,None,Less than half,Many,Few,Some,-0.46047309,0.064266493,1,0,0,QQQ8,,,,,,,,English,2020-06-16_15h38.15.681,Experiment_English,3.2.4,MacIntel,60,,,1,0,340,9,1,339,ratio12_3_9_5.png,,,,,,,,,,,,
,,,,,,,,,,,,Many,Few,More than half,Most,All,Less than half,None,Half,Some,-0.458763021,-0.01516059,1,0,0,QQQ8,,,,,,,,English,2020-06-16_15h38.15.681,Experiment_English,3.2.4,MacIntel,60,,,1,0,340,290,1,339,ratio43_8_14_3.png,,,,,,,,,,,,
,,,,,,,,,,,,None,Half,Most,More than half,Many,Some,Few,Less than half,All,-0.449943576,-0.024544271,1,0,0,QQQ8,,,,,,,,English,2020-06-16_15h38.15.681,Experiment_English,3.2.4,MacIntel,60,,,1,0,340,132,1,339,ratio15_2_12_16.png,,,,,,,,,,,,
,,,,,,,,,,,,Less than half,None,More than half,Most,Many,All,Some,Half,Few,-0.404314236,0.338528646,1,0,0,QQQ7,,,,,,,,English,2020-06-16_15h38.15.681,Experiment_English,3.2.4,MacIntel,60,,,1,0,340,109,1,339,ratio14_2_10_9.png,,,,,,,,,,,,
,,,,,,,,,,,,Many,Some,Less than half,All,Most,Few,More than half,None,Half,-0.070338542,-0.258585069,1,0,0,QQQ6,,,,,,,,English,2020-06-16_15h38.15.681,Experiment_English,3.2.4,MacIntel,60,,,1,0,340,3,1,339,ratio12_2_6_3.png,,,,,,,,,,,,
,,,,,,,,,,,,Some,Less than half,Half,More than half,All,None,Many,Most,Few,0.522539063,-0.025924479,1,0,0,QQQ2,,,,,,,,English,2020-06-16_15h38.15.681,Experiment_English,3.2.4,MacIntel,60,,,1,0,340,14,1,339,ratio12_5_15_4.png,,,,,,,,,,,,
,,,,,,,,,,,,None,More than half,Few,Many,Less than half,All,Most,Some,Half,0.526757812,0.259861111,1,0,0,QQQ1,,,,,,,,English,2020-06-16_15h38.15.681,Experiment_English,3.2.4,MacIntel,60,,,1,0,340,40,1,339,ratioX0_3_3_5.png,,,,,,,,,,,,
,,,,,,,,,,,,Most,More than half,Many,None,All,Few,Half,Some,Less than half,-0.018498264,0.285026042,1,0,0,QQQ4,,,,,,,,English,2020-06-16_15h38.15.681,Experiment_English,3.2.4,MacIntel,60,,,1,0,340,141,1,339,ratio19_1_10_2.png,,,,,,,,,,,,
,,,,,,,,,,,,More than half,None,Less than half,Many,Few,Half,Some,Most,All,-0.433767361,-0.295416667,1,0,0,QQQ9,,,,,,,,English,2020-06-16_15h38.15.681,Experiment_English,3.2.4,MacIntel,60,,,1,0,340,41,1,339,ratioX0_4_4_9.png,,,,,,,,,,,,
,,,,,,,,,,,,Some,Many,Less than half,Few,More than half,Most,None,All,Half,-0.054596354,-0.009127604,1,0,0,QQQ5,,,,,,,,English,2020-06-16_15h38.15.681,Experiment_English,3.2.4,MacIntel,60,,,1,0,340,294,1,339,ratio43_8_14_9.png,,,,,,,,,,,,
,,,,,,,,,,,,Less than half,All,Half,Some,More than half,Many,Few,Most,None,-0.366080729,-0.224605035,1,0,0,QQQ9,,,,,,,,English,2020-06-16_15h38.15.681,Experiment_English,3.2.4,MacIntel,60,,,1,0,340,77,1,339,ratio0Y_0_18_3.png,,,,,,,,,,,,
,,,,,,,,,,,,None,More than half,Most,Few,Many,Less than half,Some,All,Half,-0.025299479,0.309032118,1,0,0,QQQ4,,,,,,,,English,2020-06-16_15h38.15.681,Experiment_English,3.2.4,MacIntel,60,,,1,0,340,100,1,339,ratio14_1_5_3.png,,,,,,,,,,,,
,,,,,,,,,,,,Few,Some,None,Many,Most,More than half,Less than half,All,Half,-0.026293403,0.294765625,1,0,0,QQQ4,,,,,,,,English,2020-06-16_15h38.15.681,Experiment_English,3.2.4,MacIntel,60,,,1,0,340,291,1,339,ratio43_8_14_5.png,,,,,,,,,,,,
,,,,,,,,,,,,More than half,All,Few,None,Less than half,Most,Half,Many,Some,0.399969618,0.221228299,1,0,0,QQQ1,,,,,,,,English,2020-06-16_15h38.15.681,Experiment_English,3.2.4,MacIntel,60,,,1,0,340,229,1,339,ratio32_6_10_9.png,,,,,,,,,,,,
,,,,,,,,,,,,None,Some,Few,Half,Many,Less than half,All,Most,More than half,0.095091146,0.298016493,1,0,0,QQQ4,,,,,,,,English,2020-06-16_15h38.15.681,Experiment_English,3.2.4,MacIntel,60,,,1,0,340,121,1,339,ratio15_1_6_4.png,,,,,,,,,,,,
,,,,,,,,,,,,None,Some,More than half,Less than half,Many,All,Few,Half,Most,0.086701389,0.282990451,1,0,0,QQQ4,,,,,,,,English,2020-06-16_15h38.15.681,Experiment_English,3.2.4,MacIntel,60,,,1,0,340,192,1,339,ratio23_6_15_8.png,,,,,,,,,,,,
,,,,,,,,,,,,Few,Some,Many,All,Most,None,More than half,Half,Less than half,-0.018029514,-0.041210938,1,0,0,QQQ5,,,,,,,,English,2020-06-16_15h38.15.681,Experiment_English,3.2.4,MacIntel,60,,,1,0,340,167,1,339,ratio21_6_9_2.png,,,,,,,,,,,,
,,,,,,,,,,,,Most,All,More than half,Less than half,None,Many,Some,Half,Few,-0.454852431,0.040282118,1,0,0,QQQ8,,,,,,,,English,2020-06-16_15h38.15.681,Experiment_English,3.2.4,MacIntel,60,,,1,0,340,137,1,339,ratio15_3_18_16.png,,,,,,,,,,,,
,,,,,,,,,,,,Few,All,Most,Some,Many,None,More than half,Half,Less than half,-0.435390625,0.251627604,1,0,0,QQQ7,,,,,,,,English,2020-06-16_15h38.15.681,Experiment_English,3.2.4,MacIntel,60,,,1,0,340,263,1,339,ratio41_4_5_5.png,,,,,,,,,,,,
,,,,,,,,,,,,Few,Half,All,Most,Many,None,More than half,Some,Less than half,-0.064466146,0.274908854,1,0,0,QQQ4,,,,,,,,English,2020-06-16_15h38.15.681,Experiment_English,3.2.4,MacIntel,60,,,1,0,340,29,1,339,ratio11_6_12_1.png,,,,,,,,,,,,
,,,,,,,,,,,,Less than half,None,Few,More than half,Some,Most,Half,All,Many,-0.064466146,0.280763889,1,0,0,QQQ4,,,,,,,,English,2020-06-16_15h38.15.681,Experiment_English,3.2.4,MacIntel,60,,,1,0,340,270,1,339,ratio41_12_15_3.png,0.358407118,-0.396584201,1,0,0,continue_button_pause,1,0,1,0,1,0
,,,,,,,,,,,,,,,,,,,,,,,,,,,,,,,,,,English,2020-06-16_15h38.15.681,Experiment_English,3.2.4,MacIntel,60,,,1,0,340,270,1,339,ratio41_12_15_3.png,,,,,,,,,,,,
,,,,,,,,,,,,More than half,Less than half,Few,Most,None,Half,Many,Some,All,0.488971354,-0.021644965,1,0,0,QQQ2,,,,,,,,English,2020-06-16_15h38.15.681,Experiment_English,3.2.4,MacIntel,60,,,1,0,340,98,1,339,ratio13_5_20_3.png,,,,,,,,,,,,
,,,,,,,,,,,,Most,Few,All,None,Many,Some,More than half,Half,Less than half,0.50641059,-0.242664931,1,0,0,QQQ3,,,,,,,,English,2020-06-16_15h38.15.681,Experiment_English,3.2.4,MacIntel,60,,,1,0,340,44,1,339,ratioX0_7_7_5.png,,,,,,,,,,,,
,,,,,,,,,,,,Half,Some,All,Most,Less than half,Many,Few,None,More than half,0.080134549,-0.032942708,1,0,0,QQQ5,,,,,,,,English,2020-06-16_15h38.15.681,Experiment_English,3.2.4,MacIntel,60,,,1,0,340,25,1,339,ratio11_4_8_10.png,,,,,,,,,,,,
,,,,,,,,,,,,Many,Half,Less than half,None,Most,All,Few,Some,More than half,-0.525329861,-0.273072917,1,0,0,QQQ9,,,,,,,,English,2020-06-16_15h38.15.681,Experiment_English,3.2.4,MacIntel,60,,,1,0,340,228,1,339,ratio32_6_10_7.png,,,,,,,,,,,,
,,,,,,,,,,,,Most,Some,More than half,All,None,Many,Less than half,Few,Half,0.028511285,-0.054075521,1,0,0,QQQ5,,,,,,,,English,2020-06-16_15h38.15.681,Experiment_English,3.2.4,MacIntel,60,,,1,0,340,153,1,339,ratio19_2_20_8.png,,,,,,,,,,,,
,,,,,,,,,,,,Less than half,Few,More than half,Some,Half,Most,All,None,Many,0.429049479,-0.034045139,1,0,0,QQQ2,,,,,,,,English,2020-06-16_15h38.15.681,Experiment_English,3.2.4,MacIntel,60,,,1,0,340,145,1,339,ratio19_1_10_15.png,,,,,,,,,,,,
,,,,,,,,,,,,Some,All,Half,None,Most,Many,Less than half,More than half,Few,-0.421801215,0.394210069,1,0,0,QQQ7,,,,,,,,English,2020-06-16_15h38.15.681,Experiment_English,3.2.4,MacIntel,60,,,1,0,340,236,1,339,ratio32_12_20_2.png,,,,,,,,,,,,
,,,,,,,,,,,,All,Some,Few,Many,Less than half,None,Most,Half,More than half,-0.487578125,-0.285277778,1,0,0,QQQ9,,,,,,,,English,2020-06-16_15h38.15.681,Experiment_English,3.2.4,MacIntel,60,,,1,0,340,151,1,339,ratio19_2_20_4.png,,,,,,,,,,,,
,,,,,,,,,,,,Half,Some,Less than half,Many,All,Most,None,More than half,Few,-0.425499132,-0.224756944,1,0,0,QQQ9,,,,,,,,English,2020-06-16_15h38.15.681,Experiment_English,3.2.4,MacIntel,60,,,1,0,340,12,1,339,ratio12_4_12_10.png,,,,,,,,,,,,
,,,,,,,,,,,,Many,All,Most,Few,Half,None,More than half,Less than half,Some,0.346193576,-0.335659722,1,0,0,QQQ3,,,,,,,,English,2020-06-16_15h38.15.681,Experiment_English,3.2.4,MacIntel,60,,,1,0,340,226,1,339,ratio32_6_10_5.png,,,,,,,,,,,,
,,,,,,,,,,,,Many,None,All,Less than half,Most,Few,Half,Some,More than half,0.110186632,0.266940104,1,0,0,QQQ4,,,,,,,,English,2020-06-16_15h38.15.681,Experiment_English,3.2.4,MacIntel,60,,,1,0,340,104,1,339,ratio14_1_5_10.png,,,,,,,,,,,,
,,,,,,,,,,,,Many,Most,Few,None,More than half,Less than half,Some,Half,All,-0.010195312,0.261649306,1,0,0,QQQ4,,,,,,,,English,2020-06-16_15h38.15.681,Experiment_English,3.2.4,MacIntel,60,,,1,0,340,62,1,339,ratio0Y_0_5_4.png,,,,,,,,,,,,
,,,,,,,,,,,,Few,All,Less than half,Many,Most,More than half,Half,None,Some,0.427877604,0.227131076,1,0,0,QQQ1,,,,,,,,English,2020-06-16_15h38.15.681,Experiment_English,3.2.4,MacIntel,60,,,1,0,340,138,1,339,ratio15_3_18_17.png,,,,,,,,,,,,
,,,,,,,,,,,,Less than half,All,Some,Most,None,More than half,Few,Half,Many,-0.114114583,0.253454861,1,0,0,QQQ4,,,,,,,,English,2020-06-16_15h38.15.681,Experiment_English,3.2.4,MacIntel,60,,,1,0,340,339,1,339,ratio91_18_20_19.png,,,,,,,,,,,,
,,,,,,,,,,,,None,More than half,Few,Half,Many,Less than half,Most,All,Some,0.050091146,0.28343316,1,0,0,QQQ4,,,,,,,,English,2020-06-16_15h38.15.681,Experiment_English,3.2.4,MacIntel,60,,,1,0,340,28,1,339,ratio11_5_10_9.png,,,,,,,,,,,,
,,,,,,,,,,,,Few,Less than half,Half,None,All,Some,More than half,Most,Many,-0.479314236,0.091067708,1,0,0,QQQ8,,,,,,,,English,2020-06-16_15h38.15.681,Experiment_English,3.2.4,MacIntel,60,,,1,0,340,163,1,339,ratio21_4_6_1.png,,,,,,,,,,,,
,,,,,,,,,,,,Many,All,Few,Most,Half,Some,None,Less than half,More than half,0.005368924,-0.090277778,1,0,0,QQQ5,,,,,,,,English,2020-06-16_15h38.15.681,Experiment_English,3.2.4,MacIntel,60,,,1,0,340,36,1,339,ratio11_9_18_1.png,,,,,,,,,,,,
,,,,,,,,,,,,Many,None,Less than half,Few,Most,More than half,All,Half,Some,0.04124566,-0.000681424,1,0,0,QQQ5,,,,,,,,English,2020-06-16_15h38.15.681,Experiment_English,3.2.4,MacIntel,60,,,1,0,340,266,1,339,ratio41_8_10_2.png,,,,,,,,,,,,
,,,,,,,,,,,,Less than half,Most,None,Half,Many,Some,All,More than half,Few,0.043823785,-0.008185764,1,0,0,QQQ5,,,,,,,,English,2020-06-16_15h38.15.681,Experiment_English,3.2.4,MacIntel,60,,,1,0,340,134,1,339,ratio15_3_18_5.png,,,,,,,,,,,,
,,,,,,,,,,,,Many,All,Less than half,Few,Half,None,More than half,Most,Some,0.047322049,-0.017269965,1,0,0,QQQ5,,,,,,,,English,2020-06-16_15h38.15.681,Experiment_English,3.2.4,MacIntel,60,,,1,0,340,296,1,339,ratio43_8_14_12.png,,,,,,,,,,,,
,,,,,,,,,,,,More than half,None,Many,Some,Half,Less than half,Few,All,Most,0.047894965,-0.020460069,1,0,0,QQQ5,,,,,,,,English,2020-06-16_15h38.15.681,Experiment_English,3.2.4,MacIntel,60,,,1,0,340,135,1,339,ratio15_3_18_7.png,,,,,,,,,,,,
,,,,,,,,,,,,Less than half,Half,All,None,Few,Most,Some,Many,More than half,0.048181424,-0.024353299,1,0,0,QQQ5,,,,,,,,English,2020-06-16_15h38.15.681,Experiment_English,3.2.4,MacIntel,60,,,1,0,340,196,1,339,ratio23_8_20_5.png,,,,,,,,,,,,
,,,,,,,,,,,,More than half,Half,Some,Less than half,All,Most,None,Many,Few,0.04921441,-0.027048611,1,0,0,QQQ5,,,,,,,,English,2020-06-16_15h38.15.681,Experiment_English,3.2.4,MacIntel,60,,,1,0,340,127,1,339,ratio15_2_12_2.png,,,,,,,,,,,,
,,,,,,,,,,,,Many,Half,None,Less than half,All,Few,Most,Some,More than half,0.049500868,-0.030260417,1,0,0,QQQ5,,,,,,,,English,2020-06-16_15h38.15.681,Experiment_English,3.2.4,MacIntel,60,,,1,0,340,239,1,339,ratio32_12_20_10.png,,,,,,,,,,,,
,,,,,,,,,,,,None,All,Most,Less than half,Some,More than half,Many,Few,Half,0.051310764,-0.038498264,1,0,0,QQQ5,,,,,,,,English,2020-06-16_15h38.15.681,Experiment_English,3.2.4,MacIntel,60,,,1,0,340,207,1,339,ratio31_6_8_9.png,,,,,,,,,,,,
,,,,,,,,,,,,Half,Many,More than half,None,Most,Some,Less than half,All,Few,0.051310764,-0.042586806,1,0,0,QQQ5,,,,,,,,English,2020-06-16_15h38.15.681,Experiment_English,3.2.4,MacIntel,60,,,1,0,340,214,1,339,ratio31_12_16_5.png,,,,,,,,,,,,
,,,,,,,,,,,,Less than half,Few,Half,Most,Many,All,None,More than half,Some,0.053272569,-0.051927083,1,0,0,QQQ5,,,,,,,,English,2020-06-16_15h38.15.681,Experiment_English,3.2.4,MacIntel,60,,,1,0,340,217,1,339,ratio31_15_20_5.png,,,,,,,,,,,,
,,,,,,,,,,,,Some,Less than half,Few,All,Many,Most,More than half,Half,None,0.053559028,-0.061475694,1,0,0,QQQ5,,,,,,,,English,2020-06-16_15h38.15.681,Experiment_English,3.2.4,MacIntel,60,,,1,0,340,314,1,339,ratio51_15_18_4.png,,,,,,,,,,,,
,,,,,,,,,,,,Some,Most,Less than half,Half,Few,Many,All,None,More than half,0.053559028,-0.067790799,1,0,0,QQQ5,,,,,,,,English,2020-06-16_15h38.15.681,Experiment_English,3.2.4,MacIntel,60,,,1,0,340,86,1,339,ratio13_2_8_6.png,,,,,,,,,,,,
,,,,,,,,,,,,Some,None,Many,More than half,Less than half,Most,All,Half,Few,0.053237847,-0.072161458,1,0,0,QQQ5,,,,,,,,English,2020-06-16_15h38.15.681,Experiment_English,3.2.4,MacIntel,60,,,1,0,340,158,1,339,ratio19_2_20_17.png,,,,,,,,,,,,
,,,,,,,,,,,,Half,Some,Less than half,More than half,All,Most,Few,None,Many,0.053237847,-0.076176215,1,0,0,QQQ5,,,,,,,,English,2020-06-16_15h38.15.681,Experiment_English,3.2.4,MacIntel,60,,,1,0,340,194,1,339,ratio23_6_15_10.png,,,,,,,,,,,,
,,,,,,,,,,,,Many,Few,All,More than half,None,Most,Half,Less than half,Some,0.048355035,-0.066336806,1,0,0,QQQ5,,,,,,,,English,2020-06-16_15h38.15.681,Experiment_English,3.2.4,MacIntel,60,,,1,0,340,90,1,339,ratio13_3_12_7.png,,,,,,,,,,,,
,,,,,,,,,,,,Many,Half,All,Few,More than half,None,Less than half,Some,Most,0.422131076,-0.037842882,1,0,0,QQQ2,,,,,,,,English,2020-06-16_15h38.15.681,Experiment_English,3.2.4,MacIntel,60,,,1,0,340,284,1,339,ratio43_4_7_11.png,,,,,,,,,,,,
,,,,,,,,,,,,None,Less than half,Most,All,Half,Few,More than half,Some,Many,0.484110243,0.234205729,1,0,0,QQQ1,,,,,,,,English,2020-06-16_15h38.15.681,Experiment_English,3.2.4,MacIntel,60,,,1,0,340,256,1,339,ratio34_6_14_11.png,0.318962674,-0.428359375,1,0,0,continue_button_pause,1,0,1,0,1,0
,,,,,,,,,,,,,,,,,,,,,,,,,,,,,,,,,,English,2020-06-16_15h38.15.681,Experiment_English,3.2.4,MacIntel,60,,,1,0,340,256,1,339,ratio34_6_14_11.png,,,,,,,,,,,,
,,,,,,,,,,,,More than half,Few,Most,Half,Many,Some,None,Less than half,All,-0.443936632,-0.027274306,1,0,0,QQQ8,,,,,,,,English,2020-06-16_15h38.15.681,Experiment_English,3.2.4,MacIntel,60,,,1,0,340,94,1,339,ratio13_4_16_8.png,,,,,,,,,,,,
,,,,,,,,,,,,Half,All,Many,Most,Less than half,More than half,Some,None,Few,0.037013889,-0.022795139,1,0,0,QQQ5,,,,,,,,English,2020-06-16_15h38.15.681,Experiment_English,3.2.4,MacIntel,60,,,1,0,340,166,1,339,ratio21_6_9_1.png,,,,,,,,,,,,
,,,,,,,,,,,,Some,None,Many,Less than half,Few,Most,All,More than half,Half,0.037013889,-0.020742187,1,0,0,QQQ5,,,,,,,,English,2020-06-16_15h38.15.681,Experiment_English,3.2.4,MacIntel,60,,,1,0,340,7,1,339,ratio12_3_9_2.png,,,,,,,,,,,,
,,,,,,,,,,,,All,Half,Less than half,Most,Many,Some,Few,More than half,None,0.051115451,-0.366189236,1,0,0,QQQ6,,,,,,,,English,2020-06-16_15h38.15.681,Experiment_English,3.2.4,MacIntel,60,,,1,0,340,133,1,339,ratio15_3_18_3.png,,,,,,,,,,,,
,,,,,,,,,,,,Half,Less than half,None,Some,Most,More than half,All,Few,Many,-0.368706597,-0.047873264,1,0,0,QQQ8,,,,,,,,English,2020-06-16_15h38.15.681,Experiment_English,3.2.4,MacIntel,60,,,1,0,340,156,1,339,ratio19_2_20_14.png,,,,,,,,,,,,
,,,,,,,,,,,,All,Half,Some,None,More than half,Many,Less than half,Most,Few,-0.373658854,0.086440972,1,0,0,QQQ8,,,,,,,,English,2020-06-16_15h38.15.681,Experiment_English,3.2.4,MacIntel,60,,,1,0,340,136,1,339,ratio15_3_18_8.png,,,,,,,,,,,,
,,,,,,,,,,,,Less than half,Most,Some,Half,Many,More than half,Few,All,None,-0.01734809,-0.072300347,1,0,0,QQQ5,,,,,,,,English,2020-06-16_15h38.15.681,Experiment_English,3.2.4,MacIntel,60,,,1,0,340,205,1,339,ratio31_6_8_2.png,,,,,,,,,,,,
,,,,,,,,,,,,Some,Most,Half,More than half,Few,All,Less than half,None,Many,-0.01734809,-0.072300347,1,0,0,QQQ5,,,,,,,,English,2020-06-16_15h38.15.681,Experiment_English,3.2.4,MacIntel,60,,,1,0,340,160,1,339,ratio21_2_3_2.png,,,,,,,,,,,,
,,,,,,,,,,,,All,None,Most,Many,More than half,Some,Half,Few,Less than half,-0.01734809,-0.072300347,1,0,0,QQQ5,,,,,,,,English,2020-06-16_15h38.15.681,Experiment_English,3.2.4,MacIntel,60,,,1,0,340,92,1,339,ratio13_4_16_3.png,,,,,,,,,,,,
,,,,,,,,,,,,Half,Few,Most,Some,None,More than half,All,Many,Less than half,-0.01734809,-0.072300347,1,0,0,QQQ5,,,,,,,,English,2020-06-16_15h38.15.681,Experiment_English,3.2.4,MacIntel,60,,,1,0,340,200,1,339,ratio31_3_4_4.png,,,,,,,,,,,,
,,,,,,,,,,,,More than half,Less than half,Many,Some,None,Half,Most,All,Few,-0.01734809,-0.072300347,1,0,0,QQQ5,,,,,,,,English,2020-06-16_15h38.15.681,Experiment_English,3.2.4,MacIntel,60,,,1,0,340,71,1,339,ratio0Y_0_12_10.png,,,,,,,,,,,,
,,,,,,,,,,,,More than half,Less than half,None,All,Most,Many,Half,Some,Few,-0.01734809,-0.072300347,1,0,0,QQQ5,,,,,,,,English,2020-06-16_15h38.15.681,Experiment_English,3.2.4,MacIntel,60,,,1,0,340,268,1,339,ratio41_8_10_5.png,,,,,,,,,,,,
,,,,,,,,,,,,Many,Half,More than half,Some,Most,None,Few,All,Less than half,-0.01734809,-0.072300347,1,0,0,QQQ5,,,,,,,,English,2020-06-16_15h38.15.681,Experiment_English,3.2.4,MacIntel,60,,,1,0,340,173,1,339,ratio21_8_12_9.png,,,,,,,,,,,,
,,,,,,,,,,,,Half,Many,Most,Less than half,Few,More than half,Some,None,All,-0.008849826,-0.079882812,1,0,0,QQQ5,,,,,,,,English,2020-06-16_15h38.15.681,Experiment_English,3.2.4,MacIntel,60,,,1,0,340,26,1,339,ratio11_5_10_4.png,,,,,,,,,,,,
,,,,,,,,,,,,None,Less than half,Some,Few,Many,More than half,Most,Half,All,-0.008849826,-0.079882812,1,0,0,QQQ5,,,,,,,,English,2020-06-16_15h38.15.681,Experiment_English,3.2.4,MacIntel,60,,,1,0,340,282,1,339,ratio43_4_7_7.png,,,,,,,,,,,,
,,,,,,,,,,,,Half,Many,Few,More than half,Most,None,Some,All,Less than half,-0.450421007,-0.074014757,1,0,0,QQQ8,,,,,,,,English,2020-06-16_15h38.15.681,Experiment_English,3.2.4,MacIntel,60,,,1,0,340,52,1,339,ratioX0_13_13_10.png,,,,,,,,,,,,
,,,,,,,,,,,,Few,All,Many,Less than half,Most,Half,Some,More than half,None,-0.110763889,-0.052942708,1,0,0,QQQ5,,,,,,,,English,2020-06-16_15h38.15.681,Experiment_English,3.2.4,MacIntel,60,,,1,0,340,30,1,339,ratio11_6_12_6.png,,,,,,,,,,,,
,,,,,,,,,,,,Some,Less than half,None,Few,More than half,Half,Many,Most,All,0.012621528,0.244648438,1,0,0,QQQ4,,,,,,,,English,2020-06-16_15h38.15.681,Experiment_English,3.2.4,MacIntel,60,,,1,0,340,283,1,339,ratio43_4_7_8.png,,,,,,,,,,,,
,,,,,,,,,,,,None,Less than half,Many,Few,Half,More than half,Most,All,Some,0.035295139,0.024674479,1,0,0,QQQ5,,,,,,,,English,2020-06-16_15h38.15.681,Experiment_English,3.2.4,MacIntel,60,,,1,0,340,258,1,339,ratio34_6_14_14.png,,,,,,,,,,,,
,,,,,,,,,,,,None,Few,More than half,Some,Less than half,Most,All,Half,Many,0.423858507,0.016419271,1,0,0,QQQ2,,,,,,,,English,2020-06-16_15h38.15.681,Experiment_English,3.2.4,MacIntel,60,,,1,0,340,106,1,339,ratio14_2_10_2.png,,,,,,,,,,,,
,,,,,,,,,,,,Half,Some,Most,All,Few,Many,More than half,Less than half,None,-0.018489583,-0.016627604,1,0,0,QQQ5,,,,,,,,English,2020-06-16_15h38.15.681,Experiment_English,3.2.4,MacIntel,60,,,1,0,340,203,1,339,ratio31_3_4_9.png,,,,,,,,,,,,
,,,,,,,,,,,,Few,Less than half,Half,Some,More than half,Most,None,Many,All,0.509375,0.294457465,1,0,0,QQQ1,,,,,,,,English,2020-06-16_15h38.15.681,Experiment_English,3.2.4,MacIntel,60,,,1,0,340,117,1,339,ratio14_4_20_6.png,,,,,,,,,,,,
,,,,,,,,,,,,Some,More than half,All,Half,Many,Few,Less than half,Most,None,0.534496528,0.25781684,1,0,0,QQQ1,,,,,,,,English,2020-06-16_15h38.15.681,Experiment_English,3.2.4,MacIntel,60,,,1,0,340,116,1,339,ratio14_4_20_3.png,,,,,,,,,,,,
,,,,,,,,,,,,Most,None,Less than half,More than half,Few,All,Some,Many,Half,0.534496528,0.256744792,1,0,0,QQQ1,,,,,,,,English,2020-06-16_15h38.15.681,Experiment_English,3.2.4,MacIntel,60,,,1,0,340,80,1,339,ratio13_1_4_3.png,,,,,,,,,,,,
,,,,,,,,,,,,Few,Most,Less than half,More than half,None,Many,Some,All,Half,-0.463776042,0.305846354,1,0,0,QQQ7,,,,,,,,English,2020-06-16_15h38.15.681,Experiment_English,3.2.4,MacIntel,60,,,1,0,340,204,1,339,ratio31_6_8_1.png,,,,,,,,,,,,
,,,,,,,,,,,,Some,Many,Half,None,Few,Most,Less than half,All,More than half,0.507456597,0.258611111,1,0,0,QQQ1,,,,,,,,English,2020-06-16_15h38.15.681,Experiment_English,3.2.4,MacIntel,60,,,1,0,340,336,1,339,ratio91_18_20_12.png,,,,,,,,,,,,
,,,,,,,,,,,,Few,All,None,Half,More than half,Less than half,Many,Some,Most,-0.572269965,0.003888889,1,0,0,QQQ8,,,,,,,,English,2020-06-16_15h38.15.681,Experiment_English,3.2.4,MacIntel,60,,,1,0,340,249,1,339,ratio34_3_7_20.png,,,,,,,,,,,,
,,,,,,,,,,,,Half,Many,All,None,More than half,Some,Few,Less than half,Most,0.0403125,-0.29203559,1,0,0,QQQ6,,,,,,,,English,2020-06-16_15h38.15.681,Experiment_English,3.2.4,MacIntel,60,,,1,0,340,227,1,339,ratio32_6_10_6.png,,,,,,,,,,,,
,,,,,,,,,,,,Many,Half,Some,Less than half,Few,More than half,All,None,Most,0.477061632,-0.377326389,1,0,0,QQQ3,,,,,,,,English,2020-06-16_15h38.15.681,Experiment_English,3.2.4,MacIntel,60,,,1,0,340,265,1,339,ratio41_8_10_1.png,,,,,,,,,,,,
,,,,,,,,,,,,Few,Less than half,Many,More than half,All,Some,Half,None,Most,0.146210937,-0.322044271,1,0,0,QQQ6,,,,,,,,English,2020-06-16_15h38.15.681,Experiment_English,3.2.4,MacIntel,60,,,1,0,340,324,1,339,ratio91_9_10_7.png,,,,,,,,,,,,
,,,,,,,,,,,,Few,Some,Many,Most,More than half,Less than half,Half,None,All,0.452756076,-0.053068576,1,0,0,QQQ2,,,,,,,,English,2020-06-16_15h38.15.681,Experiment_English,3.2.4,MacIntel,60,,,1,0,340,88,1,339,ratio13_3_12_5.png,,,,,,,,,,,,
,,,,,,,,,,,,All,Some,Few,None,Most,Less than half,Many,More than half,Half,0.452756076,-0.050212674,1,0,0,QQQ2,,,,,,,,English,2020-06-16_15h38.15.681,Experiment_English,3.2.4,MacIntel,60,,,1,0,340,219,1,339,ratio31_15_20_10.png,,,,,,,,,,,,
,,,,,,,,,,,,Most,Less than half,Few,Half,Some,All,More than half,Many,None,0.452756076,-0.049574653,1,0,0,QQQ2,,,,,,,,English,2020-06-16_15h38.15.681,Experiment_English,3.2.4,MacIntel,60,,,1,0,340,27,1,339,ratio11_5_10_7.png,,,,,,,,,,,,
,,,,,,,,,,,,Half,Few,All,Most,Less than half,More than half,None,Some,Many,-0.017378472,0.032925347,1,0,0,QQQ5,,,,,,,,English,2020-06-16_15h38.15.681,Experiment_English,3.2.4,MacIntel,60,,,1,0,340,84,1,339,ratio13_2_8_1.png,,,,,,,,,,,,
