continue_mouse.x,continue_mouse.y,continue_mouse.leftButton,continue_mouse.midButton,continue_mouse.rightButton,continue_mouse.clicked_name,continue_mouse_2.x,continue_mouse_2.y,continue_mouse_2.leftButton,continue_mouse_2.midButton,continue_mouse_2.rightButton,continue_mouse_2.clicked_name,Q1,Q2,Q3,Q4,Q5,Q6,Q7,Q8,Q9,select_answer.x,select_answer.y,select_answer.leftButton,select_answer.midButton,select_answer.rightButton,select_answer.clicked_name,trial.thisRepN,trial.thisTrialN,trial.thisN,trial.thisIndex,trial.ran,trial.order,trials,Native tongue*,date,expName,psychopyVersion,OS,frameRate,key_resp.keys,key_resp.rt,Actual_Experiment.thisRepN,Actual_Experiment.thisTrialN,Actual_Experiment.thisN,Actual_Experiment.thisIndex,Actual_Experiment.ran,Actual_Experiment.order,Pic,mouse_pause.x,mouse_pause.y,mouse_pause.leftButton,mouse_pause.midButton,mouse_pause.rightButton,mouse_pause.clicked_name,pause.thisRepN,pause.thisTrialN,pause.thisN,pause.thisIndex,pause.ran,pause.order
0.318518519,-0.421296296,1,0,0,continue_button,0.349074074,-0.432407407,1,0,0,continue_button_2,All,Few,Some,Many,Most,None,Half,Less than half,More than half,-0.016666667,-0.007407407,1,0,0,QQQ5,1,0,16,5,1,15,ratio32_6_10_2.png,english,2020-06-16_10h40.19.844,Experiment_English,3.2.4,Win32,60,,,,,,,,,,,,,,,,,,,,,
,,,,,,,,,,,,Many,Few,Less than half,Half,All,More than half,Some,Most,None,0.077777778,-0.27037037,1,0,0,QQQ6,1,0,16,9,1,15,ratio19_1_10_8.png,english,2020-06-16_10h40.19.844,Experiment_English,3.2.4,Win32,60,,,,,,,,,,,,,,,,,,,,,
,,,,,,,,,,,,Few,Half,Most,Many,Some,None,More than half,All,Less than half,0.100925926,-0.293518519,1,0,0,QQQ6,1,0,16,11,1,15,ratio14_1_5_7.png,english,2020-06-16_10h40.19.844,Experiment_English,3.2.4,Win32,60,,,,,,,,,,,,,,,,,,,,,
,,,,,,,,,,,,Few,Many,None,Less than half,Some,Most,Half,All,More than half,0.089814815,-0.253703704,1,0,0,QQQ6,1,0,16,2,1,15,ratio43_8_14_19.png,english,2020-06-16_10h40.19.844,Experiment_English,3.2.4,Win32,60,,,,,,,,,,,,,,,,,,,,,
,,,,,,,,,,,,Many,Few,Most,Some,Less than half,More than half,Half,None,All,0.044444444,-0.276851852,1,0,0,QQQ6,1,0,16,6,1,15,ratio31_12_16_7.png,english,2020-06-16_10h40.19.844,Experiment_English,3.2.4,Win32,60,,,,,,,,,,,,,,,,,,,,,
,,,,,,,,,,,,Half,Less than half,Some,All,Few,None,More than half,Most,Many,0.462962963,0.003703704,1,0,0,QQQ2,,,,,,,,english,2020-06-16_10h40.19.844,Experiment_English,3.2.4,Win32,60,b,14.85299993,1,0,340,35,1,339,ratio11_8_16_10.png,,,,,,,,,,,,
,,,,,,,,,,,,Most,Less than half,Few,None,All,Half,Many,Some,More than half,0.408333333,0.294444444,1,0,0,QQQ1,,,,,,,,english,2020-06-16_10h40.19.844,Experiment_English,3.2.4,Win32,60,,,1,0,340,202,1,339,ratio31_3_4_8.png,,,,,,,,,,,,
,,,,,,,,,,,,None,All,Most,Less than half,Few,Many,More than half,Half,Some,0.496296296,0.010185185,1,0,0,QQQ2,,,,,,,,english,2020-06-16_10h40.19.844,Experiment_English,3.2.4,Win32,60,,,1,0,340,63,1,339,ratio0Y_0_6_8.png,,,,,,,,,,,,
,,,,,,,,,,,,Less than half,Many,Some,None,All,More than half,Most,Few,Half,-0.462962963,-0.008333333,1,0,0,QQQ8,,,,,,,,english,2020-06-16_10h40.19.844,Experiment_English,3.2.4,Win32,60,,,1,0,340,80,1,339,ratio13_1_4_3.png,,,,,,,,,,,,
,,,,,,,,,,,,Few,All,Most,None,Many,More than half,Less than half,Some,Half,0.475925926,-0.260185185,1,0,0,QQQ3,,,,,,,,english,2020-06-16_10h40.19.844,Experiment_English,3.2.4,Win32,60,,,1,0,340,297,1,339,ratio43_8_14_13.png,,,,,,,,,,,,
,,,,,,,,,,,,Many,More than half,Half,All,None,Less than half,Most,Few,Some,-0.019444444,-0.243518519,1,0,0,QQQ6,,,,,,,,english,2020-06-16_10h40.19.844,Experiment_English,3.2.4,Win32,60,,,1,0,340,28,1,339,ratio11_5_10_9.png,,,,,,,,,,,,
,,,,,,,,,,,,Few,Some,Many,None,Most,More than half,All,Less than half,Half,-0.440740741,-0.031481481,1,0,0,QQQ8,,,,,,,,english,2020-06-16_10h40.19.844,Experiment_English,3.2.4,Win32,60,,,1,0,340,118,1,339,ratio14_4_20_8.png,,,,,,,,,,,,
,,,,,,,,,,,,Many,Few,Half,More than half,All,Some,Most,Less than half,None,0.494444444,0.049074074,1,0,0,QQQ2,,,,,,,,english,2020-06-16_10h40.19.844,Experiment_English,3.2.4,Win32,60,,,1,0,340,97,1,339,ratio13_5_20_2.png,,,,,,,,,,,,
,,,,,,,,,,,,Less than half,Half,Many,Most,None,All,Few,Some,More than half,0.444444444,-0.007407407,1,0,0,QQQ2,,,,,,,,english,2020-06-16_10h40.19.844,Experiment_English,3.2.4,Win32,60,,,1,0,340,193,1,339,ratio23_6_15_9.png,,,,,,,,,,,,
,,,,,,,,,,,,Most,Less than half,More than half,Few,None,Half,All,Some,Many,0.515740741,0.273148148,1,0,0,QQQ1,,,,,,,,english,2020-06-16_10h40.19.844,Experiment_English,3.2.4,Win32,60,,,1,0,340,307,1,339,ratio51_10_12_1.png,,,,,,,,,,,,
,,,,,,,,,,,,All,None,Many,Few,Most,Less than half,Half,More than half,Some,0.051851852,0.293518519,1,0,0,QQQ4,,,,,,,,english,2020-06-16_10h40.19.844,Experiment_English,3.2.4,Win32,60,,,1,0,340,87,1,339,ratio13_2_8_8.png,,,,,,,,,,,,
,,,,,,,,,,,,Some,Less than half,Few,Half,Most,Many,All,None,More than half,0.048148148,0.019444444,1,0,0,QQQ5,,,,,,,,english,2020-06-16_10h40.19.844,Experiment_English,3.2.4,Win32,60,,,1,0,340,333,1,339,ratio91_18_20_6.png,,,,,,,,,,,,
,,,,,,,,,,,,All,None,Some,Most,Less than half,Half,Few,More than half,Many,-0.016666667,-0.300925926,1,0,0,QQQ6,,,,,,,,english,2020-06-16_10h40.19.844,Experiment_English,3.2.4,Win32,60,,,1,0,340,13,1,339,ratio12_5_15_3.png,,,,,,,,,,,,
,,,,,,,,,,,,Few,Some,Less than half,Half,None,All,Most,Many,More than half,-0.442592593,-0.052777778,1,0,0,QQQ8,,,,,,,,english,2020-06-16_10h40.19.844,Experiment_English,3.2.4,Win32,60,,,1,0,340,146,1,339,ratio19_1_10_17.png,,,,,,,,,,,,
,,,,,,,,,,,,None,Many,All,Most,Less than half,Few,Some,Half,More than half,-0.447222222,-0.025,1,0,0,QQQ8,,,,,,,,english,2020-06-16_10h40.19.844,Experiment_English,3.2.4,Win32,60,,,1,0,340,295,1,339,ratio43_8_14_11.png,,,,,,,,,,,,
,,,,,,,,,,,,All,Half,Most,Some,Few,Many,None,Less than half,More than half,0.137037037,0.255555556,1,0,0,QQQ4,,,,,,,,english,2020-06-16_10h40.19.844,Experiment_English,3.2.4,Win32,60,,,1,0,340,186,1,339,ratio23_4_10_2.png,,,,,,,,,,,,
,,,,,,,,,,,,Most,None,More than half,Some,Half,Few,Many,All,Less than half,0.432407407,-0.325,1,0,0,QQQ3,,,,,,,,english,2020-06-16_10h40.19.844,Experiment_English,3.2.4,Win32,60,,,1,0,340,172,1,339,ratio21_8_12_6.png,,,,,,,,,,,,
,,,,,,,,,,,,Less than half,Many,Half,None,Most,Some,All,Few,More than half,0.50462963,0.272222222,1,0,0,QQQ1,,,,,,,,english,2020-06-16_10h40.19.844,Experiment_English,3.2.4,Win32,60,,,1,0,340,191,1,339,ratio23_6_15_7.png,,,,,,,,,,,,
,,,,,,,,,,,,Few,All,Many,Most,Less than half,Some,Half,More than half,None,0.437962963,0.275925926,1,0,0,QQQ1,,,,,,,,english,2020-06-16_10h40.19.844,Experiment_English,3.2.4,Win32,60,,,1,0,340,195,1,339,ratio23_8_20_1.png,,,,,,,,,,,,
,,,,,,,,,,,,None,Many,Half,All,More than half,Less than half,Some,Few,Most,0.478703704,0.267592593,1,0,0,QQQ1,,,,,,,,english,2020-06-16_10h40.19.844,Experiment_English,3.2.4,Win32,60,,,1,0,340,14,1,339,ratio12_5_15_4.png,,,,,,,,,,,,
,,,,,,,,,,,,Some,Less than half,None,Few,Most,Many,Half,More than half,All,-0.07962963,0.294444444,1,0,0,QQQ4,,,,,,,,english,2020-06-16_10h40.19.844,Experiment_English,3.2.4,Win32,60,,,1,0,340,238,1,339,ratio32_12_20_9.png,,,,,,,,,,,,
,,,,,,,,,,,,Less than half,None,Half,Most,All,More than half,Some,Many,Few,-0.071296296,0.013888889,1,0,0,QQQ5,,,,,,,,english,2020-06-16_10h40.19.844,Experiment_English,3.2.4,Win32,60,,,1,0,340,40,1,339,ratioX0_3_3_5.png,,,,,,,,,,,,
,,,,,,,,,,,,Many,Most,Half,Some,None,Less than half,More than half,All,Few,-0.440740741,0.316666667,1,0,0,QQQ7,,,,,,,,english,2020-06-16_10h40.19.844,Experiment_English,3.2.4,Win32,60,,,1,0,340,169,1,339,ratio21_6_9_7.png,,,,,,,,,,,,
,,,,,,,,,,,,Few,Most,More than half,Half,All,None,Less than half,Many,Some,-0.421296296,0.285185185,1,0,0,QQQ7,,,,,,,,english,2020-06-16_10h40.19.844,Experiment_English,3.2.4,Win32,60,,,1,0,340,303,1,339,ratio51_5_6_6.png,,,,,,,,,,,,
,,,,,,,,,,,,More than half,Less than half,Few,Some,None,All,Half,Most,Many,0.451851852,0.309259259,1,0,0,QQQ1,,,,,,,,english,2020-06-16_10h40.19.844,Experiment_English,3.2.4,Win32,60,,,1,0,340,296,1,339,ratio43_8_14_12.png,,,,,,,,,,,,
,,,,,,,,,,,,Few,Many,More than half,Half,None,Some,Less than half,All,Most,0.459259259,-0.294444444,1,0,0,QQQ3,,,,,,,,english,2020-06-16_10h40.19.844,Experiment_English,3.2.4,Win32,60,,,1,0,340,215,1,339,ratio31_12_16_8.png,,,,,,,,,,,,
,,,,,,,,,,,,Some,Half,Less than half,More than half,Few,Most,All,None,Many,-0.361111111,-0.252777778,1,0,0,QQQ9,,,,,,,,english,2020-06-16_10h40.19.844,Experiment_English,3.2.4,Win32,60,,,1,0,340,167,1,339,ratio21_6_9_2.png,,,,,,,,,,,,
,,,,,,,,,,,,Many,Half,None,Less than half,Most,More than half,Few,Some,All,-0.368518519,0.246296296,1,0,0,QQQ7,,,,,,,,english,2020-06-16_10h40.19.844,Experiment_English,3.2.4,Win32,60,,,1,0,340,143,1,339,ratio19_1_10_9.png,,,,,,,,,,,,
,,,,,,,,,,,,Few,More than half,Some,Most,None,Many,All,Less than half,Half,-0.039814815,-0.012037037,1,0,0,QQQ5,,,,,,,,english,2020-06-16_10h40.19.844,Experiment_English,3.2.4,Win32,60,,,1,0,340,69,1,339,ratio0Y_0_11_6.png,,,,,,,,,,,,
,,,,,,,,,,,,Few,Half,Less than half,All,Many,More than half,Some,Most,None,-0.451851852,-0.006481481,1,0,0,QQQ8,,,,,,,,english,2020-06-16_10h40.19.844,Experiment_English,3.2.4,Win32,60,,,1,0,340,329,1,339,ratio91_9_10_20.png,,,,,,,,,,,,
,,,,,,,,,,,,Most,Less than half,Some,All,Many,Few,None,More than half,Half,0.10462963,-0.039814815,1,0,0,QQQ5,,,,,,,,english,2020-06-16_10h40.19.844,Experiment_English,3.2.4,Win32,60,,,1,0,340,23,1,339,ratio11_3_6_9.png,,,,,,,,,,,,
,,,,,,,,,,,,All,Less than half,More than half,Many,Half,None,Some,Few,Most,0.443518519,0.281481481,1,0,0,QQQ1,,,,,,,,english,2020-06-16_10h40.19.844,Experiment_English,3.2.4,Win32,60,,,1,0,340,46,1,339,ratioX0_9_9_3.png,,,,,,,,,,,,
,,,,,,,,,,,,Many,More than half,None,Few,All,Half,Less than half,Some,Most,-0.037037037,0.237962963,1,0,0,QQQ4,,,,,,,,english,2020-06-16_10h40.19.844,Experiment_English,3.2.4,Win32,60,,,1,0,340,103,1,339,ratio14_1_5_9.png,,,,,,,,,,,,
,,,,,,,,,,,,Few,Less than half,Many,Some,Most,All,None,More than half,Half,0.371296296,-0.017592593,1,0,0,QQQ2,,,,,,,,english,2020-06-16_10h40.19.844,Experiment_English,3.2.4,Win32,60,,,1,0,340,245,1,339,ratio34_3_7_10.png,0.360185185,-0.392592593,1,0,0,continue_button_pause,1,0,1,0,1,0
,,,,,,,,,,,,,,,,,,,,,,,,,,,,,,,,,,english,2020-06-16_10h40.19.844,Experiment_English,3.2.4,Win32,60,,,1,0,340,245,1,339,ratio34_3_7_10.png,,,,,,,,,,,,
,,,,,,,,,,,,Half,Less than half,None,Many,Most,Some,More than half,All,Few,0.49537037,-0.272222222,1,0,0,QQQ3,,,,,,,,english,2020-06-16_10h40.19.844,Experiment_English,3.2.4,Win32,60,,,1,0,340,77,1,339,ratio0Y_0_18_3.png,,,,,,,,,,,,
,,,,,,,,,,,,Few,Most,Many,Some,More than half,Less than half,None,All,Half,0.476851852,0.022222222,1,0,0,QQQ2,,,,,,,,english,2020-06-16_10h40.19.844,Experiment_English,3.2.4,Win32,60,,,1,0,340,312,1,339,ratio51_10_12_16.png,,,,,,,,,,,,
,,,,,,,,,,,,More than half,All,Many,Few,None,Most,Some,Half,Less than half,0.049074074,0.27037037,1,0,0,QQQ4,,,,,,,,english,2020-06-16_10h40.19.844,Experiment_English,3.2.4,Win32,60,,,1,0,340,139,1,339,ratio15_3_18_20.png,,,,,,,,,,,,
,,,,,,,,,,,,Many,None,More than half,All,Less than half,Some,Half,Most,Few,-0.406481481,-0.321296296,1,0,0,QQQ9,,,,,,,,english,2020-06-16_10h40.19.844,Experiment_English,3.2.4,Win32,60,,,1,0,340,159,1,339,ratio19_2_20_20.png,,,,,,,,,,,,
,,,,,,,,,,,,Many,Less than half,Half,More than half,Most,Few,None,All,Some,-0.052777778,-0.025,1,0,0,QQQ5,,,,,,,,english,2020-06-16_10h40.19.844,Experiment_English,3.2.4,Win32,60,,,1,0,340,301,1,339,ratio51_5_6_4.png,,,,,,,,,,,,
,,,,,,,,,,,,Half,Some,Few,All,Many,More than half,Less than half,Most,None,0.489814815,-0.234259259,1,0,0,QQQ3,,,,,,,,english,2020-06-16_10h40.19.844,Experiment_English,3.2.4,Win32,60,,,1,0,340,120,1,339,ratio15_1_6_1.png,,,,,,,,,,,,
,,,,,,,,,,,,Few,Most,More than half,Half,Some,Less than half,None,Many,All,0.505555556,-0.293518519,1,0,0,QQQ3,,,,,,,,english,2020-06-16_10h40.19.844,Experiment_English,3.2.4,Win32,60,,,1,0,340,226,1,339,ratio32_6_10_5.png,,,,,,,,,,,,
,,,,,,,,,,,,Less than half,Most,Few,None,Many,More than half,All,Half,Some,-0.512962963,-0.276851852,1,0,0,QQQ9,,,,,,,,english,2020-06-16_10h40.19.844,Experiment_English,3.2.4,Win32,60,,,1,0,340,89,1,339,ratio13_3_12_6.png,,,,,,,,,,,,
,,,,,,,,,,,,More than half,Many,Most,Some,Half,All,None,Less than half,Few,0.494444444,0.287037037,1,0,0,QQQ1,,,,,,,,english,2020-06-16_10h40.19.844,Experiment_English,3.2.4,Win32,60,,,1,0,340,293,1,339,ratio43_8_14_7.png,,,,,,,,,,,,
,,,,,,,,,,,,Less than half,More than half,Many,Half,Most,None,Few,All,Some,0.492592593,-0.04537037,1,0,0,QQQ2,,,,,,,,english,2020-06-16_10h40.19.844,Experiment_English,3.2.4,Win32,60,,,1,0,340,282,1,339,ratio43_4_7_7.png,,,,,,,,,,,,
,,,,,,,,,,,,Some,None,Half,Many,Most,More than half,Less than half,Few,All,-0.012962963,-0.262037037,1,0,0,QQQ6,,,,,,,,english,2020-06-16_10h40.19.844,Experiment_English,3.2.4,Win32,60,,,1,0,340,32,1,339,ratio11_7_14_5.png,,,,,,,,,,,,
,,,,,,,,,,,,More than half,Many,None,Less than half,Most,Some,Half,Few,All,-0.390740741,-0.287037037,1,0,0,QQQ9,,,,,,,,english,2020-06-16_10h40.19.844,Experiment_English,3.2.4,Win32,60,,,1,0,340,135,1,339,ratio15_3_18_7.png,,,,,,,,,,,,
,,,,,,,,,,,,Few,None,Many,Some,Half,Less than half,Most,More than half,All,0.516666667,0.261111111,1,0,0,QQQ1,,,,,,,,english,2020-06-16_10h40.19.844,Experiment_English,3.2.4,Win32,60,,,1,0,340,20,1,339,ratio11_2_4_3.png,,,,,,,,,,,,
,,,,,,,,,,,,Most,None,Some,More than half,Half,Few,Less than half,All,Many,0.046296296,-0.301851852,1,0,0,QQQ6,,,,,,,,english,2020-06-16_10h40.19.844,Experiment_English,3.2.4,Win32,60,,,1,0,340,132,1,339,ratio15_2_12_16.png,,,,,,,,,,,,
,,,,,,,,,,,,Many,Most,Half,Some,Less than half,All,More than half,Few,None,-0.023148148,0.031481481,1,0,0,QQQ5,,,,,,,,english,2020-06-16_10h40.19.844,Experiment_English,3.2.4,Win32,60,,,1,0,340,153,1,339,ratio19_2_20_8.png,,,,,,,,,,,,
,,,,,,,,,,,,Few,More than half,Less than half,Half,Some,All,None,Most,Many,0.514814815,0.010185185,1,0,0,QQQ2,,,,,,,,english,2020-06-16_10h40.19.844,Experiment_English,3.2.4,Win32,60,,,1,0,340,208,1,339,ratio31_9_12_3.png,,,,,,,,,,,,
,,,,,,,,,,,,All,Less than half,Half,Many,Few,Some,None,More than half,Most,-0.00462963,-0.05462963,1,0,0,QQQ5,,,,,,,,english,2020-06-16_10h40.19.844,Experiment_English,3.2.4,Win32,60,,,1,0,340,123,1,339,ratio15_1_6_12.png,,,,,,,,,,,,
,,,,,,,,,,,,None,All,Many,Less than half,Half,Some,Few,Most,More than half,0.536111111,-0.025,1,0,0,QQQ2,,,,,,,,english,2020-06-16_10h40.19.844,Experiment_English,3.2.4,Win32,60,,,1,0,340,49,1,339,ratioX0_11_11_2.png,,,,,,,,,,,,
,,,,,,,,,,,,Few,All,Some,Half,Most,More than half,None,Less than half,Many,0.026851852,0.027777778,1,0,0,QQQ5,,,,,,,,english,2020-06-16_10h40.19.844,Experiment_English,3.2.4,Win32,60,,,1,0,340,117,1,339,ratio14_4_20_6.png,,,,,,,,,,,,
,,,,,,,,,,,,Few,All,More than half,Half,Some,Less than half,Most,None,Many,0.462037037,-0.02037037,1,0,0,QQQ2,,,,,,,,english,2020-06-16_10h40.19.844,Experiment_English,3.2.4,Win32,60,,,1,0,340,55,1,339,ratioX0_16_16_3.png,,,,,,,,,,,,
,,,,,,,,,,,,All,Less than half,Few,More than half,Half,None,Many,Some,Most,-0.409259259,-0.284259259,1,0,0,QQQ9,,,,,,,,english,2020-06-16_10h40.19.844,Experiment_English,3.2.4,Win32,60,,,1,0,340,263,1,339,ratio41_4_5_5.png,,,,,,,,,,,,
,,,,,,,,,,,,Many,Most,All,Less than half,None,Half,Some,Few,More than half,0.108333333,0.313888889,1,0,0,QQQ4,,,,,,,,english,2020-06-16_10h40.19.844,Experiment_English,3.2.4,Win32,60,,,1,0,340,31,1,339,ratio11_6_12_9.png,,,,,,,,,,,,
,,,,,,,,,,,,Many,Some,Few,Less than half,Half,None,More than half,All,Most,-0.036111111,0.309259259,1,0,0,QQQ4,,,,,,,,english,2020-06-16_10h40.19.844,Experiment_English,3.2.4,Win32,60,,,1,0,340,188,1,339,ratio23_4_10_6.png,,,,,,,,,,,,
,,,,,,,,,,,,Some,Most,More than half,All,None,Half,Less than half,Few,Many,-0.036111111,0.309259259,1,0,0,QQQ4,,,,,,,,english,2020-06-16_10h40.19.844,Experiment_English,3.2.4,Win32,60,,,1,0,340,196,1,339,ratio23_8_20_5.png,,,,,,,,,,,,
,,,,,,,,,,,,Few,Some,More than half,All,None,Half,Less than half,Most,Many,0.050925926,-0.003703704,1,0,0,QQQ5,,,,,,,,english,2020-06-16_10h40.19.844,Experiment_English,3.2.4,Win32,60,,,1,0,340,66,1,339,ratio0Y_0_9_8.png,,,,,,,,,,,,
,,,,,,,,,,,,Half,None,All,More than half,Many,Some,Less than half,Few,Most,0.037962963,-0.034259259,1,0,0,QQQ5,,,,,,,,english,2020-06-16_10h40.19.844,Experiment_English,3.2.4,Win32,60,,,1,0,340,324,1,339,ratio91_9_10_7.png,,,,,,,,,,,,
,,,,,,,,,,,,Many,Some,More than half,Most,Half,All,Few,None,Less than half,0.487037037,-0.297222222,1,0,0,QQQ3,,,,,,,,english,2020-06-16_10h40.19.844,Experiment_English,3.2.4,Win32,60,,,1,0,340,171,1,339,ratio21_8_12_4.png,,,,,,,,,,,,
,,,,,,,,,,,,Some,Less than half,Few,None,More than half,Many,All,Half,Most,0.469444444,-0.275,1,0,0,QQQ3,,,,,,,,english,2020-06-16_10h40.19.844,Experiment_English,3.2.4,Win32,60,,,1,0,340,124,1,339,ratio15_1_6_16.png,,,,,,,,,,,,
,,,,,,,,,,,,Half,None,Few,More than half,Many,Less than half,Most,Some,All,0.05,-0.016666667,1,0,0,QQQ5,,,,,,,,english,2020-06-16_10h40.19.844,Experiment_English,3.2.4,Win32,60,,,1,0,340,94,1,339,ratio13_4_16_8.png,,,,,,,,,,,,
,,,,,,,,,,,,Less than half,Most,Many,All,More than half,Half,None,Few,Some,0.098148148,-0.031481481,1,0,0,QQQ5,,,,,,,,english,2020-06-16_10h40.19.844,Experiment_English,3.2.4,Win32,60,,,1,0,340,283,1,339,ratio43_4_7_8.png,,,,,,,,,,,,
,,,,,,,,,,,,Many,Some,All,None,Less than half,Half,Most,Few,More than half,0.008333333,-0.00462963,1,0,0,QQQ5,,,,,,,,english,2020-06-16_10h40.19.844,Experiment_English,3.2.4,Win32,60,,,1,0,340,227,1,339,ratio32_6_10_6.png,,,,,,,,,,,,
,,,,,,,,,,,,Less than half,None,Half,All,Some,More than half,Many,Most,Few,-0.39537037,0.30462963,1,0,0,QQQ7,,,,,,,,english,2020-06-16_10h40.19.844,Experiment_English,3.2.4,Win32,60,,,1,0,340,270,1,339,ratio41_12_15_3.png,,,,,,,,,,,,
,,,,,,,,,,,,Many,Half,Less than half,More than half,None,All,Few,Most,Some,0.098148148,0.233333333,1,0,0,QQQ4,,,,,,,,english,2020-06-16_10h40.19.844,Experiment_English,3.2.4,Win32,60,,,1,0,340,284,1,339,ratio43_4_7_11.png,,,,,,,,,,,,
,,,,,,,,,,,,Less than half,Most,Some,Few,None,Half,Many,More than half,All,-0.452777778,-0.013888889,1,0,0,QQQ8,,,,,,,,english,2020-06-16_10h40.19.844,Experiment_English,3.2.4,Win32,60,,,1,0,340,24,1,339,ratio11_4_8_3.png,0.252777778,-0.419444444,1,0,0,continue_button_pause,1,0,1,0,1,0
,,,,,,,,,,,,,,,,,,,,,,,,,,,,,,,,,,english,2020-06-16_10h40.19.844,Experiment_English,3.2.4,Win32,60,,,1,0,340,24,1,339,ratio11_4_8_3.png,,,,,,,,,,,,
,,,,,,,,,,,,All,None,Most,More than half,Some,Half,Many,Few,Less than half,0.112962963,0.314814815,1,0,0,QQQ4,,,,,,,,english,2020-06-16_10h40.19.844,Experiment_English,3.2.4,Win32,60,,,1,0,340,212,1,339,ratio31_12_16_1.png,,,,,,,,,,,,
,,,,,,,,,,,,Few,Some,None,All,Most,Many,More than half,Half,Less than half,0.468518519,-0.263888889,1,0,0,QQQ3,,,,,,,,english,2020-06-16_10h40.19.844,Experiment_English,3.2.4,Win32,60,,,1,0,340,73,1,339,ratio0Y_0_14_7.png,,,,,,,,,,,,
,,,,,,,,,,,,Most,Some,None,Half,More than half,Less than half,All,Many,Few,-0.019444444,0.003703704,1,0,0,QQQ5,,,,,,,,english,2020-06-16_10h40.19.844,Experiment_English,3.2.4,Win32,60,,,1,0,340,210,1,339,ratio31_9_12_9.png,,,,,,,,,,,,
,,,,,,,,,,,,None,Many,Few,Half,Some,Most,All,More than half,Less than half,0.416666667,0.249074074,1,0,0,QQQ1,,,,,,,,english,2020-06-16_10h40.19.844,Experiment_English,3.2.4,Win32,60,,,1,0,340,62,1,339,ratio0Y_0_5_4.png,,,,,,,,,,,,
,,,,,,,,,,,,More than half,Some,Less than half,Half,Few,Many,Most,None,All,-0.012962963,-0.025,1,0,0,QQQ5,,,,,,,,english,2020-06-16_10h40.19.844,Experiment_English,3.2.4,Win32,60,,,1,0,340,105,1,339,ratio14_2_10_1.png,,,,,,,,,,,,
,,,,,,,,,,,,All,More than half,Most,Less than half,None,Many,Few,Some,Half,-0.387037037,-0.035185185,1,0,0,QQQ8,,,,,,,,english,2020-06-16_10h40.19.844,Experiment_English,3.2.4,Win32,60,,,1,0,340,323,1,339,ratio91_9_10_5.png,,,,,,,,,,,,
,,,,,,,,,,,,Many,Most,More than half,Half,None,All,Few,Less than half,Some,-0.455555556,0.015740741,1,0,0,QQQ8,,,,,,,,english,2020-06-16_10h40.19.844,Experiment_English,3.2.4,Win32,60,,,1,0,340,197,1,339,ratio23_8_20_6.png,,,,,,,,,,,,
,,,,,,,,,,,,Most,Half,Less than half,None,Some,All,More than half,Few,Many,0.466666667,-0.319444444,1,0,0,QQQ3,,,,,,,,english,2020-06-16_10h40.19.844,Experiment_English,3.2.4,Win32,60,,,1,0,340,287,1,339,ratio43_4_7_17.png,,,,,,,,,,,,
,,,,,,,,,,,,Few,More than half,All,Most,None,Less than half,Some,Half,Many,-0.45,0.051851852,1,0,0,QQQ8,,,,,,,,english,2020-06-16_10h40.19.844,Experiment_English,3.2.4,Win32,60,,,1,0,340,291,1,339,ratio43_8_14_5.png,,,,,,,,,,,,
,,,,,,,,,,,,Few,Half,All,None,Some,Many,Less than half,Most,More than half,0.425925926,0.231481481,1,0,0,QQQ1,,,,,,,,english,2020-06-16_10h40.19.844,Experiment_English,3.2.4,Win32,60,,,1,0,340,102,1,339,ratio14_1_5_8.png,,,,,,,,,,,,
,,,,,,,,,,,,All,Some,Many,Less than half,Few,Half,None,More than half,Most,-0.494444444,0.012037037,1,0,0,QQQ8,,,,,,,,english,2020-06-16_10h40.19.844,Experiment_English,3.2.4,Win32,60,,,1,0,340,229,1,339,ratio32_6_10_9.png,,,,,,,,,,,,
,,,,,,,,,,,,Few,None,Many,Half,All,More than half,Most,Some,Less than half,0.090740741,-0.260185185,1,0,0,QQQ6,,,,,,,,english,2020-06-16_10h40.19.844,Experiment_English,3.2.4,Win32,60,,,1,0,340,252,1,339,ratio34_6_14_3.png,,,,,,,,,,,,
,,,,,,,,,,,,Many,Most,Some,Half,Few,All,None,More than half,Less than half,-0.561111111,0.05,1,0,0,QQQ8,,,,,,,,english,2020-06-16_10h40.19.844,Experiment_English,3.2.4,Win32,60,,,1,0,340,34,1,339,ratio11_8_16_8.png,,,,,,,,,,,,
,,,,,,,,,,,,All,Many,Most,Few,Some,More than half,None,Less than half,Half,-0.5,-0.014814815,1,0,0,QQQ8,,,,,,,,english,2020-06-16_10h40.19.844,Experiment_English,3.2.4,Win32,60,,,1,0,340,166,1,339,ratio21_6_9_1.png,,,,,,,,,,,,
,,,,,,,,,,,,More than half,None,Some,Few,Less than half,Most,Half,Many,All,-0.426851852,0.264814815,1,0,0,QQQ7,,,,,,,,english,2020-06-16_10h40.19.844,Experiment_English,3.2.4,Win32,60,,,1,0,340,237,1,339,ratio32_12_20_5.png,,,,,,,,,,,,
,,,,,,,,,,,,All,Most,Half,Few,Many,More than half,None,Less than half,Some,0.510185185,0.281481481,1,0,0,QQQ1,,,,,,,,english,2020-06-16_10h40.19.844,Experiment_English,3.2.4,Win32,60,,,1,0,340,43,1,339,ratioX0_6_6_9.png,,,,,,,,,,,,
,,,,,,,,,,,,Half,Few,More than half,All,None,Many,Most,Some,Less than half,-0.452777778,0.298148148,1,0,0,QQQ7,,,,,,,,english,2020-06-16_10h40.19.844,Experiment_English,3.2.4,Win32,60,,,1,0,340,268,1,339,ratio41_8_10_5.png,,,,,,,,,,,,
,,,,,,,,,,,,Many,Some,None,All,Less than half,Most,Half,More than half,Few,-0.425,-0.282407407,1,0,0,QQQ9,,,,,,,,english,2020-06-16_10h40.19.844,Experiment_English,3.2.4,Win32,60,,,1,0,340,149,1,339,ratio19_1_10_20.png,,,,,,,,,,,,
,,,,,,,,,,,,Less than half,All,More than half,Some,Few,Many,Most,Half,None,-0.087037037,-0.04537037,1,0,0,QQQ5,,,,,,,,english,2020-06-16_10h40.19.844,Experiment_English,3.2.4,Win32,60,,,1,0,340,125,1,339,ratio15_1_6_19.png,,,,,,,,,,,,
,,,,,,,,,,,,Less than half,Few,Half,None,More than half,Many,Most,Some,All,0.407407407,0.244444444,1,0,0,QQQ1,,,,,,,,english,2020-06-16_10h40.19.844,Experiment_English,3.2.4,Win32,60,,,1,0,340,253,1,339,ratio34_6_14_5.png,,,,,,,,,,,,
,,,,,,,,,,,,Less than half,Most,Half,Many,All,Few,None,More than half,Some,0.622222222,-0.291666667,1,0,0,QQQ3,,,,,,,,english,2020-06-16_10h40.19.844,Experiment_English,3.2.4,Win32,60,,,1,0,340,37,1,339,ratio11_9_18_8.png,,,,,,,,,,,,
,,,,,,,,,,,,Many,All,Some,Less than half,None,Most,Half,More than half,Few,-0.413888889,0.063888889,1,0,0,QQQ8,,,,,,,,english,2020-06-16_10h40.19.844,Experiment_English,3.2.4,Win32,60,,,1,0,340,280,1,339,ratio43_4_7_2.png,,,,,,,,,,,,
,,,,,,,,,,,,Less than half,None,Half,Some,Most,Many,Few,More than half,All,-0.475925926,-0.264814815,1,0,0,QQQ9,,,,,,,,english,2020-06-16_10h40.19.844,Experiment_English,3.2.4,Win32,60,,,1,0,340,47,1,339,ratioX0_9_9_4.png,,,,,,,,,,,,
,,,,,,,,,,,,Many,More than half,Most,Half,All,Less than half,Few,Some,None,0.561111111,-0.307407407,1,0,0,QQQ3,,,,,,,,english,2020-06-16_10h40.19.844,Experiment_English,3.2.4,Win32,60,,,1,0,340,321,1,339,ratio91_9_10_2.png,,,,,,,,,,,,
,,,,,,,,,,,,Half,Some,Less than half,More than half,Many,Most,None,Few,All,-0.001851852,0.313888889,1,0,0,QQQ4,,,,,,,,english,2020-06-16_10h40.19.844,Experiment_English,3.2.4,Win32,60,,,1,0,340,33,1,339,ratio11_7_14_8.png,,,,,,,,,,,,
,,,,,,,,,,,,None,More than half,Most,All,Some,Many,Less than half,Few,Half,-0.450925926,-0.04537037,1,0,0,QQQ8,,,,,,,,english,2020-06-16_10h40.19.844,Experiment_English,3.2.4,Win32,60,,,1,0,340,5,1,339,ratio12_2_6_9.png,,,,,,,,,,,,
,,,,,,,,,,,,Less than half,Many,Half,Most,Few,Some,More than half,All,None,-0.49537037,0.296296296,1,0,0,QQQ7,,,,,,,,english,2020-06-16_10h40.19.844,Experiment_English,3.2.4,Win32,60,,,1,0,340,239,1,339,ratio32_12_20_10.png,,,,,,,,,,,,
,,,,,,,,,,,,Some,All,More than half,Half,Many,Less than half,None,Most,Few,0.608333333,-0.044444444,1,0,0,QQQ2,,,,,,,,english,2020-06-16_10h40.19.844,Experiment_English,3.2.4,Win32,60,,,1,0,340,53,1,339,ratioX0_14_14_8.png,,,,,,,,,,,,
,,,,,,,,,,,,All,Few,None,Half,Less than half,Many,More than half,Most,Some,-0.444444444,0.287037037,1,0,0,QQQ7,,,,,,,,english,2020-06-16_10h40.19.844,Experiment_English,3.2.4,Win32,60,,,1,0,340,220,1,339,ratio32_3_5_1.png,,,,,,,,,,,,
,,,,,,,,,,,,Few,None,More than half,All,Half,Less than half,Most,Many,Some,-0.023148148,-0.300925926,1,0,0,QQQ6,,,,,,,,english,2020-06-16_10h40.19.844,Experiment_English,3.2.4,Win32,60,,,1,0,340,115,1,339,ratio14_4_20_1.png,,,,,,,,,,,,
,,,,,,,,,,,,All,Many,Some,None,More than half,Half,Most,Less than half,Few,0.642592593,0.272222222,1,0,0,QQQ1,,,,,,,,english,2020-06-16_10h40.19.844,Experiment_English,3.2.4,Win32,60,,,1,0,340,58,1,339,ratioX0_19_19_4.png,,,,,,,,,,,,
,,,,,,,,,,,,Less than half,More than half,Half,Many,Some,None,Most,All,Few,-0.431481481,0.032407407,1,0,0,QQQ8,,,,,,,,english,2020-06-16_10h40.19.844,Experiment_English,3.2.4,Win32,60,,,1,0,340,52,1,339,ratioX0_13_13_10.png,,,,,,,,,,,,
,,,,,,,,,,,,Few,Half,Less than half,None,All,More than half,Many,Most,Some,0.505555556,0.301851852,1,0,0,QQQ1,,,,,,,,english,2020-06-16_10h40.19.844,Experiment_English,3.2.4,Win32,60,,,1,0,340,144,1,339,ratio19_1_10_11.png,,,,,,,,,,,,
,,,,,,,,,,,,None,Few,Most,More than half,Some,Less than half,Many,All,Half,-0.576851852,0.012037037,1,0,0,QQQ8,,,,,,,,english,2020-06-16_10h40.19.844,Experiment_English,3.2.4,Win32,60,,,1,0,340,44,1,339,ratioX0_7_7_5.png,0.325,-0.40462963,1,0,0,continue_button_pause,1,0,1,0,1,0
,,,,,,,,,,,,,,,,,,,,,,,,,,,,,,,,,,english,2020-06-16_10h40.19.844,Experiment_English,3.2.4,Win32,60,,,1,0,340,44,1,339,ratioX0_7_7_5.png,,,,,,,,,,,,
,,,,,,,,,,,,Less than half,Few,Half,More than half,Most,None,Many,All,Some,-0.031481481,-0.036111111,1,0,0,QQQ5,,,,,,,,english,2020-06-16_10h40.19.844,Experiment_English,3.2.4,Win32,60,,,1,0,340,219,1,339,ratio31_15_20_10.png,,,,,,,,,,,,
,,,,,,,,,,,,Some,Many,None,Half,Few,Most,Less than half,More than half,All,-0.537962963,0.315740741,1,0,0,QQQ7,,,,,,,,english,2020-06-16_10h40.19.844,Experiment_English,3.2.4,Win32,60,,,1,0,340,250,1,339,ratio34_6_14_1.png,,,,,,,,,,,,
,,,,,,,,,,,,Most,All,Many,Few,None,Less than half,More than half,Half,Some,0.005555556,-0.319444444,1,0,0,QQQ6,,,,,,,,english,2020-06-16_10h40.19.844,Experiment_English,3.2.4,Win32,60,,,1,0,340,95,1,339,ratio13_4_16_10.png,,,,,,,,,,,,
,,,,,,,,,,,,Some,More than half,Many,Most,None,All,Few,Less than half,Half,-0.453703704,0.302777778,1,0,0,QQQ7,,,,,,,,english,2020-06-16_10h40.19.844,Experiment_English,3.2.4,Win32,60,,,1,0,340,108,1,339,ratio14_2_10_6.png,,,,,,,,,,,,
,,,,,,,,,,,,Many,Some,None,Half,Few,Less than half,Most,All,More than half,-0.042592593,0.058333333,1,0,0,QQQ5,,,,,,,,english,2020-06-16_10h40.19.844,Experiment_English,3.2.4,Win32,60,,,1,0,340,6,1,339,ratio12_3_9_1.png,,,,,,,,,,,,
,,,,,,,,,,,,Less than half,More than half,Few,Most,Some,None,All,Half,Many,-0.472222222,0.002777778,1,0,0,QQQ8,,,,,,,,english,2020-06-16_10h40.19.844,Experiment_English,3.2.4,Win32,60,,,1,0,340,174,1,339,ratio21_10_15_1.png,,,,,,,,,,,,
,,,,,,,,,,,,Half,Few,Some,None,Most,More than half,All,Many,Less than half,0.091666667,0.347222222,1,0,0,QQQ4,,,,,,,,english,2020-06-16_10h40.19.844,Experiment_English,3.2.4,Win32,60,,,1,0,340,79,1,339,ratio0Y_0_20_4.png,,,,,,,,,,,,
,,,,,,,,,,,,Many,More than half,Some,Most,Less than half,None,All,Half,Few,0.082407407,-0.001851852,1,0,0,QQQ5,,,,,,,,english,2020-06-16_10h40.19.844,Experiment_English,3.2.4,Win32,60,,,1,0,340,285,1,339,ratio43_4_7_14.png,,,,,,,,,,,,
,,,,,,,,,,,,Few,Half,Some,All,More than half,None,Less than half,Many,Most,0.373148148,0.27037037,1,0,0,QQQ1,,,,,,,,english,2020-06-16_10h40.19.844,Experiment_English,3.2.4,Win32,60,,,1,0,340,141,1,339,ratio19_1_10_2.png,,,,,,,,,,,,
,,,,,,,,,,,,Many,Most,Less than half,More than half,Few,All,Some,Half,None,-0.473148148,0.049074074,1,0,0,QQQ8,,,,,,,,english,2020-06-16_10h40.19.844,Experiment_English,3.2.4,Win32,60,,,1,0,340,17,1,339,ratio12_6_18_5.png,,,,,,,,,,,,
,,,,,,,,,,,,Less than half,None,More than half,Some,Most,Many,Few,Half,All,0.464814815,0.268518519,1,0,0,QQQ1,,,,,,,,english,2020-06-16_10h40.19.844,Experiment_English,3.2.4,Win32,60,,,1,0,340,129,1,339,ratio15_2_12_9.png,,,,,,,,,,,,
,,,,,,,,,,,,More than half,Most,Less than half,Half,Many,Few,Some,None,All,0.492592593,0.331481481,1,0,0,QQQ1,,,,,,,,english,2020-06-16_10h40.19.844,Experiment_English,3.2.4,Win32,60,,,1,0,340,207,1,339,ratio31_6_8_9.png,,,,,,,,,,,,
,,,,,,,,,,,,Most,All,More than half,Some,None,Many,Less than half,Few,Half,0.456481481,-0.261111111,1,0,0,QQQ3,,,,,,,,english,2020-06-16_10h40.19.844,Experiment_English,3.2.4,Win32,60,,,1,0,340,242,1,339,ratio34_3_7_6.png,,,,,,,,,,,,
,,,,,,,,,,,,All,Most,Many,Half,Some,Few,More than half,Less than half,None,-0.007407407,-0.255555556,1,0,0,QQQ6,,,,,,,,english,2020-06-16_10h40.19.844,Experiment_English,3.2.4,Win32,60,,,1,0,340,142,1,339,ratio19_1_10_6.png,,,,,,,,,,,,
,,,,,,,,,,,,All,Most,Half,Some,Few,Less than half,None,More than half,Many,0.026851852,-0.031481481,1,0,0,QQQ5,,,,,,,,english,2020-06-16_10h40.19.844,Experiment_English,3.2.4,Win32,60,,,1,0,340,182,1,339,ratio23_2_5_7.png,,,,,,,,,,,,
,,,,,,,,,,,,More than half,Most,Some,All,Half,Less than half,Many,None,Few,0.50462963,0.275,1,0,0,QQQ1,,,,,,,,english,2020-06-16_10h40.19.844,Experiment_English,3.2.4,Win32,60,,,1,0,340,332,1,339,ratio91_18_20_4.png,,,,,,,,,,,,
,,,,,,,,,,,,Half,Some,All,None,Less than half,More than half,Few,Many,Most,0.011111111,0.003703704,1,0,0,QQQ5,,,,,,,,english,2020-06-16_10h40.19.844,Experiment_English,3.2.4,Win32,60,,,1,0,340,244,1,339,ratio34_3_7_9.png,,,,,,,,,,,,
,,,,,,,,,,,,All,None,Most,Half,More than half,Few,Less than half,Many,Some,-0.074074074,0.321296296,1,0,0,QQQ4,,,,,,,,english,2020-06-16_10h40.19.844,Experiment_English,3.2.4,Win32,60,,,1,0,340,289,1,339,ratio43_4_7_20.png,,,,,,,,,,,,
,,,,,,,,,,,,Some,All,Few,More than half,Most,Half,Many,Less than half,None,-0.060185185,-0.012962963,1,0,0,QQQ5,,,,,,,,english,2020-06-16_10h40.19.844,Experiment_English,3.2.4,Win32,60,,,1,0,340,294,1,339,ratio43_8_14_9.png,,,,,,,,,,,,
,,,,,,,,,,,,More than half,Some,None,Many,Less than half,Most,Few,Half,All,-0.55,0.283333333,1,0,0,QQQ7,,,,,,,,english,2020-06-16_10h40.19.844,Experiment_English,3.2.4,Win32,60,,,1,0,340,181,1,339,ratio23_2_5_6.png,,,,,,,,,,,,
,,,,,,,,,,,,Few,Many,Half,Most,None,Some,All,More than half,Less than half,0.041666667,0.285185185,1,0,0,QQQ4,,,,,,,,english,2020-06-16_10h40.19.844,Experiment_English,3.2.4,Win32,60,,,1,0,340,276,1,339,ratio41_16_20_4.png,,,,,,,,,,,,
,,,,,,,,,,,,Many,Half,More than half,All,None,Few,Some,Less than half,Most,-0.389814815,-0.042592593,1,0,0,QQQ8,,,,,,,,english,2020-06-16_10h40.19.844,Experiment_English,3.2.4,Win32,60,,,1,0,340,16,1,339,ratio12_5_15_6.png,,,,,,,,,,,,
,,,,,,,,,,,,All,Most,Many,Less than half,None,More than half,Half,Some,Few,-0.54537037,0.283333333,1,0,0,QQQ7,,,,,,,,english,2020-06-16_10h40.19.844,Experiment_English,3.2.4,Win32,60,,,1,0,340,255,1,339,ratio34_6_14_10.png,,,,,,,,,,,,
,,,,,,,,,,,,All,Less than half,Half,More than half,None,Many,Most,Some,Few,0.42962963,0.031481481,1,0,0,QQQ2,,,,,,,,english,2020-06-16_10h40.19.844,Experiment_English,3.2.4,Win32,60,,,1,0,340,232,1,339,ratio32_9_15_8.png,,,,,,,,,,,,
,,,,,,,,,,,,Less than half,All,Half,Many,Some,Most,None,Few,More than half,-0.481481481,-0.058333333,1,0,0,QQQ8,,,,,,,,english,2020-06-16_10h40.19.844,Experiment_English,3.2.4,Win32,60,,,1,0,340,128,1,339,ratio15_2_12_8.png,,,,,,,,,,,,
,,,,,,,,,,,,More than half,Few,All,Most,None,Half,Many,Less than half,Some,0.539814815,-0.030555556,1,0,0,QQQ2,,,,,,,,english,2020-06-16_10h40.19.844,Experiment_English,3.2.4,Win32,60,,,1,0,340,86,1,339,ratio13_2_8_6.png,,,,,,,,,,,,
,,,,,,,,,,,,Some,All,More than half,Most,Many,Few,Less than half,None,Half,-0.026851852,0.262037037,1,0,0,QQQ4,,,,,,,,english,2020-06-16_10h40.19.844,Experiment_English,3.2.4,Win32,60,,,1,0,340,325,1,339,ratio91_9_10_8.png,,,,,,,,,,,,
,,,,,,,,,,,,Most,Half,Some,More than half,None,Many,All,Few,Less than half,0.008333333,0.298148148,1,0,0,QQQ4,,,,,,,,english,2020-06-16_10h40.19.844,Experiment_English,3.2.4,Win32,60,,,1,0,340,161,1,339,ratio21_2_3_8.png,,,,,,,,,,,,
,,,,,,,,,,,,Many,Half,Some,All,Most,More than half,Few,None,Less than half,0.084259259,0.259259259,1,0,0,QQQ4,,,,,,,,english,2020-06-16_10h40.19.844,Experiment_English,3.2.4,Win32,60,,,1,0,340,57,1,339,ratioX0_18_18_1.png,,,,,,,,,,,,
,,,,,,,,,,,,Some,None,Most,Few,All,Half,More than half,Less than half,Many,-0.462962963,0.301851852,1,0,0,QQQ7,,,,,,,,english,2020-06-16_10h40.19.844,Experiment_English,3.2.4,Win32,60,,,1,0,340,176,1,339,ratio21_10_15_3.png,,,,,,,,,,,,
,,,,,,,,,,,,Less than half,All,Some,Few,Many,More than half,None,Half,Most,0.005555556,0.341666667,1,0,0,QQQ4,,,,,,,,english,2020-06-16_10h40.19.844,Experiment_English,3.2.4,Win32,60,,,1,0,340,111,1,339,ratio14_3_15_3.png,,,,,,,,,,,,
,,,,,,,,,,,,Few,Less than half,Half,Some,Most,All,None,Many,More than half,-0.55,-0.274074074,1,0,0,QQQ9,,,,,,,,english,2020-06-16_10h40.19.844,Experiment_English,3.2.4,Win32,60,,,1,0,340,164,1,339,ratio21_4_6_6.png,,,,,,,,,,,,
,,,,,,,,,,,,None,Less than half,Few,Many,Some,More than half,Half,All,Most,-0.511111111,-0.313888889,1,0,0,QQQ9,,,,,,,,english,2020-06-16_10h40.19.844,Experiment_English,3.2.4,Win32,60,,,1,0,340,300,1,339,ratio51_5_6_1.png,,,,,,,,,,,,
,,,,,,,,,,,,Few,Less than half,All,None,Many,More than half,Most,Some,Half,0.54537037,0.271296296,1,0,0,QQQ1,,,,,,,,english,2020-06-16_10h40.19.844,Experiment_English,3.2.4,Win32,60,,,1,0,340,126,1,339,ratio15_2_12_1.png,0.322222222,-0.380555556,1,0,0,continue_button_pause,1,0,1,0,1,0
,,,,,,,,,,,,,,,,,,,,,,,,,,,,,,,,,,english,2020-06-16_10h40.19.844,Experiment_English,3.2.4,Win32,60,,,1,0,340,126,1,339,ratio15_2_12_1.png,,,,,,,,,,,,
,,,,,,,,,,,,None,More than half,All,Less than half,Few,Most,Many,Half,Some,0.462037037,0.011111111,1,0,0,QQQ2,,,,,,,,english,2020-06-16_10h40.19.844,Experiment_English,3.2.4,Win32,60,,,1,0,340,288,1,339,ratio43_4_7_18.png,,,,,,,,,,,,
,,,,,,,,,,,,More than half,Many,Less than half,Few,All,None,Half,Most,Some,0.433333333,-0.275,1,0,0,QQQ3,,,,,,,,english,2020-06-16_10h40.19.844,Experiment_English,3.2.4,Win32,60,,,1,0,340,292,1,339,ratio43_8_14_6.png,,,,,,,,,,,,
,,,,,,,,,,,,Half,Most,None,More than half,Few,Less than half,Many,All,Some,-0.648148148,-0.025,1,0,0,QQQ8,,,,,,,,english,2020-06-16_10h40.19.844,Experiment_English,3.2.4,Win32,60,,,1,0,340,42,1,339,ratioX0_5_5_5.png,,,,,,,,,,,,
,,,,,,,,,,,,Some,Most,Half,None,Less than half,All,Few,More than half,Many,-0.388888889,-0.010185185,1,0,0,QQQ8,,,,,,,,english,2020-06-16_10h40.19.844,Experiment_English,3.2.4,Win32,60,,,1,0,340,168,1,339,ratio21_6_9_3.png,,,,,,,,,,,,
,,,,,,,,,,,,Less than half,Most,Many,Few,More than half,All,Some,None,Half,-0.005555556,-0.047222222,1,0,0,QQQ5,,,,,,,,english,2020-06-16_10h40.19.844,Experiment_English,3.2.4,Win32,60,,,1,0,340,204,1,339,ratio31_6_8_1.png,,,,,,,,,,,,
,,,,,,,,,,,,None,Few,Less than half,More than half,Most,Some,Many,Half,All,0.003703704,0.062037037,1,0,0,QQQ5,,,,,,,,english,2020-06-16_10h40.19.844,Experiment_English,3.2.4,Win32,60,,,1,0,340,211,1,339,ratio31_9_12_10.png,,,,,,,,,,,,
,,,,,,,,,,,,Less than half,More than half,Half,Few,Most,All,Many,None,Some,0.043518519,0.261111111,1,0,0,QQQ4,,,,,,,,english,2020-06-16_10h40.19.844,Experiment_English,3.2.4,Win32,60,,,1,0,340,151,1,339,ratio19_2_20_4.png,,,,,,,,,,,,
,,,,,,,,,,,,Many,More than half,All,None,Less than half,Some,Half,Most,Few,-0.382407407,-0.246296296,1,0,0,QQQ9,,,,,,,,english,2020-06-16_10h40.19.844,Experiment_English,3.2.4,Win32,60,,,1,0,340,81,1,339,ratio13_1_4_5.png,,,,,,,,,,,,
,,,,,,,,,,,,Some,All,Many,Few,None,Less than half,Most,Half,More than half,-0.475,-0.24537037,1,0,0,QQQ9,,,,,,,,english,2020-06-16_10h40.19.844,Experiment_English,3.2.4,Win32,60,,,1,0,340,205,1,339,ratio31_6_8_2.png,,,,,,,,,,,,
,,,,,,,,,,,,Few,Many,More than half,Some,Most,None,All,Less than half,Half,0.493518519,-0.296296296,1,0,0,QQQ3,,,,,,,,english,2020-06-16_10h40.19.844,Experiment_English,3.2.4,Win32,60,,,1,0,340,306,1,339,ratio51_5_6_18.png,,,,,,,,,,,,
,,,,,,,,,,,,Many,Few,More than half,All,Some,Most,None,Half,Less than half,-0.405555556,-0.251851852,1,0,0,QQQ9,,,,,,,,english,2020-06-16_10h40.19.844,Experiment_English,3.2.4,Win32,60,,,1,0,340,110,1,339,ratio14_3_15_2.png,,,,,,,,,,,,
,,,,,,,,,,,,All,More than half,Some,Half,None,Less than half,Many,Most,Few,0.086111111,-0.27037037,1,0,0,QQQ6,,,,,,,,english,2020-06-16_10h40.19.844,Experiment_English,3.2.4,Win32,60,,,1,0,340,116,1,339,ratio14_4_20_3.png,,,,,,,,,,,,
,,,,,,,,,,,,Most,All,Some,None,Many,Less than half,More than half,Half,Few,-0.453703704,-0.02962963,1,0,0,QQQ8,,,,,,,,english,2020-06-16_10h40.19.844,Experiment_English,3.2.4,Win32,60,,,1,0,340,36,1,339,ratio11_9_18_1.png,,,,,,,,,,,,
,,,,,,,,,,,,None,Few,Many,More than half,Less than half,Half,All,Some,Most,0.030555556,-0.038888889,1,0,0,QQQ5,,,,,,,,english,2020-06-16_10h40.19.844,Experiment_English,3.2.4,Win32,60,,,1,0,340,8,1,339,ratio12_3_9_4.png,,,,,,,,,,,,
,,,,,,,,,,,,Few,All,None,Many,More than half,Less than half,Half,Some,Most,-0.007407407,-0.019444444,1,0,0,QQQ5,,,,,,,,english,2020-06-16_10h40.19.844,Experiment_English,3.2.4,Win32,60,,,1,0,340,281,1,339,ratio43_4_7_4.png,,,,,,,,,,,,
,,,,,,,,,,,,Many,Most,None,Few,All,Less than half,Some,More than half,Half,-0.387962963,-0.041666667,1,0,0,QQQ8,,,,,,,,english,2020-06-16_10h40.19.844,Experiment_English,3.2.4,Win32,60,,,1,0,340,302,1,339,ratio51_5_6_5.png,,,,,,,,,,,,
,,,,,,,,,,,,More than half,Half,All,None,Some,Few,Many,Most,Less than half,0.528703704,0.002777778,1,0,0,QQQ2,,,,,,,,english,2020-06-16_10h40.19.844,Experiment_English,3.2.4,Win32,60,,,1,0,340,199,1,339,ratio23_8_20_8.png,,,,,,,,,,,,
,,,,,,,,,,,,Half,Less than half,Few,More than half,Most,All,None,Many,Some,-0.024074074,-0.023148148,1,0,0,QQQ5,,,,,,,,english,2020-06-16_10h40.19.844,Experiment_English,3.2.4,Win32,60,,,1,0,340,311,1,339,ratio51_10_12_14.png,,,,,,,,,,,,
,,,,,,,,,,,,Few,Most,All,Some,More than half,Half,None,Less than half,Many,-0.121296296,-0.025925926,1,0,0,QQQ5,,,,,,,,english,2020-06-16_10h40.19.844,Experiment_English,3.2.4,Win32,60,,,1,0,340,279,1,339,ratio41_16_20_10.png,,,,,,,,,,,,
,,,,,,,,,,,,None,Less than half,Most,Many,More than half,All,Half,Some,Few,-0.067592593,-0.027777778,1,0,0,QQQ5,,,,,,,,english,2020-06-16_10h40.19.844,Experiment_English,3.2.4,Win32,60,,,1,0,340,228,1,339,ratio32_6_10_7.png,,,,,,,,,,,,
,,,,,,,,,,,,All,Few,Many,Less than half,Most,More than half,Some,Half,None,0.041666667,0.314814815,1,0,0,QQQ4,,,,,,,,english,2020-06-16_10h40.19.844,Experiment_English,3.2.4,Win32,60,,,1,0,340,240,1,339,ratio34_3_7_4.png,,,,,,,,,,,,
,,,,,,,,,,,,Some,Half,All,Many,Less than half,Few,None,More than half,Most,0.485185185,-0.008333333,1,0,0,QQQ2,,,,,,,,english,2020-06-16_10h40.19.844,Experiment_English,3.2.4,Win32,60,,,1,0,340,256,1,339,ratio34_6_14_11.png,,,,,,,,,,,,
,,,,,,,,,,,,More than half,Less than half,Most,All,Half,None,Few,Many,Some,-0.038888889,-0.00462963,1,0,0,QQQ5,,,,,,,,english,2020-06-16_10h40.19.844,Experiment_English,3.2.4,Win32,60,,,1,0,340,19,1,339,ratio12_6_18_9.png,,,,,,,,,,,,
,,,,,,,,,,,,All,Many,Less than half,Few,More than half,None,Half,Some,Most,0.537037037,0.268518519,1,0,0,QQQ1,,,,,,,,english,2020-06-16_10h40.19.844,Experiment_English,3.2.4,Win32,60,,,1,0,340,50,1,339,ratioX0_12_12_3.png,,,,,,,,,,,,
,,,,,,,,,,,,Half,Few,More than half,All,Most,Some,None,Many,Less than half,-0.407407407,0.278703704,1,0,0,QQQ7,,,,,,,,english,2020-06-16_10h40.19.844,Experiment_English,3.2.4,Win32,60,,,1,0,340,60,1,339,ratio0Y_0_3_5.png,,,,,,,,,,,,
,,,,,,,,,,,,All,Most,Half,Few,Some,More than half,Many,Less than half,None,0.496296296,-0.228703704,1,0,0,QQQ3,,,,,,,,english,2020-06-16_10h40.19.844,Experiment_English,3.2.4,Win32,60,,,1,0,340,230,1,339,ratio32_9_15_1.png,,,,,,,,,,,,
,,,,,,,,,,,,Half,Most,All,None,Some,Less than half,Few,More than half,Many,0.02037037,0.259259259,1,0,0,QQQ4,,,,,,,,english,2020-06-16_10h40.19.844,Experiment_English,3.2.4,Win32,60,,,1,0,340,68,1,339,ratio0Y_0_11_3.png,,,,,,,,,,,,
,,,,,,,,,,,,Some,Most,Few,Less than half,None,Many,More than half,Half,All,-0.413888889,0.287037037,1,0,0,QQQ7,,,,,,,,english,2020-06-16_10h40.19.844,Experiment_English,3.2.4,Win32,60,,,1,0,340,177,1,339,ratio21_12_18_1.png,,,,,,,,,,,,
,,,,,,,,,,,,Few,Some,None,Most,Less than half,Half,All,Many,More than half,-0.453703704,-0.225925926,1,0,0,QQQ9,,,,,,,,english,2020-06-16_10h40.19.844,Experiment_English,3.2.4,Win32,60,,,1,0,340,261,1,339,ratio41_4_5_3.png,,,,,,,,,,,,
,,,,,,,,,,,,Some,None,More than half,Less than half,Many,Few,Most,All,Half,-0.399074074,0.293518519,1,0,0,QQQ7,,,,,,,,english,2020-06-16_10h40.19.844,Experiment_English,3.2.4,Win32,60,,,1,0,340,274,1,339,ratio41_12_15_9.png,,,,,,,,,,,,
,,,,,,,,,,,,More than half,Many,Some,All,Few,Half,Less than half,None,Most,-0.419444444,-0.244444444,1,0,0,QQQ9,,,,,,,,english,2020-06-16_10h40.19.844,Experiment_English,3.2.4,Win32,60,,,1,0,340,278,1,339,ratio41_16_20_9.png,,,,,,,,,,,,
,,,,,,,,,,,,More than half,Most,Many,None,Half,All,Few,Some,Less than half,-0.459259259,0.262962963,1,0,0,QQQ7,,,,,,,,english,2020-06-16_10h40.19.844,Experiment_English,3.2.4,Win32,60,,,1,0,340,133,1,339,ratio15_3_18_3.png,,,,,,,,,,,,
,,,,,,,,,,,,Few,More than half,None,Many,Half,All,Most,Some,Less than half,-0.424074074,0.012037037,1,0,0,QQQ8,,,,,,,,english,2020-06-16_10h40.19.844,Experiment_English,3.2.4,Win32,60,,,1,0,340,131,1,339,ratio15_2_12_14.png,,,,,,,,,,,,
,,,,,,,,,,,,Most,More than half,Some,Many,Half,All,Less than half,None,Few,0.446296296,-0.00462963,1,0,0,QQQ2,,,,,,,,english,2020-06-16_10h40.19.844,Experiment_English,3.2.4,Win32,60,,,1,0,340,225,1,339,ratio32_6_10_4.png,0.378703704,-0.389814815,1,0,0,continue_button_pause,1,0,1,0,1,0
,,,,,,,,,,,,,,,,,,,,,,,,,,,,,,,,,,english,2020-06-16_10h40.19.844,Experiment_English,3.2.4,Win32,60,,,1,0,340,225,1,339,ratio32_6_10_4.png,,,,,,,,,,,,
,,,,,,,,,,,,More than half,All,Less than half,Few,Most,Half,Many,Some,None,0.034259259,0.307407407,1,0,0,QQQ4,,,,,,,,english,2020-06-16_10h40.19.844,Experiment_English,3.2.4,Win32,60,,,1,0,340,136,1,339,ratio15_3_18_8.png,,,,,,,,,,,,
,,,,,,,,,,,,All,Most,None,More than half,Less than half,Some,Many,Half,Few,-0.387037037,-0.287037037,1,0,0,QQQ9,,,,,,,,english,2020-06-16_10h40.19.844,Experiment_English,3.2.4,Win32,60,,,1,0,340,109,1,339,ratio14_2_10_9.png,,,,,,,,,,,,
,,,,,,,,,,,,Many,Some,More than half,Most,Half,None,Few,Less than half,All,0.422222222,-0.290740741,1,0,0,QQQ3,,,,,,,,english,2020-06-16_10h40.19.844,Experiment_English,3.2.4,Win32,60,,,1,0,340,222,1,339,ratio32_3_5_4.png,,,,,,,,,,,,
,,,,,,,,,,,,All,Half,Most,More than half,None,Few,Some,Less than half,Many,0.072222222,-0.242592593,1,0,0,QQQ6,,,,,,,,english,2020-06-16_10h40.19.844,Experiment_English,3.2.4,Win32,60,,,1,0,340,82,1,339,ratio13_1_4_7.png,,,,,,,,,,,,
,,,,,,,,,,,,More than half,Half,Most,Few,Some,None,Less than half,Many,All,0.010185185,-0.239814815,1,0,0,QQQ6,,,,,,,,english,2020-06-16_10h40.19.844,Experiment_English,3.2.4,Win32,60,,,1,0,340,51,1,339,ratioX0_12_12_9.png,,,,,,,,,,,,
,,,,,,,,,,,,Less than half,Half,Some,None,Many,More than half,All,Few,Most,0.031481481,-0.27962963,1,0,0,QQQ6,,,,,,,,english,2020-06-16_10h40.19.844,Experiment_English,3.2.4,Win32,60,,,1,0,340,247,1,339,ratio34_3_7_12.png,,,,,,,,,,,,
,,,,,,,,,,,,None,Less than half,Most,Few,More than half,Half,Many,Some,All,0.071296296,-0.021296296,1,0,0,QQQ5,,,,,,,,english,2020-06-16_10h40.19.844,Experiment_English,3.2.4,Win32,60,,,1,0,340,310,1,339,ratio51_10_12_12.png,,,,,,,,,,,,
,,,,,,,,,,,,None,Most,Few,Some,Many,More than half,All,Less than half,Half,0.466666667,-0.257407407,1,0,0,QQQ3,,,,,,,,english,2020-06-16_10h40.19.844,Experiment_English,3.2.4,Win32,60,,,1,0,340,148,1,339,ratio19_1_10_19.png,,,,,,,,,,,,
,,,,,,,,,,,,Less than half,Some,Many,None,All,More than half,Few,Most,Half,0.087962963,0.316666667,1,0,0,QQQ4,,,,,,,,english,2020-06-16_10h40.19.844,Experiment_English,3.2.4,Win32,60,,,1,0,340,48,1,339,ratioX0_10_10_1.png,,,,,,,,,,,,
,,,,,,,,,,,,All,Half,Many,None,Some,Most,Few,Less than half,More than half,-0.023148148,-0.018518519,1,0,0,QQQ5,,,,,,,,english,2020-06-16_10h40.19.844,Experiment_English,3.2.4,Win32,60,,,1,0,340,192,1,339,ratio23_6_15_8.png,,,,,,,,,,,,
,,,,,,,,,,,,All,Few,None,Many,Less than half,Half,More than half,Some,Most,-0.405555556,0.29537037,1,0,0,QQQ7,,,,,,,,english,2020-06-16_10h40.19.844,Experiment_English,3.2.4,Win32,60,,,1,0,340,26,1,339,ratio11_5_10_4.png,,,,,,,,,,,,
,,,,,,,,,,,,Many,None,More than half,Most,Some,Few,Less than half,All,Half,-0.451851852,0.286111111,1,0,0,QQQ7,,,,,,,,english,2020-06-16_10h40.19.844,Experiment_English,3.2.4,Win32,60,,,1,0,340,99,1,339,ratio13_5_20_4.png,,,,,,,,,,,,
,,,,,,,,,,,,Many,All,None,Less than half,More than half,Some,Few,Most,Half,-0.418518519,0.3,1,0,0,QQQ7,,,,,,,,english,2020-06-16_10h40.19.844,Experiment_English,3.2.4,Win32,60,,,1,0,340,1,1,339,ratio12_1_3_7.png,,,,,,,,,,,,
,,,,,,,,,,,,Some,Less than half,Few,Half,More than half,Most,All,Many,None,0.096296296,-0.05,1,0,0,QQQ5,,,,,,,,english,2020-06-16_10h40.19.844,Experiment_English,3.2.4,Win32,60,,,1,0,340,39,1,339,ratio11_10_20_6.png,,,,,,,,,,,,
,,,,,,,,,,,,Most,Some,All,Less than half,Half,Few,More than half,Many,None,-0.467592593,0.272222222,1,0,0,QQQ7,,,,,,,,english,2020-06-16_10h40.19.844,Experiment_English,3.2.4,Win32,60,,,1,0,340,267,1,339,ratio41_8_10_4.png,,,,,,,,,,,,
,,,,,,,,,,,,More than half,Most,All,Some,None,Many,Less than half,Few,Half,-0.477777778,-0.242592593,1,0,0,QQQ9,,,,,,,,english,2020-06-16_10h40.19.844,Experiment_English,3.2.4,Win32,60,,,1,0,340,290,1,339,ratio43_8_14_3.png,,,,,,,,,,,,
,,,,,,,,,,,,None,Most,Half,More than half,Some,Less than half,Many,Few,All,-0.081481481,0.008333333,1,0,0,QQQ5,,,,,,,,english,2020-06-16_10h40.19.844,Experiment_English,3.2.4,Win32,60,,,1,0,340,147,1,339,ratio19_1_10_18.png,,,,,,,,,,,,
,,,,,,,,,,,,Most,Many,All,Few,Less than half,Half,None,Some,More than half,-0.47037037,-0.286111111,1,0,0,QQQ9,,,,,,,,english,2020-06-16_10h40.19.844,Experiment_English,3.2.4,Win32,60,,,1,0,340,213,1,339,ratio31_12_16_2.png,,,,,,,,,,,,
,,,,,,,,,,,,Many,More than half,None,All,Some,Less than half,Half,Most,Few,-0.60462963,-0.30462963,1,0,0,QQQ9,,,,,,,,english,2020-06-16_10h40.19.844,Experiment_English,3.2.4,Win32,60,,,1,0,340,122,1,339,ratio15_1_6_7.png,,,,,,,,,,,,
,,,,,,,,,,,,More than half,Most,Some,All,Half,Less than half,Many,Few,None,0.126851852,-0.036111111,1,0,0,QQQ5,,,,,,,,english,2020-06-16_10h40.19.844,Experiment_English,3.2.4,Win32,60,,,1,0,340,184,1,339,ratio23_2_5_10.png,,,,,,,,,,,,
,,,,,,,,,,,,Few,Less than half,Some,All,Most,More than half,Many,Half,None,0.05,-0.272222222,1,0,0,QQQ6,,,,,,,,english,2020-06-16_10h40.19.844,Experiment_English,3.2.4,Win32,60,,,1,0,340,179,1,339,ratio21_12_18_8.png,,,,,,,,,,,,
,,,,,,,,,,,,Less than half,None,Few,Many,Half,Most,All,Some,More than half,0.510185185,0.275925926,1,0,0,QQQ1,,,,,,,,english,2020-06-16_10h40.19.844,Experiment_English,3.2.4,Win32,60,,,1,0,340,130,1,339,ratio15_2_12_12.png,,,,,,,,,,,,
,,,,,,,,,,,,None,Many,Some,Most,All,More than half,Few,Half,Less than half,0.053703704,-0.213888889,1,0,0,QQQ6,,,,,,,,english,2020-06-16_10h40.19.844,Experiment_English,3.2.4,Win32,60,,,1,0,340,38,1,339,ratio11_10_20_5.png,,,,,,,,,,,,
,,,,,,,,,,,,Many,Less than half,None,Most,More than half,Some,Few,All,Half,-0.430555556,0.294444444,1,0,0,QQQ7,,,,,,,,english,2020-06-16_10h40.19.844,Experiment_English,3.2.4,Win32,60,,,1,0,340,157,1,339,ratio19_2_20_16.png,,,,,,,,,,,,
,,,,,,,,,,,,Few,All,More than half,Half,Some,Most,Many,None,Less than half,-0.00462963,0.012037037,1,0,0,QQQ5,,,,,,,,english,2020-06-16_10h40.19.844,Experiment_English,3.2.4,Win32,60,,,1,0,340,112,1,339,ratio14_3_15_4.png,,,,,,,,,,,,
,,,,,,,,,,,,Many,Half,Less than half,Few,All,None,Some,Most,More than half,0.485185185,-0.316666667,1,0,0,QQQ3,,,,,,,,english,2020-06-16_10h40.19.844,Experiment_English,3.2.4,Win32,60,,,1,0,340,257,1,339,ratio34_6_14_12.png,,,,,,,,,,,,
,,,,,,,,,,,,All,Less than half,Most,Many,None,Some,Half,More than half,Few,-0.430555556,-0.040740741,1,0,0,QQQ8,,,,,,,,english,2020-06-16_10h40.19.844,Experiment_English,3.2.4,Win32,60,,,1,0,340,308,1,339,ratio51_10_12_9.png,,,,,,,,,,,,
,,,,,,,,,,,,Few,Half,More than half,Most,All,None,Some,Less than half,Many,0.489814815,-0.307407407,1,0,0,QQQ3,,,,,,,,english,2020-06-16_10h40.19.844,Experiment_English,3.2.4,Win32,60,,,1,0,340,29,1,339,ratio11_6_12_1.png,,,,,,,,,,,,
,,,,,,,,,,,,Some,Less than half,All,Most,Half,Few,More than half,Many,None,-0.413888889,-0.048148148,1,0,0,QQQ8,,,,,,,,english,2020-06-16_10h40.19.844,Experiment_English,3.2.4,Win32,60,,,1,0,340,334,1,339,ratio91_18_20_9.png,,,,,,,,,,,,
,,,,,,,,,,,,Half,More than half,Most,Few,Some,Many,All,Less than half,None,0.059259259,-0.258333333,1,0,0,QQQ6,,,,,,,,english,2020-06-16_10h40.19.844,Experiment_English,3.2.4,Win32,60,,,1,0,340,336,1,339,ratio91_18_20_12.png,,,,,,,,,,,,
,,,,,,,,,,,,Few,More than half,Less than half,Most,Many,None,All,Some,Half,0.489814815,-0.039814815,1,0,0,QQQ2,,,,,,,,english,2020-06-16_10h40.19.844,Experiment_English,3.2.4,Win32,60,,,1,0,340,2,1,339,ratio12_1_3_10.png,,,,,,,,,,,,
,,,,,,,,,,,,None,More than half,All,Some,Few,Half,Many,Most,Less than half,-0.471296296,-0.248148148,1,0,0,QQQ9,,,,,,,,english,2020-06-16_10h40.19.844,Experiment_English,3.2.4,Win32,60,,,1,0,340,93,1,339,ratio13_4_16_7.png,,,,,,,,,,,,
,,,,,,,,,,,,Less than half,Many,More than half,Few,None,Some,All,Half,Most,-0.4,-0.008333333,1,0,0,QQQ8,,,,,,,,english,2020-06-16_10h40.19.844,Experiment_English,3.2.4,Win32,60,,,1,0,340,21,1,339,ratio11_2_4_10.png,,,,,,,,,,,,
,,,,,,,,,,,,Half,None,Some,Many,More than half,All,Less than half,Few,Most,0.017592593,-0.018518519,1,0,0,QQQ5,,,,,,,,english,2020-06-16_10h40.19.844,Experiment_English,3.2.4,Win32,60,,,1,0,340,315,1,339,ratio51_15_18_10.png,0.409259259,-0.389814815,1,0,0,continue_button_pause,1,0,1,0,1,0
,,,,,,,,,,,,,,,,,,,,,,,,,,,,,,,,,,english,2020-06-16_10h40.19.844,Experiment_English,3.2.4,Win32,60,,,1,0,340,315,1,339,ratio51_15_18_10.png,,,,,,,,,,,,
,,,,,,,,,,,,All,Half,Some,Many,Less than half,More than half,Most,Few,None,-0.438888889,-0.023148148,1,0,0,QQQ8,,,,,,,,english,2020-06-16_10h40.19.844,Experiment_English,3.2.4,Win32,60,,,1,0,340,140,1,339,ratio19_1_10_1.png,,,,,,,,,,,,
,,,,,,,,,,,,More than half,Few,Less than half,Many,Some,None,Most,Half,All,-0.467592593,0.292592593,1,0,0,QQQ7,,,,,,,,english,2020-06-16_10h40.19.844,Experiment_English,3.2.4,Win32,60,,,1,0,340,331,1,339,ratio91_18_20_3.png,,,,,,,,,,,,
,,,,,,,,,,,,Less than half,Many,Few,More than half,Some,All,None,Most,Half,0.397222222,0.252777778,1,0,0,QQQ1,,,,,,,,english,2020-06-16_10h40.19.844,Experiment_English,3.2.4,Win32,60,,,1,0,340,15,1,339,ratio12_5_15_5.png,,,,,,,,,,,,
,,,,,,,,,,,,Many,Most,Less than half,Half,None,Few,Some,More than half,All,-0.489814815,0.00462963,1,0,0,QQQ8,,,,,,,,english,2020-06-16_10h40.19.844,Experiment_English,3.2.4,Win32,60,,,1,0,340,25,1,339,ratio11_4_8_10.png,,,,,,,,,,,,
,,,,,,,,,,,,Half,Most,Many,Few,More than half,None,All,Some,Less than half,-0.448148148,-0.247222222,1,0,0,QQQ9,,,,,,,,english,2020-06-16_10h40.19.844,Experiment_English,3.2.4,Win32,60,,,1,0,340,84,1,339,ratio13_2_8_1.png,,,,,,,,,,,,
,,,,,,,,,,,,Half,More than half,Many,All,Some,None,Most,Few,Less than half,0.589814815,0.028703704,1,0,0,QQQ2,,,,,,,,english,2020-06-16_10h40.19.844,Experiment_English,3.2.4,Win32,60,,,1,0,340,235,1,339,ratio32_12_20_1.png,,,,,,,,,,,,
,,,,,,,,,,,,None,Many,Half,All,Some,Less than half,Few,More than half,Most,-0.450925926,-0.289814815,1,0,0,QQQ9,,,,,,,,english,2020-06-16_10h40.19.844,Experiment_English,3.2.4,Win32,60,,,1,0,340,309,1,339,ratio51_10_12_10.png,,,,,,,,,,,,
,,,,,,,,,,,,None,More than half,All,Some,Less than half,Many,Most,Few,Half,-0.485185185,0.297222222,1,0,0,QQQ7,,,,,,,,english,2020-06-16_10h40.19.844,Experiment_English,3.2.4,Win32,60,,,1,0,340,189,1,339,ratio23_4_10_8.png,,,,,,,,,,,,
,,,,,,,,,,,,Few,Some,Many,More than half,Most,All,Less than half,Half,None,0.023148148,-0.302777778,1,0,0,QQQ6,,,,,,,,english,2020-06-16_10h40.19.844,Experiment_English,3.2.4,Win32,60,,,1,0,340,45,1,339,ratioX0_8_8_3.png,,,,,,,,,,,,
,,,,,,,,,,,,Many,More than half,None,Half,Few,Less than half,All,Some,Most,-0.435185185,-0.247222222,1,0,0,QQQ9,,,,,,,,english,2020-06-16_10h40.19.844,Experiment_English,3.2.4,Win32,60,,,1,0,340,313,1,339,ratio51_15_18_2.png,,,,,,,,,,,,
,,,,,,,,,,,,Many,All,None,Some,More than half,Few,Half,Most,Less than half,-0.447222222,0.325,1,0,0,QQQ7,,,,,,,,english,2020-06-16_10h40.19.844,Experiment_English,3.2.4,Win32,60,,,1,0,340,30,1,339,ratio11_6_12_6.png,,,,,,,,,,,,
,,,,,,,,,,,,More than half,Most,All,None,Some,Few,Many,Less than half,Half,0.097222222,0.308333333,1,0,0,QQQ4,,,,,,,,english,2020-06-16_10h40.19.844,Experiment_English,3.2.4,Win32,60,,,1,0,340,75,1,339,ratio0Y_0_16_10.png,,,,,,,,,,,,
,,,,,,,,,,,,Half,Some,Many,Few,All,None,More than half,Most,Less than half,0.030555556,0.280555556,1,0,0,QQQ4,,,,,,,,english,2020-06-16_10h40.19.844,Experiment_English,3.2.4,Win32,60,,,1,0,340,121,1,339,ratio15_1_6_4.png,,,,,,,,,,,,
,,,,,,,,,,,,Less than half,Some,All,Many,Most,None,Few,Half,More than half,-0.386111111,-0.27037037,1,0,0,QQQ9,,,,,,,,english,2020-06-16_10h40.19.844,Experiment_English,3.2.4,Win32,60,,,1,0,340,224,1,339,ratio32_3_5_10.png,,,,,,,,,,,,
,,,,,,,,,,,,Less than half,Most,Half,None,Many,More than half,Few,Some,All,0.066666667,0.27037037,1,0,0,QQQ4,,,,,,,,english,2020-06-16_10h40.19.844,Experiment_English,3.2.4,Win32,60,,,1,0,340,76,1,339,ratio0Y_0_17_10.png,,,,,,,,,,,,
,,,,,,,,,,,,Half,More than half,Most,Few,Some,All,Many,None,Less than half,0.364814815,-0.063888889,1,0,0,QQQ2,,,,,,,,english,2020-06-16_10h40.19.844,Experiment_English,3.2.4,Win32,60,,,1,0,340,160,1,339,ratio21_2_3_2.png,,,,,,,,,,,,
,,,,,,,,,,,,None,Most,Some,Many,Few,All,Half,More than half,Less than half,0,0.249074074,1,0,0,QQQ4,,,,,,,,english,2020-06-16_10h40.19.844,Experiment_English,3.2.4,Win32,60,,,1,0,340,265,1,339,ratio41_8_10_1.png,,,,,,,,,,,,
,,,,,,,,,,,,Many,Most,Half,None,Less than half,More than half,All,Some,Few,-0.515740741,0.299074074,1,0,0,QQQ7,,,,,,,,english,2020-06-16_10h40.19.844,Experiment_English,3.2.4,Win32,60,,,1,0,340,54,1,339,ratioX0_15_15_5.png,,,,,,,,,,,,
,,,,,,,,,,,,Most,Few,All,Many,None,More than half,Half,Less than half,Some,-0.399074074,0.001851852,1,0,0,QQQ8,,,,,,,,english,2020-06-16_10h40.19.844,Experiment_English,3.2.4,Win32,60,,,1,0,340,299,1,339,ratio43_8_14_17.png,,,,,,,,,,,,
,,,,,,,,,,,,Many,More than half,Less than half,Most,None,All,Half,Few,Some,0.459259259,-0.34537037,1,0,0,QQQ3,,,,,,,,english,2020-06-16_10h40.19.844,Experiment_English,3.2.4,Win32,60,,,1,0,340,241,1,339,ratio34_3_7_5.png,,,,,,,,,,,,
,,,,,,,,,,,,More than half,Few,None,All,Half,Most,Less than half,Some,Many,-0.405555556,0.374074074,1,0,0,QQQ7,,,,,,,,english,2020-06-16_10h40.19.844,Experiment_English,3.2.4,Win32,60,,,1,0,340,138,1,339,ratio15_3_18_17.png,,,,,,,,,,,,
,,,,,,,,,,,,None,Half,All,Many,More than half,Some,Most,Less than half,Few,-0.447222222,-0.25,1,0,0,QQQ9,,,,,,,,english,2020-06-16_10h40.19.844,Experiment_English,3.2.4,Win32,60,,,1,0,340,155,1,339,ratio19_2_20_13.png,,,,,,,,,,,,
,,,,,,,,,,,,Most,All,Many,Less than half,More than half,Some,None,Few,Half,-0.472222222,0.068518519,1,0,0,QQQ8,,,,,,,,english,2020-06-16_10h40.19.844,Experiment_English,3.2.4,Win32,60,,,1,0,340,107,1,339,ratio14_2_10_5.png,,,,,,,,,,,,
,,,,,,,,,,,,Less than half,All,Half,Some,Most,Few,None,Many,More than half,-0.472222222,-0.274074074,1,0,0,QQQ9,,,,,,,,english,2020-06-16_10h40.19.844,Experiment_English,3.2.4,Win32,60,,,1,0,340,231,1,339,ratio32_9_15_2.png,,,,,,,,,,,,
,,,,,,,,,,,,None,Most,Half,Less than half,Many,More than half,Some,Few,All,0.385185185,0.016666667,1,0,0,QQQ2,,,,,,,,english,2020-06-16_10h40.19.844,Experiment_English,3.2.4,Win32,60,,,1,0,340,162,1,339,ratio21_2_3_9.png,,,,,,,,,,,,
,,,,,,,,,,,,Many,Half,All,None,More than half,Less than half,Some,Most,Few,-0.47962963,-0.003703704,1,0,0,QQQ8,,,,,,,,english,2020-06-16_10h40.19.844,Experiment_English,3.2.4,Win32,60,,,1,0,340,328,1,339,ratio91_9_10_15.png,,,,,,,,,,,,
,,,,,,,,,,,,Some,Most,Many,More than half,Few,Half,All,None,Less than half,-0.012962963,0.033333333,1,0,0,QQQ5,,,,,,,,english,2020-06-16_10h40.19.844,Experiment_English,3.2.4,Win32,60,,,1,0,340,113,1,339,ratio14_3_15_8.png,,,,,,,,,,,,
,,,,,,,,,,,,Some,Less than half,None,Half,Most,Few,All,More than half,Many,0.049074074,-0.008333333,1,0,0,QQQ5,,,,,,,,english,2020-06-16_10h40.19.844,Experiment_English,3.2.4,Win32,60,,,1,0,340,326,1,339,ratio91_9_10_10.png,,,,,,,,,,,,
,,,,,,,,,,,,Less than half,All,More than half,Few,Some,None,Most,Many,Half,-0.416666667,0.323148148,1,0,0,QQQ7,,,,,,,,english,2020-06-16_10h40.19.844,Experiment_English,3.2.4,Win32,60,,,1,0,340,330,1,339,ratio91_18_20_2.png,,,,,,,,,,,,
,,,,,,,,,,,,None,Few,Most,Some,All,Half,Less than half,More than half,Many,0.064814815,0.00462963,1,0,0,QQQ5,,,,,,,,english,2020-06-16_10h40.19.844,Experiment_English,3.2.4,Win32,60,,,1,0,340,41,1,339,ratioX0_4_4_9.png,,,,,,,,,,,,
,,,,,,,,,,,,All,None,Less than half,Most,Half,Some,Many,More than half,Few,-0.527777778,-0.02037037,1,0,0,QQQ8,,,,,,,,english,2020-06-16_10h40.19.844,Experiment_English,3.2.4,Win32,60,,,1,0,340,254,1,339,ratio34_6_14_9.png,,,,,,,,,,,,
,,,,,,,,,,,,All,Half,Many,Less than half,Few,More than half,Some,Most,None,-0.461111111,-0.058333333,1,0,0,QQQ8,,,,,,,,english,2020-06-16_10h40.19.844,Experiment_English,3.2.4,Win32,60,,,1,0,340,216,1,339,ratio31_15_20_3.png,,,,,,,,,,,,
,,,,,,,,,,,,Half,More than half,Some,Less than half,Few,All,Many,None,Most,-0.430555556,-0.274074074,1,0,0,QQQ9,,,,,,,,english,2020-06-16_10h40.19.844,Experiment_English,3.2.4,Win32,60,,,1,0,340,317,1,339,ratio51_15_18_13.png,,,,,,,,,,,,
,,,,,,,,,,,,Most,More than half,All,Many,Half,None,Few,Less than half,Some,0.482407407,0.311111111,1,0,0,QQQ1,,,,,,,,english,2020-06-16_10h40.19.844,Experiment_English,3.2.4,Win32,60,,,1,0,340,221,1,339,ratio32_3_5_3.png,0.337962963,-0.391666667,1,0,0,continue_button_pause,1,0,1,0,1,0
,,,,,,,,,,,,,,,,,,,,,,,,,,,,,,,,,,english,2020-06-16_10h40.19.844,Experiment_English,3.2.4,Win32,60,,,1,0,340,221,1,339,ratio32_3_5_3.png,,,,,,,,,,,,
,,,,,,,,,,,,Some,All,None,Less than half,More than half,Most,Half,Few,Many,0.00462963,-0.369444444,1,0,0,QQQ6,,,,,,,,english,2020-06-16_10h40.19.844,Experiment_English,3.2.4,Win32,60,,,1,0,340,316,1,339,ratio51_15_18_11.png,,,,,,,,,,,,
,,,,,,,,,,,,All,Most,None,Many,Some,Less than half,Few,Half,More than half,0.45,-0.252777778,1,0,0,QQQ3,,,,,,,,english,2020-06-16_10h40.19.844,Experiment_English,3.2.4,Win32,60,,,1,0,340,61,1,339,ratio0Y_0_4_7.png,,,,,,,,,,,,
,,,,,,,,,,,,Half,All,Many,Less than half,Some,Few,None,Most,More than half,-0.051851852,-0.312037037,1,0,0,QQQ6,,,,,,,,english,2020-06-16_10h40.19.844,Experiment_English,3.2.4,Win32,60,,,1,0,340,101,1,339,ratio14_1_5_7.png,,,,,,,,,,,,
,,,,,,,,,,,,More than half,All,Half,Many,Some,Most,Less than half,None,Few,0.633333333,0.280555556,1,0,0,QQQ1,,,,,,,,english,2020-06-16_10h40.19.844,Experiment_English,3.2.4,Win32,60,,,1,0,340,10,1,339,ratio12_4_12_4.png,,,,,,,,,,,,
,,,,,,,,,,,,Most,Few,Some,Half,All,Many,None,Less than half,More than half,-0.087962963,0.294444444,1,0,0,QQQ4,,,,,,,,english,2020-06-16_10h40.19.844,Experiment_English,3.2.4,Win32,60,,,1,0,340,9,1,339,ratio12_3_9_5.png,,,,,,,,,,,,
,,,,,,,,,,,,All,Half,Most,Few,Less than half,Some,None,More than half,Many,-0.453703704,0.343518519,1,0,0,QQQ7,,,,,,,,english,2020-06-16_10h40.19.844,Experiment_English,3.2.4,Win32,60,,,1,0,340,67,1,339,ratio0Y_0_10_10.png,,,,,,,,,,,,
,,,,,,,,,,,,Less than half,None,Some,Many,Most,All,Half,More than half,Few,0.048148148,-0.260185185,1,0,0,QQQ6,,,,,,,,english,2020-06-16_10h40.19.844,Experiment_English,3.2.4,Win32,60,,,1,0,340,59,1,339,ratioX0_20_20_9.png,,,,,,,,,,,,
,,,,,,,,,,,,Few,Most,All,Many,More than half,None,Less than half,Some,Half,0.562962963,0.268518519,1,0,0,QQQ1,,,,,,,,english,2020-06-16_10h40.19.844,Experiment_English,3.2.4,Win32,60,,,1,0,340,134,1,339,ratio15_3_18_5.png,,,,,,,,,,,,
,,,,,,,,,,,,Most,Half,Few,Less than half,All,Many,More than half,None,Some,0.546296296,-0.284259259,1,0,0,QQQ3,,,,,,,,english,2020-06-16_10h40.19.844,Experiment_English,3.2.4,Win32,60,,,1,0,340,104,1,339,ratio14_1_5_10.png,,,,,,,,,,,,
,,,,,,,,,,,,Some,Half,Less than half,None,More than half,Few,Most,All,Many,0.091666667,-0.287962963,1,0,0,QQQ6,,,,,,,,english,2020-06-16_10h40.19.844,Experiment_English,3.2.4,Win32,60,,,1,0,340,119,1,339,ratio14_4_20_10.png,,,,,,,,,,,,
,,,,,,,,,,,,Some,None,Most,Half,Few,More than half,Less than half,Many,All,0.544444444,-0.071296296,1,0,0,QQQ2,,,,,,,,english,2020-06-16_10h40.19.844,Experiment_English,3.2.4,Win32,60,,,1,0,340,72,1,339,ratio0Y_0_13_4.png,,,,,,,,,,,,
,,,,,,,,,,,,Many,All,None,Few,Half,Some,Less than half,Most,More than half,0.546296296,0.269444444,1,0,0,QQQ1,,,,,,,,english,2020-06-16_10h40.19.844,Experiment_English,3.2.4,Win32,60,,,1,0,340,214,1,339,ratio31_12_16_5.png,,,,,,,,,,,,
,,,,,,,,,,,,Most,Less than half,Few,Many,Half,Some,More than half,None,All,0.453703704,-0.322222222,1,0,0,QQQ3,,,,,,,,english,2020-06-16_10h40.19.844,Experiment_English,3.2.4,Win32,60,,,1,0,340,183,1,339,ratio23_2_5_9.png,,,,,,,,,,,,
,,,,,,,,,,,,All,Less than half,Some,Many,Most,Half,More than half,Few,None,-0.091666667,-0.026851852,1,0,0,QQQ5,,,,,,,,english,2020-06-16_10h40.19.844,Experiment_English,3.2.4,Win32,60,,,1,0,340,327,1,339,ratio91_9_10_11.png,,,,,,,,,,,,
,,,,,,,,,,,,Some,Most,Few,Half,None,Less than half,Many,More than half,All,0.553703704,-0.021296296,1,0,0,QQQ2,,,,,,,,english,2020-06-16_10h40.19.844,Experiment_English,3.2.4,Win32,60,,,1,0,340,314,1,339,ratio51_15_18_4.png,,,,,,,,,,,,
,,,,,,,,,,,,Many,Most,More than half,All,None,Half,Some,Less than half,Few,-0.503703704,-0.293518519,1,0,0,QQQ9,,,,,,,,english,2020-06-16_10h40.19.844,Experiment_English,3.2.4,Win32,60,,,1,0,340,145,1,339,ratio19_1_10_15.png,,,,,,,,,,,,
,,,,,,,,,,,,None,Half,All,Few,More than half,Less than half,Some,Many,Most,-0.425,-0.289814815,1,0,0,QQQ9,,,,,,,,english,2020-06-16_10h40.19.844,Experiment_English,3.2.4,Win32,60,,,1,0,340,260,1,339,ratio41_4_5_2.png,,,,,,,,,,,,
,,,,,,,,,,,,Half,Most,Less than half,Few,Some,More than half,All,None,Many,0.093518519,0.244444444,1,0,0,QQQ4,,,,,,,,english,2020-06-16_10h40.19.844,Experiment_English,3.2.4,Win32,60,,,1,0,340,90,1,339,ratio13_3_12_7.png,,,,,,,,,,,,
,,,,,,,,,,,,Few,Less than half,All,Half,Many,Some,More than half,Most,None,-0.425,0.001851852,1,0,0,QQQ8,,,,,,,,english,2020-06-16_10h40.19.844,Experiment_English,3.2.4,Win32,60,,,1,0,340,266,1,339,ratio41_8_10_2.png,,,,,,,,,,,,
,,,,,,,,,,,,More than half,Many,Less than half,None,All,Most,Half,Some,Few,-0.568518519,-0.273148148,1,0,0,QQQ9,,,,,,,,english,2020-06-16_10h40.19.844,Experiment_English,3.2.4,Win32,60,,,1,0,340,152,1,339,ratio19_2_20_6.png,,,,,,,,,,,,
,,,,,,,,,,,,More than half,Some,Many,Few,All,None,Half,Less than half,Most,-0.42962963,0.25,1,0,0,QQQ7,,,,,,,,english,2020-06-16_10h40.19.844,Experiment_English,3.2.4,Win32,60,,,1,0,340,22,1,339,ratio11_3_6_6.png,,,,,,,,,,,,
,,,,,,,,,,,,Half,Less than half,Few,Most,Many,More than half,All,Some,None,0.049074074,-0.046296296,1,0,0,QQQ5,,,,,,,,english,2020-06-16_10h40.19.844,Experiment_English,3.2.4,Win32,60,,,1,0,340,217,1,339,ratio31_15_20_5.png,,,,,,,,,,,,
,,,,,,,,,,,,All,More than half,Some,Few,Most,Many,Less than half,Half,None,-0.013888889,-0.275925926,1,0,0,QQQ6,,,,,,,,english,2020-06-16_10h40.19.844,Experiment_English,3.2.4,Win32,60,,,1,0,340,319,1,339,ratio51_15_18_20.png,,,,,,,,,,,,
,,,,,,,,,,,,Half,None,All,Less than half,Some,Most,Many,Few,More than half,0.435185185,0.000925926,1,0,0,QQQ2,,,,,,,,english,2020-06-16_10h40.19.844,Experiment_English,3.2.4,Win32,60,,,1,0,340,71,1,339,ratio0Y_0_12_10.png,,,,,,,,,,,,
,,,,,,,,,,,,Half,Some,All,Most,None,Many,More than half,Less than half,Few,-0.415740741,0.237037037,1,0,0,QQQ7,,,,,,,,english,2020-06-16_10h40.19.844,Experiment_English,3.2.4,Win32,60,,,1,0,340,194,1,339,ratio23_6_15_10.png,,,,,,,,,,,,
,,,,,,,,,,,,All,Less than half,Some,None,Most,Half,More than half,Few,Many,-0.053703704,-0.032407407,1,0,0,QQQ5,,,,,,,,english,2020-06-16_10h40.19.844,Experiment_English,3.2.4,Win32,60,,,1,0,340,272,1,339,ratio41_12_15_7.png,,,,,,,,,,,,
,,,,,,,,,,,,Half,None,Most,Some,Few,Many,All,Less than half,More than half,-0.013888889,-0.014814815,1,0,0,QQQ5,,,,,,,,english,2020-06-16_10h40.19.844,Experiment_English,3.2.4,Win32,60,,,1,0,340,92,1,339,ratio13_4_16_3.png,,,,,,,,,,,,
,,,,,,,,,,,,Many,Less than half,More than half,Most,Half,None,Some,All,Few,-0.058333333,0.24537037,1,0,0,QQQ4,,,,,,,,english,2020-06-16_10h40.19.844,Experiment_English,3.2.4,Win32,60,,,1,0,340,275,1,339,ratio41_16_20_2.png,,,,,,,,,,,,
,,,,,,,,,,,,All,Half,None,Many,Few,More than half,Most,Some,Less than half,-0.373148148,-0.282407407,1,0,0,QQQ9,,,,,,,,english,2020-06-16_10h40.19.844,Experiment_English,3.2.4,Win32,60,,,1,0,340,187,1,339,ratio23_4_10_5.png,,,,,,,,,,,,
,,,,,,,,,,,,Half,More than half,Less than half,Many,Some,Most,Few,None,All,0.552777778,-0.037962963,1,0,0,QQQ2,,,,,,,,english,2020-06-16_10h40.19.844,Experiment_English,3.2.4,Win32,60,,,1,0,340,165,1,339,ratio21_4_6_10.png,,,,,,,,,,,,
,,,,,,,,,,,,Half,Most,Less than half,More than half,Some,Many,None,All,Few,0.471296296,-0.302777778,1,0,0,QQQ3,,,,,,,,english,2020-06-16_10h40.19.844,Experiment_English,3.2.4,Win32,60,,,1,0,340,243,1,339,ratio34_3_7_8.png,,,,,,,,,,,,
,,,,,,,,,,,,Most,Less than half,All,Many,None,Few,Half,More than half,Some,-0.415740741,0.006481481,1,0,0,QQQ8,,,,,,,,english,2020-06-16_10h40.19.844,Experiment_English,3.2.4,Win32,60,,,1,0,340,200,1,339,ratio31_3_4_4.png,,,,,,,,,,,,
,,,,,,,,,,,,Half,All,Many,More than half,Most,None,Less than half,Some,Few,-0.488888889,0.357407407,1,0,0,QQQ7,,,,,,,,english,2020-06-16_10h40.19.844,Experiment_English,3.2.4,Win32,60,,,1,0,340,83,1,339,ratio13_1_4_10.png,,,,,,,,,,,,
,,,,,,,,,,,,None,Half,More than half,Many,Few,All,Most,Some,Less than half,-0.442592593,0.276851852,1,0,0,QQQ7,,,,,,,,english,2020-06-16_10h40.19.844,Experiment_English,3.2.4,Win32,60,,,1,0,340,338,1,339,ratio91_18_20_18.png,0.364814815,-0.419444444,1,0,0,continue_button_pause,1,0,1,0,1,0
,,,,,,,,,,,,,,,,,,,,,,,,,,,,,,,,,,english,2020-06-16_10h40.19.844,Experiment_English,3.2.4,Win32,60,,,1,0,340,338,1,339,ratio91_18_20_18.png,,,,,,,,,,,,
,,,,,,,,,,,,Most,Few,Many,More than half,None,Some,Half,Less than half,All,-0.396296296,-0.000925926,1,0,0,QQQ8,,,,,,,,english,2020-06-16_10h40.19.844,Experiment_English,3.2.4,Win32,60,,,1,0,340,85,1,339,ratio13_2_8_5.png,,,,,,,,,,,,
,,,,,,,,,,,,None,All,Few,Most,More than half,Some,Less than half,Half,Many,0.035185185,-0.025925926,1,0,0,QQQ5,,,,,,,,english,2020-06-16_10h40.19.844,Experiment_English,3.2.4,Win32,60,,,1,0,340,198,1,339,ratio23_8_20_7.png,,,,,,,,,,,,
,,,,,,,,,,,,Many,None,Most,More than half,Half,Few,Less than half,Some,All,-0.449074074,0.275,1,0,0,QQQ7,,,,,,,,english,2020-06-16_10h40.19.844,Experiment_English,3.2.4,Win32,60,,,1,0,340,106,1,339,ratio14_2_10_2.png,,,,,,,,,,,,
,,,,,,,,,,,,Few,More than half,Half,None,Less than half,Many,All,Most,Some,0.492592593,-0.026851852,1,0,0,QQQ2,,,,,,,,english,2020-06-16_10h40.19.844,Experiment_English,3.2.4,Win32,60,,,1,0,340,277,1,339,ratio41_16_20_8.png,,,,,,,,,,,,
,,,,,,,,,,,,Some,Less than half,Half,Most,Few,All,Many,More than half,None,-0.422222222,0.055555556,1,0,0,QQQ8,,,,,,,,english,2020-06-16_10h40.19.844,Experiment_English,3.2.4,Win32,60,,,1,0,340,305,1,339,ratio51_5_6_14.png,,,,,,,,,,,,
,,,,,,,,,,,,More than half,Less than half,None,Most,Many,Some,All,Half,Few,0.107407407,0.261111111,1,0,0,QQQ4,,,,,,,,english,2020-06-16_10h40.19.844,Experiment_English,3.2.4,Win32,60,,,1,0,340,269,1,339,ratio41_8_10_6.png,,,,,,,,,,,,
,,,,,,,,,,,,None,More than half,Many,Half,Some,Less than half,Most,Few,All,0.023148148,-0.294444444,1,0,0,QQQ6,,,,,,,,english,2020-06-16_10h40.19.844,Experiment_English,3.2.4,Win32,60,,,1,0,340,190,1,339,ratio23_6_15_3.png,,,,,,,,,,,,
,,,,,,,,,,,,Less than half,More than half,None,Many,Most,Some,Few,Half,All,0.505555556,-0.014814815,1,0,0,QQQ2,,,,,,,,english,2020-06-16_10h40.19.844,Experiment_English,3.2.4,Win32,60,,,1,0,340,246,1,339,ratio34_3_7_11.png,,,,,,,,,,,,
,,,,,,,,,,,,None,More than half,Half,Some,Less than half,Most,All,Few,Many,0.084259259,-0.34537037,1,0,0,QQQ6,,,,,,,,english,2020-06-16_10h40.19.844,Experiment_English,3.2.4,Win32,60,,,1,0,340,304,1,339,ratio51_5_6_13.png,,,,,,,,,,,,
,,,,,,,,,,,,Half,More than half,Few,Less than half,Many,Most,All,None,Some,0.425,-0.288888889,1,0,0,QQQ3,,,,,,,,english,2020-06-16_10h40.19.844,Experiment_English,3.2.4,Win32,60,,,1,0,340,127,1,339,ratio15_2_12_2.png,,,,,,,,,,,,
,,,,,,,,,,,,All,Most,None,Half,More than half,Few,Some,Less than half,Many,-0.439814815,0.000925926,1,0,0,QQQ8,,,,,,,,english,2020-06-16_10h40.19.844,Experiment_English,3.2.4,Win32,60,,,1,0,340,335,1,339,ratio91_18_20_11.png,,,,,,,,,,,,
,,,,,,,,,,,,Many,Some,None,Most,Less than half,Few,More than half,Half,All,0.058333333,0.292592593,1,0,0,QQQ4,,,,,,,,english,2020-06-16_10h40.19.844,Experiment_English,3.2.4,Win32,60,,,1,0,340,320,1,339,ratio91_9_10_1.png,,,,,,,,,,,,
,,,,,,,,,,,,None,Half,Few,Some,All,Most,More than half,Less than half,Many,0.500925926,-0.010185185,1,0,0,QQQ2,,,,,,,,english,2020-06-16_10h40.19.844,Experiment_English,3.2.4,Win32,60,,,1,0,340,150,1,339,ratio19_2_20_1.png,,,,,,,,,,,,
,,,,,,,,,,,,Half,Some,All,Few,Many,None,Less than half,More than half,Most,0.484259259,0.009259259,1,0,0,QQQ2,,,,,,,,english,2020-06-16_10h40.19.844,Experiment_English,3.2.4,Win32,60,,,1,0,340,322,1,339,ratio91_9_10_3.png,,,,,,,,,,,,
,,,,,,,,,,,,More than half,Some,Half,All,Many,None,Few,Most,Less than half,-0.440740741,0.292592593,1,0,0,QQQ7,,,,,,,,english,2020-06-16_10h40.19.844,Experiment_English,3.2.4,Win32,60,,,1,0,340,156,1,339,ratio19_2_20_14.png,,,,,,,,,,,,
,,,,,,,,,,,,Many,Less than half,Half,More than half,None,Most,Some,All,Few,0.090740741,0.35,1,0,0,QQQ4,,,,,,,,english,2020-06-16_10h40.19.844,Experiment_English,3.2.4,Win32,60,,,1,0,340,223,1,339,ratio32_3_5_5.png,,,,,,,,,,,,
,,,,,,,,,,,,Half,More than half,Most,Less than half,Few,Some,All,None,Many,0.547222222,0.05462963,1,0,0,QQQ2,,,,,,,,english,2020-06-16_10h40.19.844,Experiment_English,3.2.4,Win32,60,,,1,0,340,298,1,339,ratio43_8_14_14.png,,,,,,,,,,,,
,,,,,,,,,,,,Many,All,More than half,Few,None,Some,Half,Less than half,Most,0.511111111,-0.25462963,1,0,0,QQQ3,,,,,,,,english,2020-06-16_10h40.19.844,Experiment_English,3.2.4,Win32,60,,,1,0,340,273,1,339,ratio41_12_15_8.png,,,,,,,,,,,,
,,,,,,,,,,,,More than half,Half,Many,Some,Few,Most,All,None,Less than half,-0.417592593,-0.300925926,1,0,0,QQQ9,,,,,,,,english,2020-06-16_10h40.19.844,Experiment_English,3.2.4,Win32,60,,,1,0,340,248,1,339,ratio34_3_7_19.png,,,,,,,,,,,,
,,,,,,,,,,,,Half,All,Less than half,None,More than half,Few,Most,Many,Some,-0.005555556,-0.038888889,1,0,0,QQQ5,,,,,,,,english,2020-06-16_10h40.19.844,Experiment_English,3.2.4,Win32,60,,,1,0,340,170,1,339,ratio21_6_9_8.png,,,,,,,,,,,,
,,,,,,,,,,,,More than half,Few,Some,None,All,Less than half,Most,Half,Many,-0.028703704,0.269444444,1,0,0,QQQ4,,,,,,,,english,2020-06-16_10h40.19.844,Experiment_English,3.2.4,Win32,60,,,1,0,340,64,1,339,ratio0Y_0_7_1.png,,,,,,,,,,,,
,,,,,,,,,,,,Many,Few,Some,All,Most,More than half,None,Less than half,Half,-0.021296296,-0.266666667,1,0,0,QQQ6,,,,,,,,english,2020-06-16_10h40.19.844,Experiment_English,3.2.4,Win32,60,,,1,0,340,173,1,339,ratio21_8_12_9.png,,,,,,,,,,,,
,,,,,,,,,,,,All,Many,Some,Few,Most,More than half,None,Half,Less than half,-0.436111111,0.003703704,1,0,0,QQQ8,,,,,,,,english,2020-06-16_10h40.19.844,Experiment_English,3.2.4,Win32,60,,,1,0,340,236,1,339,ratio32_12_20_2.png,,,,,,,,,,,,
,,,,,,,,,,,,All,Most,None,More than half,Half,Few,Some,Many,Less than half,0.037037037,0.305555556,1,0,0,QQQ4,,,,,,,,english,2020-06-16_10h40.19.844,Experiment_English,3.2.4,Win32,60,,,1,0,340,251,1,339,ratio34_6_14_2.png,,,,,,,,,,,,
,,,,,,,,,,,,None,Most,Half,More than half,Many,Less than half,Some,Few,All,0.074074074,0.024074074,1,0,0,QQQ5,,,,,,,,english,2020-06-16_10h40.19.844,Experiment_English,3.2.4,Win32,60,,,1,0,340,201,1,339,ratio31_3_4_7.png,,,,,,,,,,,,
,,,,,,,,,,,,Few,Most,All,Many,None,Some,More than half,Half,Less than half,0.07962963,0.077777778,1,0,0,QQQ5,,,,,,,,english,2020-06-16_10h40.19.844,Experiment_English,3.2.4,Win32,60,,,1,0,340,65,1,339,ratio0Y_0_8_4.png,,,,,,,,,,,,
,,,,,,,,,,,,All,None,Few,Half,Less than half,Some,More than half,Many,Most,-0.446296296,0.336111111,1,0,0,QQQ7,,,,,,,,english,2020-06-16_10h40.19.844,Experiment_English,3.2.4,Win32,60,,,1,0,340,163,1,339,ratio21_4_6_1.png,,,,,,,,,,,,
,,,,,,,,,,,,All,Many,Half,Some,Few,More than half,Most,None,Less than half,0.555555556,-0.267592593,1,0,0,QQQ3,,,,,,,,english,2020-06-16_10h40.19.844,Experiment_English,3.2.4,Win32,60,,,1,0,340,96,1,339,ratio13_5_20_1.png,,,,,,,,,,,,
,,,,,,,,,,,,Few,Some,More than half,None,Most,Less than half,Many,All,Half,0.016666667,0.267592593,1,0,0,QQQ4,,,,,,,,english,2020-06-16_10h40.19.844,Experiment_English,3.2.4,Win32,60,,,1,0,340,74,1,339,ratio0Y_0_15_10.png,,,,,,,,,,,,
,,,,,,,,,,,,More than half,Less than half,Few,Most,Some,Many,Half,None,All,0.068518519,0.335185185,1,0,0,QQQ4,,,,,,,,english,2020-06-16_10h40.19.844,Experiment_English,3.2.4,Win32,60,,,1,0,340,218,1,339,ratio31_15_20_7.png,,,,,,,,,,,,
,,,,,,,,,,,,Some,None,Less than half,All,Few,Most,Many,More than half,Half,0.019444444,-0.033333333,1,0,0,QQQ5,,,,,,,,english,2020-06-16_10h40.19.844,Experiment_English,3.2.4,Win32,60,,,1,0,340,7,1,339,ratio12_3_9_2.png,,,,,,,,,,,,
,,,,,,,,,,,,Some,None,Most,Half,All,Less than half,More than half,Many,Few,-0.519444444,-0.253703704,1,0,0,QQQ9,,,,,,,,english,2020-06-16_10h40.19.844,Experiment_English,3.2.4,Win32,60,,,1,0,340,0,1,339,ratio12_1_3_3.png,,,,,,,,,,,,
,,,,,,,,,,,,Many,Most,None,Less than half,Some,Few,More than half,Half,All,-0.011111111,-0.322222222,1,0,0,QQQ6,,,,,,,,english,2020-06-16_10h40.19.844,Experiment_English,3.2.4,Win32,60,,,1,0,340,88,1,339,ratio13_3_12_5.png,,,,,,,,,,,,
,,,,,,,,,,,,All,More than half,Less than half,Few,Some,Most,Many,Half,None,0.507407407,0.253703704,1,0,0,QQQ1,,,,,,,,english,2020-06-16_10h40.19.844,Experiment_English,3.2.4,Win32,60,,,1,0,340,56,1,339,ratioX0_17_17_10.png,0.34537037,-0.396296296,1,0,0,continue_button_pause,1,0,1,0,1,0
,,,,,,,,,,,,,,,,,,,,,,,,,,,,,,,,,,english,2020-06-16_10h40.19.844,Experiment_English,3.2.4,Win32,60,,,1,0,340,56,1,339,ratioX0_17_17_10.png,,,,,,,,,,,,
,,,,,,,,,,,,Some,Most,All,Many,Half,None,More than half,Few,Less than half,0.043518519,-0.012962963,1,0,0,QQQ5,,,,,,,,english,2020-06-16_10h40.19.844,Experiment_English,3.2.4,Win32,60,,,1,0,340,259,1,339,ratio34_6_14_19.png,,,,,,,,,,,,
,,,,,,,,,,,,Most,More than half,Less than half,All,Few,Some,None,Many,Half,-0.457407407,0.242592593,1,0,0,QQQ7,,,,,,,,english,2020-06-16_10h40.19.844,Experiment_English,3.2.4,Win32,60,,,1,0,340,78,1,339,ratio0Y_0_19_1.png,,,,,,,,,,,,
,,,,,,,,,,,,None,Less than half,Some,Half,All,Few,More than half,Most,Many,-0.512962963,0.234259259,1,0,0,QQQ7,,,,,,,,english,2020-06-16_10h40.19.844,Experiment_English,3.2.4,Win32,60,,,1,0,340,175,1,339,ratio21_10_15_2.png,,,,,,,,,,,,
,,,,,,,,,,,,None,Most,Some,More than half,Few,Many,All,Less than half,Half,-0.411111111,-0.00462963,1,0,0,QQQ8,,,,,,,,english,2020-06-16_10h40.19.844,Experiment_English,3.2.4,Win32,60,,,1,0,340,98,1,339,ratio13_5_20_3.png,,,,,,,,,,,,
,,,,,,,,,,,,Many,More than half,Some,Half,Most,None,Few,Less than half,All,-0.441666667,0.017592593,1,0,0,QQQ8,,,,,,,,english,2020-06-16_10h40.19.844,Experiment_English,3.2.4,Win32,60,,,1,0,340,11,1,339,ratio12_4_12_7.png,,,,,,,,,,,,
,,,,,,,,,,,,Most,Few,Half,Less than half,Some,More than half,Many,All,None,-0.030555556,-0.360185185,1,0,0,QQQ6,,,,,,,,english,2020-06-16_10h40.19.844,Experiment_English,3.2.4,Win32,60,,,1,0,340,339,1,339,ratio91_18_20_19.png,,,,,,,,,,,,
,,,,,,,,,,,,Half,Some,Less than half,Most,None,Few,Many,More than half,All,0.074074074,0.262962963,1,0,0,QQQ4,,,,,,,,english,2020-06-16_10h40.19.844,Experiment_English,3.2.4,Win32,60,,,1,0,340,262,1,339,ratio41_4_5_4.png,,,,,,,,,,,,
,,,,,,,,,,,,More than half,Most,Less than half,Many,None,Few,Some,All,Half,-0.09537037,0.299074074,1,0,0,QQQ4,,,,,,,,english,2020-06-16_10h40.19.844,Experiment_English,3.2.4,Win32,60,,,1,0,340,209,1,339,ratio31_9_12_6.png,,,,,,,,,,,,
,,,,,,,,,,,,Half,Few,None,All,Less than half,More than half,Many,Some,Most,-0.459259259,-0.274074074,1,0,0,QQQ9,,,,,,,,english,2020-06-16_10h40.19.844,Experiment_English,3.2.4,Win32,60,,,1,0,340,271,1,339,ratio41_12_15_6.png,,,,,,,,,,,,
,,,,,,,,,,,,Many,Some,Less than half,Most,Few,Half,All,More than half,None,0.018518519,0.371296296,1,0,0,QQQ4,,,,,,,,english,2020-06-16_10h40.19.844,Experiment_English,3.2.4,Win32,60,,,1,0,340,27,1,339,ratio11_5_10_7.png,,,,,,,,,,,,
,,,,,,,,,,,,Less than half,Some,None,Few,More than half,Most,All,Many,Half,-0.047222222,-0.318518519,1,0,0,QQQ6,,,,,,,,english,2020-06-16_10h40.19.844,Experiment_English,3.2.4,Win32,60,,,1,0,340,233,1,339,ratio32_9_15_9.png,,,,,,,,,,,,
,,,,,,,,,,,,Most,None,More than half,All,Few,Many,Some,Less than half,Half,-0.05,-0.253703704,1,0,0,QQQ6,,,,,,,,english,2020-06-16_10h40.19.844,Experiment_English,3.2.4,Win32,60,,,1,0,340,4,1,339,ratio12_2_6_5.png,,,,,,,,,,,,
,,,,,,,,,,,,All,None,Less than half,Many,Most,Half,Some,Few,More than half,-0.053703704,-0.25462963,1,0,0,QQQ6,,,,,,,,english,2020-06-16_10h40.19.844,Experiment_English,3.2.4,Win32,60,,,1,0,340,185,1,339,ratio23_4_10_1.png,,,,,,,,,,,,
,,,,,,,,,,,,All,More than half,Many,Less than half,Most,None,Few,Half,Some,0.043518519,0.336111111,1,0,0,QQQ4,,,,,,,,english,2020-06-16_10h40.19.844,Experiment_English,3.2.4,Win32,60,,,1,0,340,249,1,339,ratio34_3_7_20.png,,,,,,,,,,,,
,,,,,,,,,,,,Half,Less than half,Many,Most,More than half,None,All,Some,Few,0.102777778,0.009259259,1,0,0,QQQ5,,,,,,,,english,2020-06-16_10h40.19.844,Experiment_English,3.2.4,Win32,60,,,1,0,340,318,1,339,ratio51_15_18_18.png,,,,,,,,,,,,
,,,,,,,,,,,,Half,Many,Most,More than half,Few,Some,Less than half,All,None,0.012962963,0.262037037,1,0,0,QQQ4,,,,,,,,english,2020-06-16_10h40.19.844,Experiment_English,3.2.4,Win32,60,,,1,0,340,258,1,339,ratio34_6_14_14.png,,,,,,,,,,,,
,,,,,,,,,,,,Many,Less than half,More than half,None,Some,Few,All,Most,Half,-0.076851852,-0.352777778,1,0,0,QQQ6,,,,,,,,english,2020-06-16_10h40.19.844,Experiment_English,3.2.4,Win32,60,,,1,0,340,137,1,339,ratio15_3_18_16.png,,,,,,,,,,,,
,,,,,,,,,,,,None,Few,Some,Many,More than half,Less than half,Most,All,Half,0.018518519,-0.033333333,1,0,0,QQQ5,,,,,,,,english,2020-06-16_10h40.19.844,Experiment_English,3.2.4,Win32,60,,,1,0,340,234,1,339,ratio32_9_15_10.png,,,,,,,,,,,,
,,,,,,,,,,,,Many,All,More than half,Few,Most,Some,Less than half,Half,None,-0.097222222,0.010185185,1,0,0,QQQ5,,,,,,,,english,2020-06-16_10h40.19.844,Experiment_English,3.2.4,Win32,60,,,1,0,340,264,1,339,ratio41_4_5_6.png,,,,,,,,,,,,
,,,,,,,,,,,,Half,Few,None,More than half,All,Less than half,Most,Some,Many,0.575,-0.307407407,1,0,0,QQQ3,,,,,,,,english,2020-06-16_10h40.19.844,Experiment_English,3.2.4,Win32,60,,,1,0,340,70,1,339,ratio0Y_0_12_5.png,,,,,,,,,,,,
,,,,,,,,,,,,More than half,Less than half,Half,All,Most,Few,None,Many,Some,0.057407407,-0.287962963,1,0,0,QQQ6,,,,,,,,english,2020-06-16_10h40.19.844,Experiment_English,3.2.4,Win32,60,,,1,0,340,18,1,339,ratio12_6_18_7.png,,,,,,,,,,,,
,,,,,,,,,,,,None,Few,Half,Less than half,More than half,Many,All,Most,Some,0.527777778,-0.016666667,1,0,0,QQQ2,,,,,,,,english,2020-06-16_10h40.19.844,Experiment_English,3.2.4,Win32,60,,,1,0,340,154,1,339,ratio19_2_20_11.png,,,,,,,,,,,,
,,,,,,,,,,,,Half,Some,Most,All,Few,More than half,None,Many,Less than half,-0.466666667,-0.330555556,1,0,0,QQQ9,,,,,,,,english,2020-06-16_10h40.19.844,Experiment_English,3.2.4,Win32,60,,,1,0,340,3,1,339,ratio12_2_6_3.png,,,,,,,,,,,,
,,,,,,,,,,,,Half,None,More than half,Less than half,Most,All,Many,Few,Some,0.05462963,-0.021296296,1,0,0,QQQ5,,,,,,,,english,2020-06-16_10h40.19.844,Experiment_English,3.2.4,Win32,60,,,1,0,340,337,1,339,ratio91_18_20_16.png,,,,,,,,,,,,
,,,,,,,,,,,,Half,Most,Some,Many,Few,None,All,More than half,Less than half,0.018518519,-0.048148148,1,0,0,QQQ5,,,,,,,,english,2020-06-16_10h40.19.844,Experiment_English,3.2.4,Win32,60,,,1,0,340,114,1,339,ratio14_3_15_10.png,,,,,,,,,,,,
,,,,,,,,,,,,More than half,Few,None,Some,Many,All,Most,Half,Less than half,-0.406481481,-0.280555556,1,0,0,QQQ9,,,,,,,,english,2020-06-16_10h40.19.844,Experiment_English,3.2.4,Win32,60,,,1,0,340,91,1,339,ratio13_3_12_10.png,,,,,,,,,,,,
,,,,,,,,,,,,Less than half,Half,Most,Some,None,Many,All,More than half,Few,-0.425,-0.051851852,1,0,0,QQQ8,,,,,,,,english,2020-06-16_10h40.19.844,Experiment_English,3.2.4,Win32,60,,,1,0,340,286,1,339,ratio43_4_7_15.png,,,,,,,,,,,,
,,,,,,,,,,,,All,None,Most,Many,Less than half,More than half,Half,Few,Some,-0.056481481,-0.306481481,1,0,0,QQQ6,,,,,,,,english,2020-06-16_10h40.19.844,Experiment_English,3.2.4,Win32,60,,,1,0,340,178,1,339,ratio21_12_18_2.png,,,,,,,,,,,,
,,,,,,,,,,,,Less than half,All,More than half,Half,None,Most,Few,Some,Many,-0.408333333,0.261111111,1,0,0,QQQ7,,,,,,,,english,2020-06-16_10h40.19.844,Experiment_English,3.2.4,Win32,60,,,1,0,340,158,1,339,ratio19_2_20_17.png,,,,,,,,,,,,
,,,,,,,,,,,,Less than half,Few,Some,Many,All,Half,More than half,None,Most,0.47962963,0.041666667,1,0,0,QQQ2,,,,,,,,english,2020-06-16_10h40.19.844,Experiment_English,3.2.4,Win32,60,,,1,0,340,100,1,339,ratio14_1_5_3.png,,,,,,,,,,,,
,,,,,,,,,,,,Some,Many,None,Half,All,Few,Most,Less than half,More than half,-0.390740741,-0.261111111,1,0,0,QQQ9,,,,,,,,english,2020-06-16_10h40.19.844,Experiment_English,3.2.4,Win32,60,,,1,0,340,206,1,339,ratio31_6_8_6.png,,,,,,,,,,,,
,,,,,,,,,,,,All,Half,Less than half,Many,Some,Most,Few,More than half,None,0.055555556,0.242592593,1,0,0,QQQ4,,,,,,,,english,2020-06-16_10h40.19.844,Experiment_English,3.2.4,Win32,60,,,1,0,340,203,1,339,ratio31_3_4_9.png,,,,,,,,,,,,
,,,,,,,,,,,,Many,Some,More than half,Less than half,Half,All,Most,None,Few,-0.066666667,0.262962963,1,0,0,QQQ4,,,,,,,,english,2020-06-16_10h40.19.844,Experiment_English,3.2.4,Win32,60,,,1,0,340,180,1,339,ratio23_2_5_4.png,,,,,,,,,,,,
,,,,,,,,,,,,Many,None,Few,All,More than half,Less than half,Half,Most,Some,0.049074074,-0.275925926,1,0,0,QQQ6,,,,,,,,english,2020-06-16_10h40.19.844,Experiment_English,3.2.4,Win32,60,,,1,0,340,12,1,339,ratio12_4_12_10.png,,,,,,,,,,,,
