continue_mouse.x,continue_mouse.y,continue_mouse.leftButton,continue_mouse.midButton,continue_mouse.rightButton,continue_mouse.clicked_name,continue_mouse_2.x,continue_mouse_2.y,continue_mouse_2.leftButton,continue_mouse_2.midButton,continue_mouse_2.rightButton,continue_mouse_2.clicked_name,Q1,Q2,Q3,Q4,Q5,Q6,Q7,Q8,Q9,select_answer.x,select_answer.y,select_answer.leftButton,select_answer.midButton,select_answer.rightButton,select_answer.clicked_name,trial.thisRepN,trial.thisTrialN,trial.thisN,trial.thisIndex,trial.ran,trial.order,trials,Native tongue*,date,expName,psychopyVersion,OS,frameRate,key_resp.keys,key_resp.rt,Actual_Experiment.thisRepN,Actual_Experiment.thisTrialN,Actual_Experiment.thisN,Actual_Experiment.thisIndex,Actual_Experiment.ran,Actual_Experiment.order,Pic,mouse_pause.x,mouse_pause.y,mouse_pause.leftButton,mouse_pause.midButton,mouse_pause.rightButton,mouse_pause.clicked_name,pause.thisRepN,pause.thisTrialN,pause.thisN,pause.thisIndex,pause.ran,pause.order
0.346576212,-0.443291361,1,0,0,continue_button,0.320631179,-0.411786598,1,0,0,continue_button_2,None,Many,Few,Some,Half,All,Less than half,More than half,Most,0.517072882,-0.009636786,1,0,0,QQQ2,1,0,16,0,1,15,ratio91_9_10_19.png,English,2020-07-02_10h59.49.290,Experiment_English,3.2.4,Win32,60,,,,,,,,,,,,,,,,,,,,,
,,,,,,,,,,,,None,All,More than half,Some,Most,Less than half,Many,Half,Few,-0.454016849,-0.275574527,1,0,0,QQQ9,1,0,16,9,1,15,ratio19_1_10_8.png,English,2020-07-02_10h59.49.290,Experiment_English,3.2.4,Win32,60,,,,,,,,,,,,,,,,,,,,,
,,,,,,,,,,,,Many,None,Some,Most,Few,All,More than half,Half,Less than half,0.430897935,0.283172713,1,0,0,QQQ1,1,0,16,1,1,15,ratio51_5_6_8.png,English,2020-07-02_10h59.49.290,Experiment_English,3.2.4,Win32,60,,,,,,,,,,,,,,,,,,,,,
,,,,,,,,,,,,None,More than half,Half,Less than half,Some,Many,All,Most,Few,0.097317493,0.262787241,1,0,0,QQQ4,1,0,16,13,1,15,ratio12_5_15_1.png,English,2020-07-02_10h59.49.290,Experiment_English,3.2.4,Win32,60,,,,,,,,,,,,,,,,,,,,,
,,,,,,,,,,,,More than half,Most,Some,All,None,Half,Less than half,Many,Few,0.071372347,-0.005003725,1,0,0,QQQ5,1,0,16,15,1,15,ratio0Y_0_14_10.png,English,2020-07-02_10h59.49.290,Experiment_English,3.2.4,Win32,60,,,,,,,,,,,,,,,,,,,,,
,,,,,,,,,,,,Few,All,More than half,Less than half,Most,Some,Half,Many,None,0.083418308,0.260007404,1,0,0,QQQ4,,,,,,,,English,2020-07-02_10h59.49.290,Experiment_English,3.2.4,Win32,60,b,9.082000017,1,0,340,184,1,339,ratio23_2_5_10.png,,,,,,,,,,,,
,,,,,,,,,,,,Few,Many,Most,More than half,None,All,Less than half,Some,Half,0.447576957,0.288732373,1,0,0,QQQ1,,,,,,,,English,2020-07-02_10h59.49.290,Experiment_English,3.2.4,Win32,60,,,1,0,340,135,1,339,ratio15_3_18_7.png,,,,,,,,,,,,
,,,,,,,,,,,,Half,Some,None,All,Few,Most,More than half,Less than half,Many,-0.027775173,-0.259822118,1,0,0,QQQ6,,,,,,,,English,2020-07-02_10h59.49.290,Experiment_English,3.2.4,Win32,60,,,1,0,340,224,1,339,ratio32_3_5_10.png,,,,,,,,,,,,
,,,,,,,,,,,,Some,Few,Less than half,More than half,None,Half,All,Most,Many,0.470742265,0.268346915,1,0,0,QQQ1,,,,,,,,English,2020-07-02_10h59.49.290,Experiment_English,3.2.4,Win32,60,,,1,0,340,284,1,339,ratio43_4_7_11.png,,,,,,,,,,,,
,,,,,,,,,,,,More than half,All,Less than half,Few,Many,None,Most,Some,Half,0.043573977,-0.0031505,1,0,0,QQQ5,,,,,,,,English,2020-07-02_10h59.49.290,Experiment_English,3.2.4,Win32,60,,,1,0,340,319,1,339,ratio51_15_18_20.png,,,,,,,,,,,,
,,,,,,,,,,,,None,More than half,Less than half,Half,Most,Few,Some,All,Many,-0.490154702,0.272979977,1,0,0,QQQ7,,,,,,,,English,2020-07-02_10h59.49.290,Experiment_English,3.2.4,Win32,60,,,1,0,340,252,1,339,ratio34_6_14_3.png,,,,,,,,,,,,
,,,,,,,,,,,,Many,All,None,Half,Some,Most,Less than half,Few,More than half,-0.351162879,0.362861374,1,0,0,QQQ7,,,,,,,,English,2020-07-02_10h59.49.290,Experiment_English,3.2.4,Win32,60,,,1,0,340,250,1,339,ratio34_6_14_1.png,,,,,,,,,,,,
,,,,,,,,,,,,Most,More than half,Few,Many,All,Less than half,None,Half,Some,0.045427258,-0.275574527,1,0,0,QQQ6,,,,,,,,English,2020-07-02_10h59.49.290,Experiment_English,3.2.4,Win32,60,,,1,0,340,5,1,339,ratio12_2_6_9.png,,,,,,,,,,,,
,,,,,,,,,,,,Half,Few,More than half,Many,All,Less than half,None,Most,Some,0.467035929,-0.029095702,1,0,0,QQQ2,,,,,,,,English,2020-07-02_10h59.49.290,Experiment_English,3.2.4,Win32,60,,,1,0,340,33,1,339,ratio11_7_14_8.png,,,,,,,,,,,,
,,,,,,,,,,,,Half,All,Few,Some,More than half,None,Less than half,Most,Many,0.442943895,-0.329318043,1,0,0,QQQ3,,,,,,,,English,2020-07-02_10h59.49.290,Experiment_English,3.2.4,Win32,60,,,1,0,340,0,1,339,ratio12_1_3_3.png,,,,,,,,,,,,
,,,,,,,,,,,,Most,Some,None,Less than half,All,Many,Few,More than half,Half,0.44109067,0.021868033,1,0,0,QQQ2,,,,,,,,English,2020-07-02_10h59.49.290,Experiment_English,3.2.4,Win32,60,,,1,0,340,7,1,339,ratio12_3_9_2.png,,,,,,,,,,,,
,,,,,,,,,,,,Less than half,More than half,Many,None,Half,Most,Some,All,Few,-0.531852285,-0.250555994,1,0,0,QQQ9,,,,,,,,English,2020-07-02_10h59.49.290,Experiment_English,3.2.4,Win32,60,,,1,0,340,105,1,339,ratio14_2_10_1.png,,,,,,,,,,,,
,,,,,,,,,,,,Few,All,None,Some,Many,Most,Less than half,More than half,Half,-0.014802544,-0.285767263,1,0,0,QQQ6,,,,,,,,English,2020-07-02_10h59.49.290,Experiment_English,3.2.4,Win32,60,,,1,0,340,201,1,339,ratio31_3_4_7.png,,,,,,,,,,,,
,,,,,,,,,,,,Some,More than half,Half,Most,None,Few,Many,All,Less than half,0.025968343,-0.303372898,1,0,0,QQQ6,,,,,,,,English,2020-07-02_10h59.49.290,Experiment_English,3.2.4,Win32,60,,,1,0,340,213,1,339,ratio31_12_16_2.png,,,,,,,,,,,,
,,,,,,,,,,,,Some,Few,Many,All,Most,Less than half,Half,None,More than half,0.550430926,0.296145286,1,0,0,QQQ1,,,,,,,,English,2020-07-02_10h59.49.290,Experiment_English,3.2.4,Win32,60,,,1,0,340,205,1,339,ratio31_6_8_2.png,,,,,,,,,,,,
,,,,,,,,,,,,Many,Less than half,Half,More than half,Some,Most,All,None,Few,-0.514246651,-0.269088298,1,0,0,QQQ9,,,,,,,,English,2020-07-02_10h59.49.290,Experiment_English,3.2.4,Win32,60,,,1,0,340,157,1,339,ratio19_2_20_16.png,,,,,,,,,,,,
,,,,,,,,,,,,More than half,None,Less than half,Many,All,Half,Some,Few,Most,-0.490154702,0.333209779,1,0,0,QQQ7,,,,,,,,English,2020-07-02_10h59.49.290,Experiment_English,3.2.4,Win32,60,,,1,0,340,24,1,339,ratio11_4_8_3.png,,,,,,,,,,,,
,,,,,,,,,,,,Less than half,Some,Few,Many,All,More than half,Most,Half,None,0.416998749,0.207190501,1,0,0,QQQ1,,,,,,,,English,2020-07-02_10h59.49.290,Experiment_English,3.2.4,Win32,60,,,1,0,340,187,1,339,ratio23_4_10_5.png,,,,,,,,,,,,
,,,,,,,,,,,,Few,More than half,Half,Some,None,Most,Less than half,All,Many,-0.024995336,0.255374343,1,0,0,QQQ4,,,,,,,,English,2020-07-02_10h59.49.290,Experiment_English,3.2.4,Win32,60,,,1,0,340,37,1,339,ratio11_9_18_8.png,,,,,,,,,,,,
,,,,,,,,,,,,Most,More than half,Many,All,Some,Half,Few,None,Less than half,-0.443824113,0.274833188,1,0,0,QQQ7,,,,,,,,English,2020-07-02_10h59.49.290,Experiment_English,3.2.4,Win32,60,,,1,0,340,159,1,339,ratio19_2_20_20.png,,,,,,,,,,,,
,,,,,,,,,,,,All,Most,More than half,Few,Half,Less than half,None,Some,Many,-0.417878968,-0.026315808,1,0,0,QQQ8,,,,,,,,English,2020-07-02_10h59.49.290,Experiment_English,3.2.4,Win32,60,,,1,0,340,253,1,339,ratio34_6_14_5.png,,,,,,,,,,,,
,,,,,,,,,,,,All,Few,None,Some,More than half,Most,Half,Less than half,Many,-0.012022707,-0.275574527,1,0,0,QQQ6,,,,,,,,English,2020-07-02_10h59.49.290,Experiment_English,3.2.4,Win32,60,,,1,0,340,325,1,339,ratio91_9_10_8.png,,,,,,,,,,,,
,,,,,,,,,,,,None,Most,More than half,Many,All,Less than half,Half,Some,Few,-0.463282972,-0.307079403,1,0,0,QQQ9,,,,,,,,English,2020-07-02_10h59.49.290,Experiment_English,3.2.4,Win32,60,,,1,0,340,90,1,339,ratio13_3_12_7.png,,,,,,,,,,,,
,,,,,,,,,,,,More than half,Some,Less than half,All,Most,Half,None,Many,Few,-0.398420108,-0.055967403,1,0,0,QQQ8,,,,,,,,English,2020-07-02_10h59.49.290,Experiment_English,3.2.4,Win32,60,,,1,0,340,302,1,339,ratio51_5_6_5.png,,,,,,,,,,,,
,,,,,,,,,,,,All,Many,Some,None,Most,More than half,Half,Few,Less than half,-0.449383759,-0.017049741,1,0,0,QQQ8,,,,,,,,English,2020-07-02_10h59.49.290,Experiment_English,3.2.4,Win32,60,,,1,0,340,147,1,339,ratio19_1_10_18.png,,,,,,,,,,,,
,,,,,,,,,,,,All,Many,Some,Half,Most,None,Less than half,Few,More than half,-0.003683252,0.273906589,1,0,0,QQQ4,,,,,,,,English,2020-07-02_10h59.49.290,Experiment_English,3.2.4,Win32,60,,,1,0,340,22,1,339,ratio11_3_6_6.png,,,,,,,,,,,,
,,,,,,,,,,,,Few,Less than half,None,All,Some,Most,Many,Half,More than half,-0.033334847,-0.286693932,1,0,0,QQQ6,,,,,,,,English,2020-07-02_10h59.49.290,Experiment_English,3.2.4,Win32,60,,,1,0,340,219,1,339,ratio31_15_20_10.png,,,,,,,,,,,,
,,,,,,,,,,,,None,Few,Many,All,More than half,Most,Half,Some,Less than half,0.040794197,0.221089686,1,0,0,QQQ4,,,,,,,,English,2020-07-02_10h59.49.290,Experiment_English,3.2.4,Win32,60,,,1,0,340,43,1,339,ratioX0_6_6_9.png,,,,,,,,,,,,
,,,,,,,,,,,,Few,Most,Half,None,More than half,All,Less than half,Many,Some,0.094537656,0.238695321,1,0,0,QQQ4,,,,,,,,English,2020-07-02_10h59.49.290,Experiment_English,3.2.4,Win32,60,,,1,0,340,76,1,339,ratio0Y_0_17_10.png,,,,,,,,,,,,
,,,,,,,,,,,,All,Less than half,More than half,Many,None,Few,Some,Most,Half,0.076932021,-0.270941466,1,0,0,QQQ6,,,,,,,,English,2020-07-02_10h59.49.290,Experiment_English,3.2.4,Win32,60,,,1,0,340,145,1,339,ratio19_1_10_15.png,,,,,,,,,,,,
,,,,,,,,,,,,More than half,Less than half,None,Most,Many,Few,Some,All,Half,-0.079665407,0.229429197,1,0,0,QQQ4,,,,,,,,English,2020-07-02_10h59.49.290,Experiment_English,3.2.4,Win32,60,,,1,0,340,172,1,339,ratio21_8_12_6.png,,,,,,,,,,,,
,,,,,,,,,,,,All,Few,Many,Some,Half,Less than half,None,More than half,Most,0.442943895,0.241475129,1,0,0,QQQ1,,,,,,,,English,2020-07-02_10h59.49.290,Experiment_English,3.2.4,Win32,60,,,1,0,340,52,1,339,ratioX0_13_13_10.png,,,,,,,,,,,,
,,,,,,,,,,,,More than half,Half,Most,Few,All,None,Less than half,Some,Many,0.066739285,0.239621933,1,0,0,QQQ4,,,,,,,,English,2020-07-02_10h59.49.290,Experiment_English,3.2.4,Win32,60,,,1,0,340,104,1,339,ratio14_1_5_10.png,,,,,,,,,,,,
,,,,,,,,,,,,Half,Few,Some,All,More than half,None,Many,Most,Less than half,-0.38730076,-0.283914095,1,0,0,QQQ9,,,,,,,,English,2020-07-02_10h59.49.290,Experiment_English,3.2.4,Win32,60,,,1,0,340,194,1,339,ratio23_6_15_10.png,0.348429436,-0.385841396,1,0,0,continue_button_pause,1,0,1,0,1,0
,,,,,,,,,,,,,,,,,,,,,,,,,,,,,,,,,,English,2020-07-02_10h59.49.290,Experiment_English,3.2.4,Win32,60,,,1,0,340,194,1,339,ratio23_6_15_10.png,,,,,,,,,,,,
,,,,,,,,,,,,None,Few,All,Some,Less than half,Half,More than half,Many,Most,-0.496641016,-0.352483351,1,0,0,QQQ9,,,,,,,,English,2020-07-02_10h59.49.290,Experiment_English,3.2.4,Win32,60,,,1,0,340,272,1,339,ratio41_12_15_7.png,,,,,,,,,,,,
,,,,,,,,,,,,Some,None,More than half,Few,Many,All,Less than half,Most,Half,-0.422512058,-0.299666448,1,0,0,QQQ9,,,,,,,,English,2020-07-02_10h59.49.290,Experiment_English,3.2.4,Win32,60,,,1,0,340,223,1,339,ratio32_3_5_5.png,,,,,,,,,,,,
,,,,,,,,,,,,Less than half,More than half,Most,Some,None,Many,Few,Half,All,-0.388227373,0.250741281,1,0,0,QQQ7,,,,,,,,English,2020-07-02_10h59.49.290,Experiment_English,3.2.4,Win32,60,,,1,0,340,182,1,339,ratio23_2_5_7.png,,,,,,,,,,,,
,,,,,,,,,,,,Half,Some,Many,Most,None,Less than half,More than half,Few,All,-0.024995336,0.283172713,1,0,0,QQQ4,,,,,,,,English,2020-07-02_10h59.49.290,Experiment_English,3.2.4,Win32,60,,,1,0,340,326,1,339,ratio91_9_10_10.png,,,,,,,,,,,,
,,,,,,,,,,,,Most,Some,All,None,Many,Less than half,More than half,Few,Half,0.012069158,0.277613025,1,0,0,QQQ4,,,,,,,,English,2020-07-02_10h59.49.290,Experiment_English,3.2.4,Win32,60,,,1,0,340,62,1,339,ratio0Y_0_5_4.png,,,,,,,,,,,,
,,,,,,,,,,,,Few,Most,Half,Less than half,Many,All,Some,More than half,None,-0.445677338,-0.022609359,1,0,0,QQQ8,,,,,,,,English,2020-07-02_10h59.49.290,Experiment_English,3.2.4,Win32,60,,,1,0,340,278,1,339,ratio41_16_20_9.png,,,,,,,,,,,,
,,,,,,,,,,,,Some,Few,Most,Half,All,None,Many,Less than half,More than half,0.478155277,-0.275574527,1,0,0,QQQ3,,,,,,,,English,2020-07-02_10h59.49.290,Experiment_English,3.2.4,Win32,60,,,1,0,340,295,1,339,ratio43_8_14_11.png,,,,,,,,,,,,
,,,,,,,,,,,,Few,None,Some,Half,All,Most,Less than half,More than half,Many,0.42904471,0.223869495,1,0,0,QQQ1,,,,,,,,English,2020-07-02_10h59.49.290,Experiment_English,3.2.4,Win32,60,,,1,0,340,134,1,339,ratio15_3_18_5.png,,,,,,,,,,,,
,,,,,,,,,,,,None,Few,Most,Less than half,More than half,Many,All,Half,Some,-0.039821133,0.006115567,1,0,0,QQQ5,,,,,,,,English,2020-07-02_10h59.49.290,Experiment_English,3.2.4,Win32,60,,,1,0,340,174,1,339,ratio21_10_15_1.png,,,,,,,,,,,,
,,,,,,,,,,,,Most,None,Some,Few,Less than half,More than half,All,Many,Half,0.026894898,0.281319474,1,0,0,QQQ4,,,,,,,,English,2020-07-02_10h59.49.290,Experiment_English,3.2.4,Win32,60,,,1,0,340,94,1,339,ratio13_4_16_8.png,,,,,,,,,,,,
,,,,,,,,,,,,Most,Many,Some,Half,All,Less than half,Few,More than half,None,-0.404906395,0.260007404,1,0,0,QQQ7,,,,,,,,English,2020-07-02_10h59.49.290,Experiment_English,3.2.4,Win32,60,,,1,0,340,113,1,339,ratio14_3_15_8.png,,,,,,,,,,,,
,,,,,,,,,,,,Most,Some,Half,More than half,Few,Many,All,None,Less than half,0.009289321,0.020014809,1,0,0,QQQ5,,,,,,,,English,2020-07-02_10h59.49.290,Experiment_English,3.2.4,Win32,60,,,1,0,340,81,1,339,ratio13_1_4_5.png,,,,,,,,,,,,
,,,,,,,,,,,,Less than half,Most,None,More than half,Few,Some,All,Half,Many,-0.529999032,0.007968848,1,0,0,QQQ8,,,,,,,,English,2020-07-02_10h59.49.290,Experiment_English,3.2.4,Win32,60,,,1,0,340,235,1,339,ratio32_12_20_1.png,,,,,,,,,,,,
,,,,,,,,,,,,All,Most,Half,More than half,Less than half,Many,Few,None,Some,0.003729646,0.225722748,1,0,0,QQQ4,,,,,,,,English,2020-07-02_10h59.49.290,Experiment_English,3.2.4,Win32,60,,,1,0,340,296,1,339,ratio43_8_14_12.png,,,,,,,,,,,,
,,,,,,,,,,,,Many,Half,Less than half,Few,Some,None,All,Most,More than half,-0.356722553,0.240548545,1,0,0,QQQ7,,,,,,,,English,2020-07-02_10h59.49.290,Experiment_English,3.2.4,Win32,60,,,1,0,340,51,1,339,ratioX0_12_12_9.png,,,,,,,,,,,,
,,,,,,,,,,,,Half,None,All,Most,More than half,Less than half,Some,Few,Many,-0.423438642,0.209970338,1,0,0,QQQ7,,,,,,,,English,2020-07-02_10h59.49.290,Experiment_English,3.2.4,Win32,60,,,1,0,340,257,1,339,ratio34_6_14_12.png,,,,,,,,,,,,
,,,,,,,,,,,,More than half,Many,Few,All,None,Most,Less than half,Some,Half,0.039867584,-0.047627892,1,0,0,QQQ5,,,,,,,,English,2020-07-02_10h59.49.290,Experiment_English,3.2.4,Win32,60,,,1,0,340,67,1,339,ratio0Y_0_10_10.png,,,,,,,,,,,,
,,,,,,,,,,,,Half,Less than half,Many,More than half,Some,None,Most,Few,All,-0.037041296,-0.308005959,1,0,0,QQQ6,,,,,,,,English,2020-07-02_10h59.49.290,Experiment_English,3.2.4,Win32,60,,,1,0,340,72,1,339,ratio0Y_0_13_4.png,,,,,,,,,,,,
,,,,,,,,,,,,All,None,Most,Few,Many,Some,Less than half,Half,More than half,-0.014802544,0.231282394,1,0,0,QQQ4,,,,,,,,English,2020-07-02_10h59.49.290,Experiment_English,3.2.4,Win32,60,,,1,0,340,139,1,339,ratio15_3_18_20.png,,,,,,,,,,,,
,,,,,,,,,,,,Half,Some,Most,Many,Few,More than half,None,All,Less than half,-0.4975676,0.283172713,1,0,0,QQQ7,,,,,,,,English,2020-07-02_10h59.49.290,Experiment_English,3.2.4,Win32,60,,,1,0,340,65,1,339,ratio0Y_0_8_4.png,,,,,,,,,,,,
,,,,,,,,,,,,Some,Less than half,Most,None,Few,All,Many,Half,More than half,0.406806014,0.289658999,1,0,0,QQQ1,,,,,,,,English,2020-07-02_10h59.49.290,Experiment_English,3.2.4,Win32,60,,,1,0,340,206,1,339,ratio31_6_8_6.png,,,,,,,,,,,,
,,,,,,,,,,,,Many,Most,Few,Less than half,Half,None,Some,More than half,All,-0.424365226,-0.295033386,1,0,0,QQQ9,,,,,,,,English,2020-07-02_10h59.49.290,Experiment_English,3.2.4,Win32,60,,,1,0,340,40,1,339,ratioX0_3_3_5.png,,,,,,,,,,,,
,,,,,,,,,,,,Half,Few,None,Many,Most,All,More than half,Some,Less than half,0.050060263,-0.04299483,1,0,0,QQQ5,,,,,,,,English,2020-07-02_10h59.49.290,Experiment_English,3.2.4,Win32,60,,,1,0,340,317,1,339,ratio51_15_18_13.png,,,,,,,,,,,,
,,,,,,,,,,,,All,Few,Most,Half,Less than half,None,More than half,Some,Many,0.462402754,0.042253505,1,0,0,QQQ2,,,,,,,,English,2020-07-02_10h59.49.290,Experiment_English,3.2.4,Win32,60,,,1,0,340,83,1,339,ratio13_1_4_10.png,,,,,,,,,,,,
,,,,,,,,,,,,Most,Many,None,More than half,Less than half,All,Some,Half,Few,-0.548531307,-0.319125364,1,0,0,QQQ9,,,,,,,,English,2020-07-02_10h59.49.290,Experiment_English,3.2.4,Win32,60,,,1,0,340,124,1,339,ratio15_1_6_16.png,,,,,,,,,,,,
,,,,,,,,,,,,More than half,Few,Half,None,Most,Many,All,Less than half,Some,-0.004609865,-0.011490067,1,0,0,QQQ5,,,,,,,,English,2020-07-02_10h59.49.290,Experiment_English,3.2.4,Win32,60,,,1,0,340,215,1,339,ratio31_12_16_8.png,,,,,,,,,,,,
,,,,,,,,,,,,Most,None,Many,More than half,All,Less than half,Half,Few,Some,-0.043527583,-0.301519729,1,0,0,QQQ6,,,,,,,,English,2020-07-02_10h59.49.290,Experiment_English,3.2.4,Win32,60,,,1,0,340,254,1,339,ratio34_6_14_9.png,,,,,,,,,,,,
,,,,,,,,,,,,Some,Few,Most,Many,All,Less than half,Half,More than half,None,0.4883479,0.310971083,1,0,0,QQQ1,,,,,,,,English,2020-07-02_10h59.49.290,Experiment_English,3.2.4,Win32,60,,,1,0,340,335,1,339,ratio91_18_20_11.png,,,,,,,,,,,,
,,,,,,,,,,,,Many,Few,Less than half,All,Most,More than half,Some,Half,None,0.033381298,0.025574483,1,0,0,QQQ5,,,,,,,,English,2020-07-02_10h59.49.290,Experiment_English,3.2.4,Win32,60,,,1,0,340,233,1,339,ratio32_9_15_9.png,,,,,,,,,,,,
,,,,,,,,,,,,More than half,Some,Half,Few,None,Most,Less than half,Many,All,-0.443824113,0.005189011,1,0,0,QQQ8,,,,,,,,English,2020-07-02_10h59.49.290,Experiment_English,3.2.4,Win32,60,,,1,0,340,227,1,339,ratio32_6_10_6.png,,,,,,,,,,,,
,,,,,,,,,,,,All,Most,Less than half,Few,None,Many,Half,More than half,Some,0.061179611,0.248888056,1,0,0,QQQ4,,,,,,,,English,2020-07-02_10h59.49.290,Experiment_English,3.2.4,Win32,60,,,1,0,340,146,1,339,ratio19_1_10_17.png,,,,,,,,,,,,
,,,,,,,,,,,,All,Some,Few,Many,None,More than half,Most,Less than half,Half,-0.494787763,-0.302446285,1,0,0,QQQ9,,,,,,,,English,2020-07-02_10h59.49.290,Experiment_English,3.2.4,Win32,60,,,1,0,340,247,1,339,ratio34_3_7_12.png,,,,,,,,,,,,
,,,,,,,,,,,,Many,Few,Most,None,Some,Less than half,All,Half,More than half,-0.019435662,0.273906589,1,0,0,QQQ4,,,,,,,,English,2020-07-02_10h59.49.290,Experiment_English,3.2.4,Win32,60,,,1,0,340,75,1,339,ratio0Y_0_16_10.png,,,,,,,,,,,,
,,,,,,,,,,,,Half,None,Less than half,All,More than half,Some,Few,Most,Many,0.102877167,-0.007783562,1,0,0,QQQ5,,,,,,,,English,2020-07-02_10h59.49.290,Experiment_English,3.2.4,Win32,60,,,1,0,340,289,1,339,ratio43_4_7_20.png,0.317851229,-0.392327739,1,0,0,continue_button_pause,1,0,1,0,1,0
,,,,,,,,,,,,,,,,,,,,,,,,,,,,,,,,,,English,2020-07-02_10h59.49.290,Experiment_English,3.2.4,Win32,60,,,1,0,340,289,1,339,ratio43_4_7_20.png,,,,,,,,,,,,
,,,,,,,,,,,,Less than half,More than half,None,Most,Some,All,Few,Half,Many,-0.515173235,0.25444773,1,0,0,QQQ7,,,,,,,,English,2020-07-02_10h59.49.290,Experiment_English,3.2.4,Win32,60,,,1,0,340,84,1,339,ratio13_2_8_1.png,,,,,,,,,,,,
,,,,,,,,,,,,All,Few,Most,More than half,Less than half,Half,Some,None,Many,0.501320472,-0.295033386,1,0,0,QQQ3,,,,,,,,English,2020-07-02_10h59.49.290,Experiment_English,3.2.4,Win32,60,,,1,0,340,175,1,339,ratio21_10_15_2.png,,,,,,,,,,,,
,,,,,,,,,,,,All,None,Many,More than half,Most,Less than half,Few,Some,Half,-0.433631349,0.323943656,1,0,0,QQQ7,,,,,,,,English,2020-07-02_10h59.49.290,Experiment_English,3.2.4,Win32,60,,,1,0,340,136,1,339,ratio15_3_18_8.png,,,,,,,,,,,,
,,,,,,,,,,,,More than half,None,Half,Some,All,Most,Few,Less than half,Many,-0.451237012,0.03298741,1,0,0,QQQ8,,,,,,,,English,2020-07-02_10h59.49.290,Experiment_English,3.2.4,Win32,60,,,1,0,340,188,1,339,ratio23_4_10_6.png,,,,,,,,,,,,
,,,,,,,,,,,,Most,None,More than half,All,Less than half,Half,Many,Some,Few,0.395686666,0.257227567,1,0,0,QQQ1,,,,,,,,English,2020-07-02_10h59.49.290,Experiment_English,3.2.4,Win32,60,,,1,0,340,324,1,339,ratio91_9_10_7.png,,,,,,,,,,,,
,,,,,,,,,,,,Less than half,Some,More than half,All,Most,None,Half,Many,Few,-0.428998316,-0.287620488,1,0,0,QQQ9,,,,,,,,English,2020-07-02_10h59.49.290,Experiment_English,3.2.4,Win32,60,,,1,0,340,152,1,339,ratio19_2_20_6.png,,,,,,,,,,,,
,,,,,,,,,,,,Some,Many,Most,All,Half,None,Less than half,More than half,Few,0.489274512,-0.297813223,1,0,0,QQQ3,,,,,,,,English,2020-07-02_10h59.49.290,Experiment_English,3.2.4,Win32,60,,,1,0,340,310,1,339,ratio51_10_12_12.png,,,,,,,,,,,,
,,,,,,,,,,,,Some,Few,More than half,Many,All,None,Less than half,Half,Most,0.454063243,0.043180117,1,0,0,QQQ2,,,,,,,,English,2020-07-02_10h59.49.290,Experiment_English,3.2.4,Win32,60,,,1,0,340,88,1,339,ratio13_3_12_5.png,,,,,,,,,,,,
,,,,,,,,,,,,Less than half,Most,Some,Many,All,More than half,Few,Half,None,-0.411392681,-0.010563399,1,0,0,QQQ8,,,,,,,,English,2020-07-02_10h59.49.290,Experiment_English,3.2.4,Win32,60,,,1,0,340,189,1,339,ratio23_4_10_8.png,,,,,,,,,,,,
,,,,,,,,,,,,None,Half,More than half,Most,All,Some,Less than half,Few,Many,0.050060263,0.237768708,1,0,0,QQQ4,,,,,,,,English,2020-07-02_10h59.49.290,Experiment_English,3.2.4,Win32,60,,,1,0,340,329,1,339,ratio91_9_10_20.png,,,,,,,,,,,,
,,,,,,,,,,,,All,Few,Half,Some,None,Less than half,Most,Many,More than half,0.499467248,-0.005930337,1,0,0,QQQ2,,,,,,,,English,2020-07-02_10h59.49.290,Experiment_English,3.2.4,Win32,60,,,1,0,340,110,1,339,ratio14_3_15_2.png,,,,,,,,,,,,
,,,,,,,,,,,,Some,Most,All,Many,Few,Less than half,None,More than half,Half,-0.443824113,-0.066160139,1,0,0,QQQ8,,,,,,,,English,2020-07-02_10h59.49.290,Experiment_English,3.2.4,Win32,60,,,1,0,340,299,1,339,ratio43_8_14_17.png,,,,,,,,,,,,
,,,,,,,,,,,,Some,More than half,Half,Less than half,Many,Few,All,None,Most,-0.403979782,-0.308005959,1,0,0,QQQ9,,,,,,,,English,2020-07-02_10h59.49.290,Experiment_English,3.2.4,Win32,60,,,1,0,340,276,1,339,ratio41_16_20_4.png,,,,,,,,,,,,
,,,,,,,,,,,,All,Some,Many,Less than half,None,Most,Half,Few,More than half,-0.498494241,0.026501067,1,0,0,QQQ8,,,,,,,,English,2020-07-02_10h59.49.290,Experiment_English,3.2.4,Win32,60,,,1,0,340,10,1,339,ratio12_4_12_4.png,,,,,,,,,,,,
,,,,,,,,,,,,None,More than half,Few,Half,Many,Most,Some,All,Less than half,-0.00924287,-0.01519646,1,0,0,QQQ5,,,,,,,,English,2020-07-02_10h59.49.290,Experiment_English,3.2.4,Win32,60,,,1,0,340,239,1,339,ratio32_12_20_10.png,,,,,,,,,,,,
,,,,,,,,,,,,None,Most,Some,Half,Less than half,Few,All,Many,More than half,0.116776352,-0.009636786,1,0,0,QQQ5,,,,,,,,English,2020-07-02_10h59.49.290,Experiment_English,3.2.4,Win32,60,,,1,0,340,185,1,339,ratio23_4_10_1.png,,,,,,,,,,,,
,,,,,,,,,,,,Few,All,None,Less than half,Many,Half,Some,More than half,Most,0.392906829,-0.009636786,1,0,0,QQQ2,,,,,,,,English,2020-07-02_10h59.49.290,Experiment_English,3.2.4,Win32,60,,,1,0,340,41,1,339,ratioX0_4_4_9.png,,,,,,,,,,,,
,,,,,,,,,,,,Few,Half,More than half,Less than half,All,None,Most,Some,Many,0.507806872,0.283172713,1,0,0,QQQ1,,,,,,,,English,2020-07-02_10h59.49.290,Experiment_English,3.2.4,Win32,60,,,1,0,340,120,1,339,ratio15_1_6_1.png,,,,,,,,,,,,
,,,,,,,,,,,,Few,Most,Many,All,None,More than half,Some,Less than half,Half,0.581009133,-0.012416623,1,0,0,QQQ2,,,,,,,,English,2020-07-02_10h59.49.290,Experiment_English,3.2.4,Win32,60,,,1,0,340,268,1,339,ratio41_8_10_5.png,,,,,,,,,,,,
,,,,,,,,,,,,Some,None,Half,Few,Many,Most,Less than half,All,More than half,0.581009133,-0.012416623,1,0,0,QQQ2,,,,,,,,English,2020-07-02_10h59.49.290,Experiment_English,3.2.4,Win32,60,,,1,0,340,327,1,339,ratio91_9_10_11.png,,,,,,,,,,,,
,,,,,,,,,,,,More than half,Some,Half,Few,Many,None,Most,All,Less than half,-0.066692891,0.064492201,1,0,0,QQQ5,,,,,,,,English,2020-07-02_10h59.49.290,Experiment_English,3.2.4,Win32,60,,,1,0,340,178,1,339,ratio21_12_18_2.png,,,,,,,,,,,,
,,,,,,,,,,,,More than half,Half,All,None,Some,Many,Most,Less than half,Few,-0.481815219,0.215530012,1,0,0,QQQ7,,,,,,,,English,2020-07-02_10h59.49.290,Experiment_English,3.2.4,Win32,60,,,1,0,340,332,1,339,ratio91_18_20_4.png,,,,,,,,,,,,
,,,,,,,,,,,,None,Half,Less than half,Many,Some,All,More than half,Most,Few,-0.416952355,0.207190501,1,0,0,QQQ7,,,,,,,,English,2020-07-02_10h59.49.290,Experiment_English,3.2.4,Win32,60,,,1,0,340,164,1,339,ratio21_4_6_6.png,,,,,,,,,,,,
,,,,,,,,,,,,Some,More than half,None,Many,Less than half,Half,Most,All,Few,-0.063913054,0.312824293,1,0,0,QQQ4,,,,,,,,English,2020-07-02_10h59.49.290,Experiment_English,3.2.4,Win32,60,,,1,0,340,263,1,339,ratio41_4_5_5.png,,,,,,,,,,,,
,,,,,,,,,,,,Half,Few,All,Many,Less than half,Most,None,Some,More than half,-0.441044276,0.232209034,1,0,0,QQQ7,,,,,,,,English,2020-07-02_10h59.49.290,Experiment_English,3.2.4,Win32,60,,,1,0,340,69,1,339,ratio0Y_0_11_6.png,,,,,,,,,,,,
,,,,,,,,,,,,More than half,Most,Some,Few,Many,Half,All,Less than half,None,0.472595603,-0.056894015,1,0,0,QQQ2,,,,,,,,English,2020-07-02_10h59.49.290,Experiment_English,3.2.4,Win32,60,,,1,0,340,177,1,339,ratio21_12_18_1.png,,,,,,,,,,,,
,,,,,,,,,,,,Many,Less than half,Some,Most,Few,All,More than half,None,Half,0.026894898,0.023721201,1,0,0,QQQ5,,,,,,,,English,2020-07-02_10h59.49.290,Experiment_English,3.2.4,Win32,60,,,1,0,340,151,1,339,ratio19_2_20_4.png,,,,,,,,,,,,
,,,,,,,,,,,,Less than half,Few,All,None,Many,Some,Most,Half,More than half,-0.393787047,0.28595255,1,0,0,QQQ7,,,,,,,,English,2020-07-02_10h59.49.290,Experiment_English,3.2.4,Win32,60,,,1,0,340,339,1,339,ratio91_18_20_19.png,,,,,,,,,,,,
,,,,,,,,,,,,More than half,Less than half,Some,None,Few,Many,All,Most,Half,-0.516099875,0.249814669,1,0,0,QQQ7,,,,,,,,English,2020-07-02_10h59.49.290,Experiment_English,3.2.4,Win32,60,,,1,0,340,55,1,339,ratioX0_16_16_3.png,,,,,,,,,,,,
,,,,,,,,,,,,None,More than half,Less than half,Many,All,Some,Few,Most,Half,-0.453090236,0.253521118,1,0,0,QQQ7,,,,,,,,English,2020-07-02_10h59.49.290,Experiment_English,3.2.4,Win32,60,,,1,0,340,195,1,339,ratio23_8_20_1.png,,,,,,,,,,,,
,,,,,,,,,,,,Less than half,None,Few,Some,More than half,Half,All,Most,Many,-0.368768514,-0.001297275,1,0,0,QQQ8,,,,,,,,English,2020-07-02_10h59.49.290,Experiment_English,3.2.4,Win32,60,,,1,0,340,267,1,339,ratio41_8_10_4.png,,,,,,,,,,,,
,,,,,,,,,,,,Few,More than half,Most,None,Half,Some,Many,Less than half,All,0.412365688,0.285025923,1,0,0,QQQ1,,,,,,,,English,2020-07-02_10h59.49.290,Experiment_English,3.2.4,Win32,60,,,1,0,340,1,1,339,ratio12_1_3_7.png,,,,,,,,,,,,
,,,,,,,,,,,,All,Half,More than half,Some,Most,None,Few,Less than half,Many,-0.45864991,-0.025389196,1,0,0,QQQ8,,,,,,,,English,2020-07-02_10h59.49.290,Experiment_English,3.2.4,Win32,60,,,1,0,340,35,1,339,ratio11_8_16_10.png,,,,,,,,,,,,
,,,,,,,,,,,,Less than half,All,Some,None,Many,Half,Most,More than half,Few,-0.517953072,-0.286693932,1,0,0,QQQ9,,,,,,,,English,2020-07-02_10h59.49.290,Experiment_English,3.2.4,Win32,60,,,1,0,340,143,1,339,ratio19_1_10_9.png,0.360475397,-0.35711647,1,0,0,continue_button_pause,1,0,1,0,1,0
,,,,,,,,,,,,,,,,,,,,,,,,,,,,,,,,,,English,2020-07-02_10h59.49.290,Experiment_English,3.2.4,Win32,60,,,1,0,340,143,1,339,ratio19_1_10_9.png,,,,,,,,,,,,
,,,,,,,,,,,,Half,All,Less than half,Most,Some,Few,More than half,Many,None,-0.093564593,-0.310785796,1,0,0,QQQ6,,,,,,,,English,2020-07-02_10h59.49.290,Experiment_English,3.2.4,Win32,60,,,1,0,340,95,1,339,ratio13_4_16_10.png,,,,,,,,,,,,
,,,,,,,,,,,,All,None,Few,Half,Less than half,Many,More than half,Most,Some,-0.433631349,-0.050407729,1,0,0,QQQ8,,,,,,,,English,2020-07-02_10h59.49.290,Experiment_English,3.2.4,Win32,60,,,1,0,340,316,1,339,ratio51_15_18_11.png,,,,,,,,,,,,
,,,,,,,,,,,,Half,Less than half,None,Most,All,Many,More than half,Few,Some,-0.012022707,0.023721201,1,0,0,QQQ5,,,,,,,,English,2020-07-02_10h59.49.290,Experiment_English,3.2.4,Win32,60,,,1,0,340,49,1,339,ratioX0_11_11_2.png,,,,,,,,,,,,
,,,,,,,,,,,,More than half,Less than half,Some,None,Few,All,Half,Most,Many,-0.00553642,0.027427707,1,0,0,QQQ5,,,,,,,,English,2020-07-02_10h59.49.290,Experiment_English,3.2.4,Win32,60,,,1,0,340,131,1,339,ratio15_2_12_14.png,,,,,,,,,,,,
,,,,,,,,,,,,Some,Most,None,More than half,All,Many,Less than half,Half,Few,-0.388227373,-0.261675342,1,0,0,QQQ9,,,,,,,,English,2020-07-02_10h59.49.290,Experiment_English,3.2.4,Win32,60,,,1,0,340,130,1,339,ratio15_2_12_12.png,,,,,,,,,,,,
,,,,,,,,,,,,Some,Most,More than half,None,Half,All,Less than half,Many,Few,0.432751272,0.02835432,1,0,0,QQQ2,,,,,,,,English,2020-07-02_10h59.49.290,Experiment_English,3.2.4,Win32,60,,,1,0,340,193,1,339,ratio23_6_15_9.png,,,,,,,,,,,,
,,,,,,,,,,,,Few,Most,Some,Many,More than half,All,Half,None,Less than half,0.446650344,0.02835432,1,0,0,QQQ2,,,,,,,,English,2020-07-02_10h59.49.290,Experiment_English,3.2.4,Win32,60,,,1,0,340,221,1,339,ratio32_3_5_3.png,,,,,,,,,,,,
,,,,,,,,,,,,Less than half,Few,None,Some,Many,Most,More than half,Half,All,-0.007389702,-0.297813223,1,0,0,QQQ6,,,,,,,,English,2020-07-02_10h59.49.290,Experiment_English,3.2.4,Win32,60,,,1,0,340,260,1,339,ratio41_4_5_2.png,,,,,,,,,,,,
,,,,,,,,,,,,Less than half,Few,More than half,Half,Most,All,Many,Some,None,0.399393115,-0.055967403,1,0,0,QQQ2,,,,,,,,English,2020-07-02_10h59.49.290,Experiment_English,3.2.4,Win32,60,,,1,0,340,89,1,339,ratio13_3_12_6.png,,,,,,,,,,,,
,,,,,,,,,,,,Few,Most,None,Many,More than half,All,Less than half,Some,Half,0.066739285,0.042253505,1,0,0,QQQ5,,,,,,,,English,2020-07-02_10h59.49.290,Experiment_English,3.2.4,Win32,60,,,1,0,340,290,1,339,ratio43_8_14_3.png,,,,,,,,,,,,
,,,,,,,,,,,,Some,Few,More than half,None,Less than half,All,Many,Half,Most,-0.500347437,-0.319125364,1,0,0,QQQ9,,,,,,,,English,2020-07-02_10h59.49.290,Experiment_English,3.2.4,Win32,60,,,1,0,340,197,1,339,ratio23_8_20_6.png,,,,,,,,,,,,
,,,,,,,,,,,,None,Less than half,All,Few,Some,Most,Half,More than half,Many,-0.438264439,-0.011490067,1,0,0,QQQ8,,,,,,,,English,2020-07-02_10h59.49.290,Experiment_English,3.2.4,Win32,60,,,1,0,340,30,1,339,ratio11_6_12_6.png,,,,,,,,,,,,
,,,,,,,,,,,,Most,Many,Half,Few,Less than half,All,Some,More than half,None,0.558770437,0.24240177,1,0,0,QQQ1,,,,,,,,English,2020-07-02_10h59.49.290,Experiment_English,3.2.4,Win32,60,,,1,0,340,304,1,339,ratio51_5_6_13.png,,,,,,,,,,,,
,,,,,,,,,,,,All,Some,None,Few,More than half,Half,Less than half,Most,Many,-0.028701785,-0.280207589,1,0,0,QQQ6,,,,,,,,English,2020-07-02_10h59.49.290,Experiment_English,3.2.4,Win32,60,,,1,0,340,28,1,339,ratio11_5_10_9.png,,,,,,,,,,,,
,,,,,,,,,,,,More than half,Few,None,Some,All,Half,Less than half,Many,Most,-0.430851512,0.227575972,1,0,0,QQQ7,,,,,,,,English,2020-07-02_10h59.49.290,Experiment_English,3.2.4,Win32,60,,,1,0,340,259,1,339,ratio34_6_14_19.png,,,,,,,,,,,,
,,,,,,,,,,,,More than half,Some,Many,All,Less than half,Few,Most,Half,None,0.017628888,-0.284840651,1,0,0,QQQ6,,,,,,,,English,2020-07-02_10h59.49.290,Experiment_English,3.2.4,Win32,60,,,1,0,340,98,1,339,ratio13_5_20_3.png,,,,,,,,,,,,
,,,,,,,,,,,,None,Many,Half,Less than half,Most,More than half,Some,Few,All,0.076932021,0.019088196,1,0,0,QQQ5,,,,,,,,English,2020-07-02_10h59.49.290,Experiment_English,3.2.4,Win32,60,,,1,0,340,236,1,339,ratio32_12_20_2.png,,,,,,,,,,,,
,,,,,,,,,,,,Many,Few,More than half,Some,None,All,Less than half,Most,Half,0.485568063,0.049666375,1,0,0,QQQ2,,,,,,,,English,2020-07-02_10h59.49.290,Experiment_English,3.2.4,Win32,60,,,1,0,340,86,1,339,ratio13_2_8_6.png,,,,,,,,,,,,
,,,,,,,,,,,,Less than half,More than half,None,Most,All,Few,Many,Some,Half,0.001876422,0.201630827,1,0,0,QQQ4,,,,,,,,English,2020-07-02_10h59.49.290,Experiment_English,3.2.4,Win32,60,,,1,0,340,303,1,339,ratio51_5_6_6.png,,,,,,,,,,,,
,,,,,,,,,,,,More than half,Few,Many,All,Half,Most,Some,Less than half,None,0.44479712,0.072831684,1,0,0,QQQ2,,,,,,,,English,2020-07-02_10h59.49.290,Experiment_English,3.2.4,Win32,60,,,1,0,340,156,1,339,ratio19_2_20_14.png,,,,,,,,,,,,
,,,,,,,,,,,,Few,Most,Some,Many,All,None,Less than half,Half,More than half,-0.471622483,0.002409174,1,0,0,QQQ8,,,,,,,,English,2020-07-02_10h59.49.290,Experiment_English,3.2.4,Win32,60,,,1,0,340,256,1,339,ratio34_6_14_11.png,,,,,,,,,,,,
,,,,,,,,,,,,Some,More than half,Few,Most,All,None,Many,Less than half,Half,-0.076885627,0.330429928,1,0,0,QQQ4,,,,,,,,English,2020-07-02_10h59.49.290,Experiment_English,3.2.4,Win32,60,,,1,0,340,298,1,339,ratio43_8_14_14.png,,,,,,,,,,,,
,,,,,,,,,,,,None,All,Half,More than half,Most,Less than half,Many,Some,Few,-0.407686175,-0.281134258,1,0,0,QQQ9,,,,,,,,English,2020-07-02_10h59.49.290,Experiment_English,3.2.4,Win32,60,,,1,0,340,82,1,339,ratio13_1_4_7.png,,,,,,,,,,,,
,,,,,,,,,,,,Many,All,Most,Some,Few,More than half,None,Half,Less than half,0.012069158,0.009822073,1,0,0,QQQ5,,,,,,,,English,2020-07-02_10h59.49.290,Experiment_English,3.2.4,Win32,60,,,1,0,340,123,1,339,ratio15_1_6_12.png,,,,,,,,,,,,
,,,,,,,,,,,,None,Most,Less than half,More than half,Few,Some,Many,Half,All,0.403099678,0.065418785,1,0,0,QQQ2,,,,,,,,English,2020-07-02_10h59.49.290,Experiment_English,3.2.4,Win32,60,,,1,0,340,312,1,339,ratio51_10_12_16.png,,,,,,,,,,,,
,,,,,,,,,,,,More than half,Most,Many,Few,None,Some,Half,Less than half,All,-0.44660395,-0.291326937,1,0,0,QQQ9,,,,,,,,English,2020-07-02_10h59.49.290,Experiment_English,3.2.4,Win32,60,,,1,0,340,53,1,339,ratioX0_14_14_8.png,,,,,,,,,,,,
,,,,,,,,,,,,None,Some,Most,Many,All,Few,Less than half,More than half,Half,-0.44660395,0.274833188,1,0,0,QQQ7,,,,,,,,English,2020-07-02_10h59.49.290,Experiment_English,3.2.4,Win32,60,,,1,0,340,27,1,339,ratio11_5_10_7.png,,,,,,,,,,,,
,,,,,,,,,,,,Many,Less than half,All,None,Half,Most,Few,Some,More than half,-0.410466012,0.226649332,1,0,0,QQQ7,,,,,,,,English,2020-07-02_10h59.49.290,Experiment_English,3.2.4,Win32,60,,,1,0,340,138,1,339,ratio15_3_18_17.png,,,,,,,,,,,,
,,,,,,,,,,,,Less than half,Half,Few,More than half,All,Many,None,Some,Most,0.379007757,-0.283914095,1,0,0,QQQ3,,,,,,,,English,2020-07-02_10h59.49.290,Experiment_English,3.2.4,Win32,60,,,1,0,340,154,1,339,ratio19_2_20_11.png,,,,,,,,,,,,
,,,,,,,,,,,,Half,Some,None,Most,Many,Less than half,All,More than half,Few,-0.494787763,-0.266308461,1,0,0,QQQ9,,,,,,,,English,2020-07-02_10h59.49.290,Experiment_English,3.2.4,Win32,60,,,1,0,340,18,1,339,ratio12_6_18_7.png,,,,,,,,,,,,
,,,,,,,,,,,,Half,Some,Less than half,More than half,Most,Many,Few,All,None,0.026894898,-0.0031505,1,0,0,QQQ5,,,,,,,,English,2020-07-02_10h59.49.290,Experiment_English,3.2.4,Win32,60,,,1,0,340,328,1,339,ratio91_9_10_15.png,,,,,,,,,,,,
,,,,,,,,,,,,All,Most,More than half,Many,Half,Some,None,Less than half,Few,-0.44197086,-0.025389196,1,0,0,QQQ8,,,,,,,,English,2020-07-02_10h59.49.290,Experiment_English,3.2.4,Win32,60,,,1,0,340,180,1,339,ratio23_2_5_4.png,,,,,,,,,,,,
,,,,,,,,,,,,Few,Many,Half,Less than half,None,Most,Some,More than half,All,0.014848995,0.008895461,1,0,0,QQQ5,,,,,,,,English,2020-07-02_10h59.49.290,Experiment_English,3.2.4,Win32,60,,,1,0,340,66,1,339,ratio0Y_0_9_8.png,,,,,,,,,,,,
,,,,,,,,,,,,Most,Many,Few,None,All,Half,More than half,Some,Less than half,0.014848995,0.008895461,1,0,0,QQQ5,,,,,,,,English,2020-07-02_10h59.49.290,Experiment_English,3.2.4,Win32,60,,,1,0,340,48,1,339,ratioX0_10_10_1.png,0.317851229,-0.35711647,1,0,0,continue_button_pause,1,0,1,0,1,0
,,,,,,,,,,,,,,,,,,,,,,,,,,,,,,,,,,English,2020-07-02_10h59.49.290,Experiment_English,3.2.4,Win32,60,,,1,0,340,48,1,339,ratioX0_10_10_1.png,,,,,,,,,,,,
,,,,,,,,,,,,Some,Less than half,Most,More than half,All,Many,Half,Few,None,0.064886061,0.247034832,1,0,0,QQQ4,,,,,,,,English,2020-07-02_10h59.49.290,Experiment_English,3.2.4,Win32,60,,,1,0,340,226,1,339,ratio32_6_10_5.png,,,,,,,,,,,,
,,,,,,,,,,,,Many,Half,All,More than half,None,Some,Few,Less than half,Most,0.041720752,0.251667865,1,0,0,QQQ4,,,,,,,,English,2020-07-02_10h59.49.290,Experiment_English,3.2.4,Win32,60,,,1,0,340,39,1,339,ratio11_10_20_6.png,,,,,,,,,,,,
,,,,,,,,,,,,Some,Many,Less than half,All,Half,Few,None,Most,More than half,-0.431778153,-0.033728707,1,0,0,QQQ8,,,,,,,,English,2020-07-02_10h59.49.290,Experiment_English,3.2.4,Win32,60,,,1,0,340,318,1,339,ratio51_15_18_18.png,,,,,,,,,,,,
,,,,,,,,,,,,Few,Many,None,Most,Some,Less than half,Half,All,More than half,0.02504173,-0.292253606,1,0,0,QQQ6,,,,,,,,English,2020-07-02_10h59.49.290,Experiment_English,3.2.4,Win32,60,,,1,0,340,19,1,339,ratio12_6_18_9.png,,,,,,,,,,,,
,,,,,,,,,,,,All,Many,None,Less than half,Some,More than half,Few,Half,Most,0.409585851,0.06819865,1,0,0,QQQ2,,,,,,,,English,2020-07-02_10h59.49.290,Experiment_English,3.2.4,Win32,60,,,1,0,340,265,1,339,ratio41_8_10_1.png,,,,,,,,,,,,
,,,,,,,,,,,,None,Less than half,Some,Few,Half,Many,All,Most,More than half,-0.044454139,0.027427707,1,0,0,QQQ5,,,,,,,,English,2020-07-02_10h59.49.290,Experiment_English,3.2.4,Win32,60,,,1,0,340,237,1,339,ratio32_12_20_5.png,,,,,,,,,,,,
,,,,,,,,,,,,All,Many,None,Less than half,Half,Most,Few,More than half,Some,0.484641563,0.306338007,1,0,0,QQQ1,,,,,,,,English,2020-07-02_10h59.49.290,Experiment_English,3.2.4,Win32,60,,,1,0,340,45,1,339,ratioX0_8_8_3.png,,,,,,,,,,,,
,,,,,,,,,,,,None,All,Many,More than half,Half,Few,Some,Most,Less than half,0.020408669,-0.238510034,1,0,0,QQQ6,,,,,,,,English,2020-07-02_10h59.49.290,Experiment_English,3.2.4,Win32,60,,,1,0,340,114,1,339,ratio14_3_15_10.png,,,,,,,,,,,,
,,,,,,,,,,,,Many,Half,Most,Some,All,More than half,Few,None,Less than half,-0.429924928,-0.277427752,1,0,0,QQQ9,,,,,,,,English,2020-07-02_10h59.49.290,Experiment_English,3.2.4,Win32,60,,,1,0,340,249,1,339,ratio34_3_7_20.png,,,,,,,,,,,,
,,,,,,,,,,,,Many,More than half,None,Most,All,Few,Half,Some,Less than half,0.010215933,0.348035562,1,0,0,QQQ4,,,,,,,,English,2020-07-02_10h59.49.290,Experiment_English,3.2.4,Win32,60,,,1,0,340,336,1,339,ratio91_18_20_12.png,,,,,,,,,,,,
,,,,,,,,,,,,More than half,Less than half,None,Half,Many,Few,All,Some,Most,0.505953534,0.002409174,1,0,0,QQQ2,,,,,,,,English,2020-07-02_10h59.49.290,Experiment_English,3.2.4,Win32,60,,,1,0,340,17,1,339,ratio12_6_18_5.png,,,,,,,,,,,,
,,,,,,,,,,,,More than half,Less than half,Half,Many,None,Most,Few,Some,All,-0.019435662,-0.222757624,1,0,0,QQQ6,,,,,,,,English,2020-07-02_10h59.49.290,Experiment_English,3.2.4,Win32,60,,,1,0,340,320,1,339,ratio91_9_10_1.png,,,,,,,,,,,,
,,,,,,,,,,,,Less than half,None,Most,More than half,Few,Some,Many,Half,All,-0.076885627,0.263713854,1,0,0,QQQ4,,,,,,,,English,2020-07-02_10h59.49.290,Experiment_English,3.2.4,Win32,60,,,1,0,340,280,1,339,ratio43_4_7_2.png,,,,,,,,,,,,
,,,,,,,,,,,,All,Half,More than half,Some,Most,None,Many,Less than half,Few,-0.012022707,0.048739791,1,0,0,QQQ5,,,,,,,,English,2020-07-02_10h59.49.290,Experiment_English,3.2.4,Win32,60,,,1,0,340,309,1,339,ratio51_10_12_10.png,,,,,,,,,,,,
,,,,,,,,,,,,Most,All,None,Half,Many,Less than half,Some,More than half,Few,-0.4975676,-0.017976297,1,0,0,QQQ8,,,,,,,,English,2020-07-02_10h59.49.290,Experiment_English,3.2.4,Win32,60,,,1,0,340,161,1,339,ratio21_2_3_8.png,,,,,,,,,,,,
,,,,,,,,,,,,Most,Half,Some,Less than half,More than half,All,Few,None,Many,0.024115118,0.263713854,1,0,0,QQQ4,,,,,,,,English,2020-07-02_10h59.49.290,Experiment_English,3.2.4,Win32,60,,,1,0,340,117,1,339,ratio14_4_20_6.png,,,,,,,,,,,,
,,,,,,,,,,,,Most,More than half,Less than half,Half,None,Many,All,Few,Some,0.391980216,-0.264455179,1,0,0,QQQ3,,,,,,,,English,2020-07-02_10h59.49.290,Experiment_English,3.2.4,Win32,60,,,1,0,340,248,1,339,ratio34_3_7_19.png,,,,,,,,,,,,
,,,,,,,,,,,,Few,Many,Some,Most,All,None,More than half,Half,Less than half,-0.029628341,0.235915484,1,0,0,QQQ4,,,,,,,,English,2020-07-02_10h59.49.290,Experiment_English,3.2.4,Win32,60,,,1,0,340,315,1,339,ratio51_15_18_10.png,,,,,,,,,,,,
,,,,,,,,,,,,Some,All,None,Few,Half,Most,Many,More than half,Less than half,-0.492934567,-0.269088298,1,0,0,QQQ9,,,,,,,,English,2020-07-02_10h59.49.290,Experiment_English,3.2.4,Win32,60,,,1,0,340,246,1,339,ratio34_3_7_11.png,,,,,,,,,,,,
,,,,,,,,,,,,More than half,Few,Most,Many,All,Some,Half,Less than half,None,-0.525365971,-0.060600465,1,0,0,QQQ8,,,,,,,,English,2020-07-02_10h59.49.290,Experiment_English,3.2.4,Win32,60,,,1,0,340,255,1,339,ratio34_6_14_10.png,,,,,,,,,,,,
,,,,,,,,,,,,None,Some,Few,All,Half,Many,More than half,Most,Less than half,0.393833441,-0.324685038,1,0,0,QQQ3,,,,,,,,English,2020-07-02_10h59.49.290,Experiment_English,3.2.4,Win32,60,,,1,0,340,100,1,339,ratio14_1_5_3.png,,,,,,,,,,,,
,,,,,,,,,,,,Most,Many,Few,None,More than half,Less than half,Half,Some,All,0.366961796,-0.278354421,1,0,0,QQQ3,,,,,,,,English,2020-07-02_10h59.49.290,Experiment_English,3.2.4,Win32,60,,,1,0,340,140,1,339,ratio19_1_10_1.png,,,,,,,,,,,,
,,,,,,,,,,,,All,Most,Some,Many,More than half,Half,None,Less than half,Few,-0.461429747,-0.342290672,1,0,0,QQQ9,,,,,,,,English,2020-07-02_10h59.49.290,Experiment_English,3.2.4,Win32,60,,,1,0,340,108,1,339,ratio14_2_10_6.png,,,,,,,,,,,,
,,,,,,,,,,,,All,Few,None,Many,Some,More than half,Half,Most,Less than half,-0.377108025,-0.01890291,1,0,0,QQQ8,,,,,,,,English,2020-07-02_10h59.49.290,Experiment_English,3.2.4,Win32,60,,,1,0,340,301,1,339,ratio51_5_6_4.png,,,,,,,,,,,,
,,,,,,,,,,,,None,Few,All,Some,More than half,Less than half,Half,Many,Most,0.02504173,0.269273514,1,0,0,QQQ4,,,,,,,,English,2020-07-02_10h59.49.290,Experiment_English,3.2.4,Win32,60,,,1,0,340,291,1,339,ratio43_8_14_5.png,,,,,,,,,,,,
,,,,,,,,,,,,More than half,None,Few,All,Most,Half,Many,Less than half,Some,0.462402754,0.280392876,1,0,0,QQQ1,,,,,,,,English,2020-07-02_10h59.49.290,Experiment_English,3.2.4,Win32,60,,,1,0,340,292,1,339,ratio43_8_14_6.png,,,,,,,,,,,,
,,,,,,,,,,,,Most,All,Some,Less than half,More than half,None,Few,Many,Half,0.408659352,0.288732373,1,0,0,QQQ1,,,,,,,,English,2020-07-02_10h59.49.290,Experiment_English,3.2.4,Win32,60,,,1,0,340,176,1,339,ratio21_10_15_3.png,,,,,,,,,,,,
,,,,,,,,,,,,Few,Some,More than half,All,Half,Most,Less than half,Many,None,-0.032408178,0.00333573,1,0,0,QQQ5,,,,,,,,English,2020-07-02_10h59.49.290,Experiment_English,3.2.4,Win32,60,,,1,0,340,23,1,339,ratio11_3_6_9.png,,,,,,,,,,,,
,,,,,,,,,,,,Few,None,Less than half,Half,All,More than half,Some,Many,Most,0.446650344,0.273906589,1,0,0,QQQ1,,,,,,,,English,2020-07-02_10h59.49.290,Experiment_English,3.2.4,Win32,60,,,1,0,340,87,1,339,ratio13_2_8_8.png,,,,,,,,,,,,
,,,,,,,,,,,,All,More than half,Half,Few,Less than half,None,Many,Some,Most,0.513366546,0.015381747,1,0,0,QQQ2,,,,,,,,English,2020-07-02_10h59.49.290,Experiment_English,3.2.4,Win32,60,,,1,0,340,31,1,339,ratio11_6_12_9.png,,,,,,,,,,,,
,,,,,,,,,,,,Less than half,All,Most,More than half,Half,Many,Some,None,Few,0.452210018,0.023721201,1,0,0,QQQ2,,,,,,,,English,2020-07-02_10h59.49.290,Experiment_English,3.2.4,Win32,60,,,1,0,340,54,1,339,ratioX0_15_15_5.png,,,,,,,,,,,,
,,,,,,,,,,,,Some,Many,Less than half,Few,More than half,All,Most,Half,None,-0.008316314,-0.006856949,1,0,0,QQQ5,,,,,,,,English,2020-07-02_10h59.49.290,Experiment_English,3.2.4,Win32,60,,,1,0,340,229,1,339,ratio32_6_10_9.png,,,,,,,,,,,,
,,,,,,,,,,,,Most,Some,None,More than half,Half,Few,Many,All,Less than half,0.5559906,0.281319474,1,0,0,QQQ1,,,,,,,,English,2020-07-02_10h59.49.290,Experiment_English,3.2.4,Win32,60,,,1,0,340,293,1,339,ratio43_8_14_7.png,,,,,,,,,,,,
,,,,,,,,,,,,Half,Most,None,More than half,Less than half,Many,Few,All,Some,-0.440117664,0.015381747,1,0,0,QQQ8,,,,,,,,English,2020-07-02_10h59.49.290,Experiment_English,3.2.4,Win32,60,,,1,0,340,50,1,339,ratioX0_12_12_3.png,0.28634641,-0.390474457,1,0,0,continue_button_pause,1,0,1,0,1,0
,,,,,,,,,,,,,,,,,,,,,,,,,,,,,,,,,,English,2020-07-02_10h59.49.290,Experiment_English,3.2.4,Win32,60,,,1,0,340,50,1,339,ratioX0_12_12_3.png,,,,,,,,,,,,
,,,,,,,,,,,,Few,None,Less than half,Half,Most,Some,All,More than half,Many,-0.452163596,0.247034832,1,0,0,QQQ7,,,,,,,,English,2020-07-02_10h59.49.290,Experiment_English,3.2.4,Win32,60,,,1,0,340,59,1,339,ratioX0_20_20_9.png,,,,,,,,,,,,
,,,,,,,,,,,,Half,Few,Most,Many,More than half,Less than half,Some,All,None,0.453136631,-0.265381792,1,0,0,QQQ3,,,,,,,,English,2020-07-02_10h59.49.290,Experiment_English,3.2.4,Win32,60,,,1,0,340,261,1,339,ratio41_4_5_3.png,,,,,,,,,,,,
,,,,,,,,,,,,None,Few,Most,All,Some,Many,More than half,Half,Less than half,0.467035929,-0.23295036,1,0,0,QQQ3,,,,,,,,English,2020-07-02_10h59.49.290,Experiment_English,3.2.4,Win32,60,,,1,0,340,264,1,339,ratio41_4_5_6.png,,,,,,,,,,,,
,,,,,,,,,,,,Many,Less than half,Some,None,Few,Half,Most,More than half,All,0.042647365,-0.046701336,1,0,0,QQQ5,,,,,,,,English,2020-07-02_10h59.49.290,Experiment_English,3.2.4,Win32,60,,,1,0,340,127,1,339,ratio15_2_12_2.png,,,,,,,,,,,,
,,,,,,,,,,,,Less than half,Most,Few,All,More than half,Half,None,Many,Some,0.522632556,-0.042068218,1,0,0,QQQ2,,,,,,,,English,2020-07-02_10h59.49.290,Experiment_English,3.2.4,Win32,60,,,1,0,340,200,1,339,ratio31_3_4_4.png,,,,,,,,,,,,
,,,,,,,,,,,,Less than half,Half,More than half,Many,Few,None,Some,All,Most,-0.449383759,-0.268161629,1,0,0,QQQ9,,,,,,,,English,2020-07-02_10h59.49.290,Experiment_English,3.2.4,Win32,60,,,1,0,340,209,1,339,ratio31_9_12_6.png,,,,,,,,,,,,
,,,,,,,,,,,,Some,Few,None,Most,All,Many,Less than half,Half,More than half,0.107510228,0.231282394,1,0,0,QQQ4,,,,,,,,English,2020-07-02_10h59.49.290,Experiment_English,3.2.4,Win32,60,,,1,0,340,308,1,339,ratio51_10_12_9.png,,,,,,,,,,,,
,,,,,,,,,,,,Less than half,None,More than half,Half,All,Few,Many,Some,Most,-0.476255545,-0.348776959,1,0,0,QQQ9,,,,,,,,English,2020-07-02_10h59.49.290,Experiment_English,3.2.4,Win32,60,,,1,0,340,275,1,339,ratio41_16_20_2.png,,,,,,,,,,,,
,,,,,,,,,,,,Many,Most,Few,None,Less than half,Half,All,More than half,Some,-0.44660395,-0.044848055,1,0,0,QQQ8,,,,,,,,English,2020-07-02_10h59.49.290,Experiment_English,3.2.4,Win32,60,,,1,0,340,26,1,339,ratio11_5_10_4.png,,,,,,,,,,,,
,,,,,,,,,,,,More than half,Most,Less than half,All,Many,Some,None,Few,Half,-0.002756583,0.002409174,1,0,0,QQQ5,,,,,,,,English,2020-07-02_10h59.49.290,Experiment_English,3.2.4,Win32,60,,,1,0,340,218,1,339,ratio31_15_20_7.png,,,,,,,,,,,,
,,,,,,,,,,,,Few,None,More than half,Half,All,Some,Many,Most,Less than half,-0.341896756,0.008895461,1,0,0,QQQ8,,,,,,,,English,2020-07-02_10h59.49.290,Experiment_English,3.2.4,Win32,60,,,1,0,340,32,1,339,ratio11_7_14_5.png,,,,,,,,,,,,
,,,,,,,,,,,,Some,More than half,None,Most,All,Less than half,Many,Few,Half,-0.373401575,0.016308359,1,0,0,QQQ8,,,,,,,,English,2020-07-02_10h59.49.290,Experiment_English,3.2.4,Win32,60,,,1,0,340,80,1,339,ratio13_1_4_3.png,,,,,,,,,,,,
,,,,,,,,,,,,Half,None,Most,Few,Many,More than half,Less than half,Some,All,0.467962428,-0.0031505,1,0,0,QQQ2,,,,,,,,English,2020-07-02_10h59.49.290,Experiment_English,3.2.4,Win32,60,,,1,0,340,61,1,339,ratio0Y_0_4_7.png,,,,,,,,,,,,
,,,,,,,,,,,,All,Few,Some,Most,Many,Less than half,Half,None,More than half,-0.412319294,-0.03094887,1,0,0,QQQ8,,,,,,,,English,2020-07-02_10h59.49.290,Experiment_English,3.2.4,Win32,60,,,1,0,340,74,1,339,ratio0Y_0_15_10.png,,,,,,,,,,,,
,,,,,,,,,,,,Most,Less than half,None,Half,More than half,Few,Some,All,Many,-0.01850905,-0.252409219,1,0,0,QQQ6,,,,,,,,English,2020-07-02_10h59.49.290,Experiment_English,3.2.4,Win32,60,,,1,0,340,132,1,339,ratio15_2_12_16.png,,,,,,,,,,,,
,,,,,,,,,,,,Less than half,Many,None,More than half,Half,Most,Few,All,Some,0.013922382,-0.281134258,1,0,0,QQQ6,,,,,,,,English,2020-07-02_10h59.49.290,Experiment_English,3.2.4,Win32,60,,,1,0,340,210,1,339,ratio31_9_12_9.png,,,,,,,,,,,,
,,,,,,,,,,,,Few,More than half,Some,Half,Less than half,Most,None,Many,All,0.088051369,0.013528522,1,0,0,QQQ5,,,,,,,,English,2020-07-02_10h59.49.290,Experiment_English,3.2.4,Win32,60,,,1,0,340,198,1,339,ratio23_8_20_7.png,,,,,,,,,,,,
,,,,,,,,,,,,Few,Most,All,Less than half,Half,More than half,Many,None,Some,0.058399831,-0.267235016,1,0,0,QQQ6,,,,,,,,English,2020-07-02_10h59.49.290,Experiment_English,3.2.4,Win32,60,,,1,0,340,169,1,339,ratio21_6_9_7.png,,,,,,,,,,,,
,,,,,,,,,,,,All,Half,Most,Less than half,Some,None,Many,More than half,Few,-0.472549067,-0.317272083,1,0,0,QQQ9,,,,,,,,English,2020-07-02_10h59.49.290,Experiment_English,3.2.4,Win32,60,,,1,0,340,101,1,339,ratio14_1_5_7.png,,,,,,,,,,,,
,,,,,,,,,,,,All,Some,Most,Half,Many,Less than half,None,Few,More than half,-0.518879712,0.009822073,1,0,0,QQQ8,,,,,,,,English,2020-07-02_10h59.49.290,Experiment_English,3.2.4,Win32,60,,,1,0,340,158,1,339,ratio19_2_20_17.png,,,,,,,,,,,,
,,,,,,,,,,,,Few,Most,Many,Some,None,Less than half,Half,More than half,All,0.430897935,0.031134157,1,0,0,QQQ2,,,,,,,,English,2020-07-02_10h59.49.290,Experiment_English,3.2.4,Win32,60,,,1,0,340,331,1,339,ratio91_18_20_3.png,,,,,,,,,,,,
,,,,,,,,,,,,Few,Half,None,Some,All,Less than half,More than half,Many,Most,-0.395640215,0.315604145,1,0,0,QQQ7,,,,,,,,English,2020-07-02_10h59.49.290,Experiment_English,3.2.4,Win32,60,,,1,0,340,166,1,339,ratio21_6_9_1.png,,,,,,,,,,,,
,,,,,,,,,,,,More than half,Half,Most,Less than half,None,All,Some,Many,Few,0.435530996,0.280392876,1,0,0,QQQ1,,,,,,,,English,2020-07-02_10h59.49.290,Experiment_English,3.2.4,Win32,60,,,1,0,340,281,1,339,ratio43_4_7_4.png,,,,,,,,,,,,
,,,,,,,,,,,,Half,Few,None,All,Most,More than half,Some,Many,Less than half,0.494834186,0.005189011,1,0,0,QQQ2,,,,,,,,English,2020-07-02_10h59.49.290,Experiment_English,3.2.4,Win32,60,,,1,0,340,137,1,339,ratio15_3_18_16.png,,,,,,,,,,,,
,,,,,,,,,,,,Less than half,Most,All,None,Few,Some,Half,Many,More than half,0.472595603,-0.03094887,1,0,0,QQQ2,,,,,,,,English,2020-07-02_10h59.49.290,Experiment_English,3.2.4,Win32,60,,,1,0,340,266,1,339,ratio41_8_10_2.png,,,,,,,,,,,,
,,,,,,,,,,,,Less than half,Half,Some,Few,More than half,All,Most,None,Many,-0.062986442,0.008895461,1,0,0,QQQ5,,,,,,,,English,2020-07-02_10h59.49.290,Experiment_English,3.2.4,Win32,60,,,1,0,340,199,1,339,ratio23_8_20_8.png,,,,,,,,,,,,
,,,,,,,,,,,,Most,Some,More than half,Half,Less than half,None,Few,Many,All,-0.419732192,0.256300955,1,0,0,QQQ7,,,,,,,,English,2020-07-02_10h59.49.290,Experiment_English,3.2.4,Win32,60,,,1,0,340,8,1,339,ratio12_3_9_4.png,,,,,,,,,,,,
,,,,,,,,,,,,None,Few,Most,Half,Many,More than half,Less than half,All,Some,0.566183449,0.386026675,1,0,0,QQQ1,,,,,,,,English,2020-07-02_10h59.49.290,Experiment_English,3.2.4,Win32,60,,,1,0,340,70,1,339,ratio0Y_0_12_5.png,,,,,,,,,,,,
,,,,,,,,,,,,All,Less than half,Few,Most,Some,None,Half,Many,More than half,0.499467248,-0.311712409,1,0,0,QQQ3,,,,,,,,English,2020-07-02_10h59.49.290,Experiment_English,3.2.4,Win32,60,,,1,0,340,99,1,339,ratio13_5_20_4.png,,,,,,,,,,,,
,,,,,,,,,,,,All,Few,Less than half,Most,Half,Many,More than half,Some,None,0.144574835,0.322090431,1,0,0,QQQ4,,,,,,,,English,2020-07-02_10h59.49.290,Experiment_English,3.2.4,Win32,60,,,1,0,340,165,1,339,ratio21_4_6_10.png,,,,,,,,,,,,
,,,,,,,,,,,,Most,Some,Less than half,Few,Many,More than half,All,None,Half,-0.386374148,-0.030022258,1,0,0,QQQ8,,,,,,,,English,2020-07-02_10h59.49.290,Experiment_English,3.2.4,Win32,60,,,1,0,340,77,1,339,ratio0Y_0_18_3.png,,,,,,,,,,,,
,,,,,,,,,,,,Many,Few,Most,Less than half,More than half,Half,Some,All,None,0.536531741,-0.360822863,1,0,0,QQQ3,,,,,,,,English,2020-07-02_10h59.49.290,Experiment_English,3.2.4,Win32,60,,,1,0,340,273,1,339,ratio41_12_15_8.png,,,,,,,,,,,,
,,,,,,,,,,,,Many,Less than half,None,Few,Most,Half,All,More than half,Some,-0.016655825,0.034840578,1,0,0,QQQ5,,,,,,,,English,2020-07-02_10h59.49.290,Experiment_English,3.2.4,Win32,60,,,1,0,340,282,1,339,ratio43_4_7_7.png,,,,,,,,,,,,
,,,,,,,,,,,,None,Few,Less than half,All,Most,More than half,Half,Many,Some,0.532825292,0.055226049,1,0,0,QQQ2,,,,,,,,English,2020-07-02_10h59.49.290,Experiment_English,3.2.4,Win32,60,,,1,0,340,241,1,339,ratio34_3_7_5.png,0.321557679,-0.40344703,1,0,0,continue_button_pause,1,0,1,0,1,0
,,,,,,,,,,,,,,,,,,,,,,,,,,,,,,,,,,English,2020-07-02_10h59.49.290,Experiment_English,3.2.4,Win32,60,,,1,0,340,241,1,339,ratio34_3_7_5.png,,,,,,,,,,,,
,,,,,,,,,,,,None,Some,All,More than half,Half,Many,Few,Most,Less than half,-0.477182129,-0.030022258,1,0,0,QQQ8,,,,,,,,English,2020-07-02_10h59.49.290,Experiment_English,3.2.4,Win32,60,,,1,0,340,270,1,339,ratio41_12_15_3.png,,,,,,,,,,,,
,,,,,,,,,,,,Many,Most,Some,All,Less than half,More than half,Half,Few,None,-0.480888607,0.062638948,1,0,0,QQQ8,,,,,,,,English,2020-07-02_10h59.49.290,Experiment_English,3.2.4,Win32,60,,,1,0,340,111,1,339,ratio14_3_15_3.png,,,,,,,,,,,,
,,,,,,,,,,,,Many,Half,More than half,Less than half,Few,None,Some,Most,All,-0.370621738,0.052446212,1,0,0,QQQ8,,,,,,,,English,2020-07-02_10h59.49.290,Experiment_English,3.2.4,Win32,60,,,1,0,340,338,1,339,ratio91_18_20_18.png,,,,,,,,,,,,
,,,,,,,,,,,,Some,Few,More than half,Half,None,Less than half,Many,All,Most,-0.45864991,0.022794646,1,0,0,QQQ8,,,,,,,,English,2020-07-02_10h59.49.290,Experiment_English,3.2.4,Win32,60,,,1,0,340,42,1,339,ratioX0_5_5_5.png,,,,,,,,,,,,
,,,,,,,,,,,,More than half,All,Most,Less than half,Half,Many,Some,None,Few,-0.077812239,0.24240177,1,0,0,QQQ4,,,,,,,,English,2020-07-02_10h59.49.290,Experiment_English,3.2.4,Win32,60,,,1,0,340,36,1,339,ratio11_9_18_1.png,,,,,,,,,,,,
,,,,,,,,,,,,All,Some,Most,Half,Few,Less than half,None,More than half,Many,-0.0898582,-0.297813223,1,0,0,QQQ6,,,,,,,,English,2020-07-02_10h59.49.290,Experiment_English,3.2.4,Win32,60,,,1,0,340,34,1,339,ratio11_8_16_8.png,,,,,,,,,,,,
,,,,,,,,,,,,None,Less than half,Most,Some,Many,Half,All,More than half,Few,-0.558724043,-0.297813223,1,0,0,QQQ9,,,,,,,,English,2020-07-02_10h59.49.290,Experiment_English,3.2.4,Win32,60,,,1,0,340,115,1,339,ratio14_4_20_1.png,,,,,,,,,,,,
,,,,,,,,,,,,Less than half,Some,Most,Many,None,Half,All,More than half,Few,0.403099678,-0.258895505,1,0,0,QQQ3,,,,,,,,English,2020-07-02_10h59.49.290,Experiment_English,3.2.4,Win32,60,,,1,0,340,283,1,339,ratio43_4_7_8.png,,,,,,,,,,,,
,,,,,,,,,,,,Half,More than half,Most,None,Many,All,Few,Less than half,Some,0.531898793,-0.021682747,1,0,0,QQQ2,,,,,,,,English,2020-07-02_10h59.49.290,Experiment_English,3.2.4,Win32,60,,,1,0,340,222,1,339,ratio32_3_5_4.png,,,,,,,,,,,,
,,,,,,,,,,,,Less than half,Half,All,Many,Few,Most,None,Some,More than half,0.043573977,-0.059673852,1,0,0,QQQ5,,,,,,,,English,2020-07-02_10h59.49.290,Experiment_English,3.2.4,Win32,60,,,1,0,340,96,1,339,ratio13_5_20_1.png,,,,,,,,,,,,
,,,,,,,,,,,,Most,All,Half,Many,Few,Less than half,More than half,None,Some,0.03430791,-0.036508544,1,0,0,QQQ5,,,,,,,,English,2020-07-02_10h59.49.290,Experiment_English,3.2.4,Win32,60,,,1,0,340,2,1,339,ratio12_1_3_10.png,,,,,,,,,,,,
,,,,,,,,,,,,Less than half,Many,Most,More than half,Some,All,Half,None,Few,-0.464209584,-0.382134946,1,0,0,QQQ9,,,,,,,,English,2020-07-02_10h59.49.290,Experiment_English,3.2.4,Win32,60,,,1,0,340,129,1,339,ratio15_2_12_9.png,,,,,,,,,,,,
,,,,,,,,,,,,Few,Half,Most,None,Less than half,Some,All,More than half,Many,0.478155277,-0.281134258,1,0,0,QQQ3,,,,,,,,English,2020-07-02_10h59.49.290,Experiment_English,3.2.4,Win32,60,,,1,0,340,306,1,339,ratio51_5_6_18.png,,,,,,,,,,,,
,,,,,,,,,,,,Some,Less than half,Half,None,Few,Many,Most,More than half,All,-0.479961966,-0.24499632,1,0,0,QQQ9,,,,,,,,English,2020-07-02_10h59.49.290,Experiment_English,3.2.4,Win32,60,,,1,0,340,57,1,339,ratioX0_18_18_1.png,,,,,,,,,,,,
,,,,,,,,,,,,Some,Many,Half,Most,None,More than half,Less than half,Few,All,0.080638584,0.262787241,1,0,0,QQQ4,,,,,,,,English,2020-07-02_10h59.49.290,Experiment_English,3.2.4,Win32,60,,,1,0,340,228,1,339,ratio32_6_10_7.png,,,,,,,,,,,,
,,,,,,,,,,,,Half,More than half,Some,All,None,Most,Many,Few,Less than half,-0.445677338,0.260934017,1,0,0,QQQ7,,,,,,,,English,2020-07-02_10h59.49.290,Experiment_English,3.2.4,Win32,60,,,1,0,340,232,1,339,ratio32_9_15_8.png,,,,,,,,,,,,
,,,,,,,,,,,,Few,Most,None,Less than half,Half,Many,More than half,All,Some,0.505953534,-0.281134258,1,0,0,QQQ3,,,,,,,,English,2020-07-02_10h59.49.290,Experiment_English,3.2.4,Win32,60,,,1,0,340,60,1,339,ratio0Y_0_3_5.png,,,,,,,,,,,,
,,,,,,,,,,,,Less than half,All,More than half,Half,None,Few,Some,Most,Many,-0.003683252,-0.308005959,1,0,0,QQQ6,,,,,,,,English,2020-07-02_10h59.49.290,Experiment_English,3.2.4,Win32,60,,,1,0,340,102,1,339,ratio14_1_5_8.png,,,,,,,,,,,,
,,,,,,,,,,,,Some,More than half,Half,Many,Few,Less than half,Most,None,All,-0.416952355,0.311897695,1,0,0,QQQ7,,,,,,,,English,2020-07-02_10h59.49.290,Experiment_English,3.2.4,Win32,60,,,1,0,340,311,1,339,ratio51_10_12_14.png,,,,,,,,,,,,
,,,,,,,,,,,,Some,None,Less than half,Many,All,Half,Few,More than half,Most,-0.638412704,-0.285767263,1,0,0,QQQ9,,,,,,,,English,2020-07-02_10h59.49.290,Experiment_English,3.2.4,Win32,60,,,1,0,340,202,1,339,ratio31_3_4_8.png,,,,,,,,,,,,
,,,,,,,,,,,,None,All,Less than half,Some,More than half,Few,Most,Many,Half,-0.462356332,0.218309849,1,0,0,QQQ7,,,,,,,,English,2020-07-02_10h59.49.290,Experiment_English,3.2.4,Win32,60,,,1,0,340,179,1,339,ratio21_12_18_8.png,,,,,,,,,,,,
,,,,,,,,,,,,More than half,Some,None,Half,Less than half,Many,All,Most,Few,0.426264986,0.277613025,1,0,0,QQQ1,,,,,,,,English,2020-07-02_10h59.49.290,Experiment_English,3.2.4,Win32,60,,,1,0,340,220,1,339,ratio32_3_5_1.png,,,,,,,,,,,,
,,,,,,,,,,,,Few,Half,Most,Many,More than half,Less than half,None,All,Some,-0.035188015,-0.321905201,1,0,0,QQQ6,,,,,,,,English,2020-07-02_10h59.49.290,Experiment_English,3.2.4,Win32,60,,,1,0,340,4,1,339,ratio12_2_6_5.png,,,,,,,,,,,,
,,,,,,,,,,,,Half,None,Few,All,More than half,Most,Some,Less than half,Many,0.013922382,-0.327464875,1,0,0,QQQ6,,,,,,,,English,2020-07-02_10h59.49.290,Experiment_English,3.2.4,Win32,60,,,1,0,340,307,1,339,ratio51_10_12_1.png,,,,,,,,,,,,
,,,,,,,,,,,,Most,None,Half,More than half,Few,All,Many,Some,Less than half,0.077858634,0.09599702,1,0,0,QQQ5,,,,,,,,English,2020-07-02_10h59.49.290,Experiment_English,3.2.4,Win32,60,,,1,0,340,191,1,339,ratio23_6_15_7.png,,,,,,,,,,,,
,,,,,,,,,,,,More than half,Few,None,Many,Half,Most,Some,All,Less than half,0.063959448,-0.009636786,1,0,0,QQQ5,,,,,,,,English,2020-07-02_10h59.49.290,Experiment_English,3.2.4,Win32,60,,,1,0,340,25,1,339,ratio11_4_8_10.png,,,,,,,,,,,,
,,,,,,,,,,,,Most,None,Some,More than half,Less than half,Half,All,Few,Many,-0.403979782,-0.010563399,1,0,0,QQQ8,,,,,,,,English,2020-07-02_10h59.49.290,Experiment_English,3.2.4,Win32,60,,,1,0,340,85,1,339,ratio13_2_8_5.png,,,,,,,,,,,,
,,,,,,,,,,,,Half,Some,Few,None,Less than half,Most,All,Many,More than half,0.405879401,-0.33209788,1,0,0,QQQ3,,,,,,,,English,2020-07-02_10h59.49.290,Experiment_English,3.2.4,Win32,60,,,1,0,340,153,1,339,ratio19_2_20_8.png,,,,,,,,,,,,
,,,,,,,,,,,,More than half,Most,All,Less than half,Few,None,Some,Many,Half,0.507806872,0.02835432,1,0,0,QQQ2,,,,,,,,English,2020-07-02_10h59.49.290,Experiment_English,3.2.4,Win32,60,,,1,0,340,217,1,339,ratio31_15_20_5.png,,,,,,,,,,,,
,,,,,,,,,,,,Most,Some,More than half,Half,Many,All,Less than half,Few,None,-0.006463033,0.303558184,1,0,0,QQQ4,,,,,,,,English,2020-07-02_10h59.49.290,Experiment_English,3.2.4,Win32,60,,,1,0,340,245,1,339,ratio34_3_7_10.png,,,,,,,,,,,,
,,,,,,,,,,,,All,Many,Less than half,None,More than half,Most,Few,Some,Half,0.399393115,-0.268161629,1,0,0,QQQ3,,,,,,,,English,2020-07-02_10h59.49.290,Experiment_English,3.2.4,Win32,60,,,1,0,340,9,1,339,ratio12_3_9_5.png,,,,,,,,,,,,
,,,,,,,,,,,,All,More than half,Few,Less than half,Most,Half,Many,None,Some,-0.036114684,0.026501067,1,0,0,QQQ5,,,,,,,,English,2020-07-02_10h59.49.290,Experiment_English,3.2.4,Win32,60,,,1,0,340,211,1,339,ratio31_9_12_10.png,,,,,,,,,,,,
,,,,,,,,,,,,Some,None,All,Less than half,Few,More than half,Half,Many,Most,0.572669735,0.010748685,1,0,0,QQQ2,,,,,,,,English,2020-07-02_10h59.49.290,Experiment_English,3.2.4,Win32,60,,,1,0,340,71,1,339,ratio0Y_0_12_10.png,,,,,,,,,,,,
,,,,,,,,,,,,None,All,Many,Most,More than half,Few,Less than half,Half,Some,-0.382667699,-0.007783562,1,0,0,QQQ8,,,,,,,,English,2020-07-02_10h59.49.290,Experiment_English,3.2.4,Win32,60,,,1,0,340,21,1,339,ratio11_2_4_10.png,0.404952789,-0.397887413,1,0,0,continue_button_pause,1,0,1,0,1,0
,,,,,,,,,,,,,,,,,,,,,,,,,,,,,,,,,,English,2020-07-02_10h59.49.290,Experiment_English,3.2.4,Win32,60,,,1,0,340,21,1,339,ratio11_2_4_10.png,,,,,,,,,,,,
,,,,,,,,,,,,Few,Less than half,Most,None,Some,Many,Half,More than half,All,-0.492007955,-0.222757624,1,0,0,QQQ9,,,,,,,,English,2020-07-02_10h59.49.290,Experiment_English,3.2.4,Win32,60,,,1,0,340,56,1,339,ratioX0_17_17_10.png,,,,,,,,,,,,
,,,,,,,,,,,,More than half,Half,Many,None,Most,Some,All,Few,Less than half,-0.490154702,-0.297813223,1,0,0,QQQ9,,,,,,,,English,2020-07-02_10h59.49.290,Experiment_English,3.2.4,Win32,60,,,1,0,340,196,1,339,ratio23_8_20_5.png,,,,,,,,,,,,
,,,,,,,,,,,,None,More than half,Many,Less than half,Most,Half,All,Few,Some,-0.100977548,0.011675298,1,0,0,QQQ5,,,,,,,,English,2020-07-02_10h59.49.290,Experiment_English,3.2.4,Win32,60,,,1,0,340,297,1,339,ratio43_8_14_13.png,,,,,,,,,,,,
,,,,,,,,,,,,All,Half,More than half,Less than half,None,Few,Most,Many,Some,-0.04630742,-0.242216483,1,0,0,QQQ6,,,,,,,,English,2020-07-02_10h59.49.290,Experiment_English,3.2.4,Win32,60,,,1,0,340,116,1,339,ratio14_4_20_3.png,,,,,,,,,,,,
,,,,,,,,,,,,Many,All,More than half,Half,Some,None,Few,Most,Less than half,-0.417878968,0.05615269,1,0,0,QQQ8,,,,,,,,English,2020-07-02_10h59.49.290,Experiment_English,3.2.4,Win32,60,,,1,0,340,207,1,339,ratio31_6_8_9.png,,,,,,,,,,,,
,,,,,,,,,,,,More than half,All,Less than half,Many,Few,Most,None,Half,Some,0.446650344,0.014455135,1,0,0,QQQ2,,,,,,,,English,2020-07-02_10h59.49.290,Experiment_English,3.2.4,Win32,60,,,1,0,340,58,1,339,ratioX0_19_19_4.png,,,,,,,,,,,,
,,,,,,,,,,,,Less than half,None,More than half,Many,Most,Few,Half,All,Some,-0.045380807,0.271126752,1,0,0,QQQ4,,,,,,,,English,2020-07-02_10h59.49.290,Experiment_English,3.2.4,Win32,60,,,1,0,340,230,1,339,ratio32_9_15_1.png,,,,,,,,,,,,
,,,,,,,,,,,,More than half,Some,Half,Most,Many,Few,Less than half,None,All,-0.00553642,-0.012416623,1,0,0,QQQ5,,,,,,,,English,2020-07-02_10h59.49.290,Experiment_English,3.2.4,Win32,60,,,1,0,340,234,1,339,ratio32_9_15_10.png,,,,,,,,,,,,
,,,,,,,,,,,,More than half,Few,Many,Most,Some,Half,All,Less than half,None,0.027821624,0.309117844,1,0,0,QQQ4,,,,,,,,English,2020-07-02_10h59.49.290,Experiment_English,3.2.4,Win32,60,,,1,0,340,322,1,339,ratio91_9_10_3.png,,,,,,,,,,,,
,,,,,,,,,,,,More than half,Some,Less than half,Few,Half,Many,All,Most,None,-0.528145836,-0.016123073,1,0,0,QQQ8,,,,,,,,English,2020-07-02_10h59.49.290,Experiment_English,3.2.4,Win32,60,,,1,0,340,262,1,339,ratio41_4_5_4.png,,,,,,,,,,,,
,,,,,,,,,,,,All,Less than half,Many,More than half,Few,Some,None,Most,Half,-0.066692891,0.026501067,1,0,0,QQQ5,,,,,,,,English,2020-07-02_10h59.49.290,Experiment_English,3.2.4,Win32,60,,,1,0,340,16,1,339,ratio12_5_15_6.png,,,,,,,,,,,,
,,,,,,,,,,,,Some,More than half,All,Many,Most,Half,Few,Less than half,None,-0.501274078,0.308191246,1,0,0,QQQ7,,,,,,,,English,2020-07-02_10h59.49.290,Experiment_English,3.2.4,Win32,60,,,1,0,340,150,1,339,ratio19_2_20_1.png,,,,,,,,,,,,
,,,,,,,,,,,,More than half,Many,All,Most,None,Few,Some,Less than half,Half,-0.365988677,-0.031875539,1,0,0,QQQ8,,,,,,,,English,2020-07-02_10h59.49.290,Experiment_English,3.2.4,Win32,60,,,1,0,340,240,1,339,ratio34_3_7_4.png,,,,,,,,,,,,
,,,,,,,,,,,,Half,Some,All,More than half,Few,Less than half,Many,Most,None,-0.057426768,0.014455135,1,0,0,QQQ5,,,,,,,,English,2020-07-02_10h59.49.290,Experiment_English,3.2.4,Win32,60,,,1,0,340,14,1,339,ratio12_5_15_4.png,,,,,,,,,,,,
,,,,,,,,,,,,All,Less than half,Few,Half,Some,More than half,Most,None,Many,0.437384334,-0.307079403,1,0,0,QQQ3,,,,,,,,English,2020-07-02_10h59.49.290,Experiment_English,3.2.4,Win32,60,,,1,0,340,3,1,339,ratio12_2_6_3.png,,,,,,,,,,,,
,,,,,,,,,,,,Less than half,More than half,None,All,Some,Half,Most,Many,Few,0.504100309,-0.269088298,1,0,0,QQQ3,,,,,,,,English,2020-07-02_10h59.49.290,Experiment_English,3.2.4,Win32,60,,,1,0,340,78,1,339,ratio0Y_0_19_1.png,,,,,,,,,,,,
,,,,,,,,,,,,Most,Some,All,Less than half,Few,More than half,None,Half,Many,0.4197787,0.271126752,1,0,0,QQQ1,,,,,,,,English,2020-07-02_10h59.49.290,Experiment_English,3.2.4,Win32,60,,,1,0,340,274,1,339,ratio41_12_15_9.png,,,,,,,,,,,,
,,,,,,,,,,,,Half,Some,More than half,Most,Less than half,Few,None,Many,All,0.442943895,-0.271868135,1,0,0,QQQ3,,,,,,,,English,2020-07-02_10h59.49.290,Experiment_English,3.2.4,Win32,60,,,1,0,340,162,1,339,ratio21_2_3_9.png,,,,,,,,,,,,
,,,,,,,,,,,,More than half,Most,Some,All,Many,Less than half,Half,None,Few,0.07229896,-0.24499632,1,0,0,QQQ6,,,,,,,,English,2020-07-02_10h59.49.290,Experiment_English,3.2.4,Win32,60,,,1,0,340,183,1,339,ratio23_2_5_9.png,,,,,,,,,,,,
,,,,,,,,,,,,Few,None,Many,Most,Half,Some,Less than half,All,More than half,-0.034261459,0.272979977,1,0,0,QQQ4,,,,,,,,English,2020-07-02_10h59.49.290,Experiment_English,3.2.4,Win32,60,,,1,0,340,168,1,339,ratio21_6_9_3.png,,,,,,,,,,,,
,,,,,,,,,,,,Most,Few,Less than half,All,Many,More than half,Some,None,Half,0.515219657,0.318383982,1,0,0,QQQ1,,,,,,,,English,2020-07-02_10h59.49.290,Experiment_English,3.2.4,Win32,60,,,1,0,340,92,1,339,ratio13_4_16_3.png,,,,,,,,,,,,
,,,,,,,,,,,,Less than half,All,More than half,Half,Many,Some,Few,Most,None,-0.024068667,0.302631558,1,0,0,QQQ4,,,,,,,,English,2020-07-02_10h59.49.290,Experiment_English,3.2.4,Win32,60,,,1,0,340,287,1,339,ratio43_4_7_17.png,,,,,,,,,,,,
,,,,,,,,,,,,Most,Few,None,All,Some,Less than half,Half,More than half,Many,0.442943895,0.020941364,1,0,0,QQQ2,,,,,,,,English,2020-07-02_10h59.49.290,Experiment_English,3.2.4,Win32,60,,,1,0,340,15,1,339,ratio12_5_15_5.png,,,,,,,,,,,,
,,,,,,,,,,,,Most,More than half,Many,Half,Some,Few,Less than half,All,None,-0.021288887,-0.314492246,1,0,0,QQQ6,,,,,,,,English,2020-07-02_10h59.49.290,Experiment_English,3.2.4,Win32,60,,,1,0,340,93,1,339,ratio13_4_16_7.png,,,,,,,,,,,,
,,,,,,,,,,,,Some,All,Less than half,More than half,Half,Few,Most,Many,None,-0.053720319,-0.231097192,1,0,0,QQQ6,,,,,,,,English,2020-07-02_10h59.49.290,Experiment_English,3.2.4,Win32,60,,,1,0,340,118,1,339,ratio14_4_20_8.png,,,,,,,,,,,,
,,,,,,,,,,,,Many,Few,Most,Some,All,None,More than half,Half,Less than half,-0.514246651,-0.087472279,1,0,0,QQQ8,,,,,,,,English,2020-07-02_10h59.49.290,Experiment_English,3.2.4,Win32,60,,,1,0,340,29,1,339,ratio11_6_12_1.png,,,,,,,,,,,,
,,,,,,,,,,,,More than half,Few,Most,Less than half,Many,All,Some,Half,None,-0.425291838,-0.020756134,1,0,0,QQQ8,,,,,,,,English,2020-07-02_10h59.49.290,Experiment_English,3.2.4,Win32,60,,,1,0,340,258,1,339,ratio34_6_14_14.png,,,,,,,,,,,,
,,,,,,,,,,,,Few,All,Less than half,Half,Most,Many,Some,More than half,None,0.067665898,0.304484797,1,0,0,QQQ4,,,,,,,,English,2020-07-02_10h59.49.290,Experiment_English,3.2.4,Win32,60,,,1,0,340,11,1,339,ratio12_4_12_7.png,,,,,,,,,,,,
,,,,,,,,,,,,Many,Few,Less than half,Half,None,Most,All,Some,More than half,0.526339119,0.036693831,1,0,0,QQQ2,,,,,,,,English,2020-07-02_10h59.49.290,Experiment_English,3.2.4,Win32,60,,,1,0,340,133,1,339,ratio15_3_18_3.png,,,,,,,,,,,,
,,,,,,,,,,,,More than half,All,Few,Half,Most,Less than half,Many,None,Some,-0.427145063,0.260934017,1,0,0,QQQ7,,,,,,,,English,2020-07-02_10h59.49.290,Experiment_English,3.2.4,Win32,60,,,1,0,340,141,1,339,ratio19_1_10_2.png,,,,,,,,,,,,
,,,,,,,,,,,,All,Few,More than half,Half,None,Some,Less than half,Most,Many,0.467962428,0.002409174,1,0,0,QQQ2,,,,,,,,English,2020-07-02_10h59.49.290,Experiment_English,3.2.4,Win32,60,,,1,0,340,79,1,339,ratio0Y_0_20_4.png,,,,,,,,,,,,
,,,,,,,,,,,,Some,Less than half,Few,None,Many,All,More than half,Most,Half,-0.468842646,-0.03094887,1,0,0,QQQ8,,,,,,,,English,2020-07-02_10h59.49.290,Experiment_English,3.2.4,Win32,60,,,1,0,340,216,1,339,ratio31_15_20_3.png,,,,,,,,,,,,
,,,,,,,,,,,,Less than half,All,None,Some,Many,More than half,Few,Half,Most,-0.037041296,0.267420289,1,0,0,QQQ4,,,,,,,,English,2020-07-02_10h59.49.290,Experiment_English,3.2.4,Win32,60,,,1,0,340,63,1,339,ratio0Y_0_6_8.png,,,,,,,,,,,,
,,,,,,,,,,,,Few,All,More than half,Most,Many,Some,Half,None,Less than half,0.514293158,0.310971083,1,0,0,QQQ1,,,,,,,,English,2020-07-02_10h59.49.290,Experiment_English,3.2.4,Win32,60,,,1,0,340,155,1,339,ratio19_2_20_13.png,0.334530251,-0.404373642,1,0,0,continue_button_pause,1,0,1,0,1,0
,,,,,,,,,,,,,,,,,,,,,,,,,,,,,,,,,,English,2020-07-02_10h59.49.290,Experiment_English,3.2.4,Win32,60,,,1,0,340,155,1,339,ratio19_2_20_13.png,,,,,,,,,,,,
,,,,,,,,,,,,Few,Less than half,Most,Many,None,All,Half,More than half,Some,0.437384334,-0.285767263,1,0,0,QQQ3,,,,,,,,English,2020-07-02_10h59.49.290,Experiment_English,3.2.4,Win32,60,,,1,0,340,288,1,339,ratio43_4_7_18.png,,,,,,,,,,,,
,,,,,,,,,,,,Half,None,Less than half,More than half,Many,Few,Most,Some,All,-0.441044276,0.259080764,1,0,0,QQQ7,,,,,,,,English,2020-07-02_10h59.49.290,Experiment_English,3.2.4,Win32,60,,,1,0,340,333,1,339,ratio91_18_20_6.png,,,,,,,,,,,,
,,,,,,,,,,,,Half,Less than half,Some,None,More than half,All,Many,Most,Few,-0.05279365,0.315604145,1,0,0,QQQ4,,,,,,,,English,2020-07-02_10h59.49.290,Experiment_English,3.2.4,Win32,60,,,1,0,340,68,1,339,ratio0Y_0_11_3.png,,,,,,,,,,,,
,,,,,,,,,,,,Few,Many,Half,Most,All,None,More than half,Some,Less than half,0.495760911,0.268346915,1,0,0,QQQ1,,,,,,,,English,2020-07-02_10h59.49.290,Experiment_English,3.2.4,Win32,60,,,1,0,340,144,1,339,ratio19_1_10_11.png,,,,,,,,,,,,
,,,,,,,,,,,,None,Less than half,Most,Many,Some,Half,All,More than half,Few,0.051913545,-0.282987426,1,0,0,QQQ6,,,,,,,,English,2020-07-02_10h59.49.290,Experiment_English,3.2.4,Win32,60,,,1,0,340,20,1,339,ratio11_2_4_3.png,,,,,,,,,,,,
,,,,,,,,,,,,Some,Most,Less than half,More than half,All,None,Few,Many,Half,0.534678516,-0.27650114,1,0,0,QQQ3,,,,,,,,English,2020-07-02_10h59.49.290,Experiment_English,3.2.4,Win32,60,,,1,0,340,231,1,339,ratio32_9_15_2.png,,,,,,,,,,,,
,,,,,,,,,,,,Many,Most,Some,All,Less than half,Half,None,Few,More than half,-0.510540201,-0.010563399,1,0,0,QQQ8,,,,,,,,English,2020-07-02_10h59.49.290,Experiment_English,3.2.4,Win32,60,,,1,0,340,122,1,339,ratio15_1_6_7.png,,,,,,,,,,,,
,,,,,,,,,,,,Few,Many,Less than half,Some,All,Most,Half,More than half,None,-0.430851512,0.038547027,1,0,0,QQQ8,,,,,,,,English,2020-07-02_10h59.49.290,Experiment_English,3.2.4,Win32,60,,,1,0,340,285,1,339,ratio43_4_7_14.png,,,,,,,,,,,,
,,,,,,,,,,,,Less than half,None,Half,Most,Some,All,More than half,Many,Few,-0.510540201,-0.35711647,1,0,0,QQQ9,,,,,,,,English,2020-07-02_10h59.49.290,Experiment_English,3.2.4,Win32,60,,,1,0,340,91,1,339,ratio13_3_12_10.png,,,,,,,,,,,,
,,,,,,,,,,,,Half,Few,All,None,Some,More than half,Most,Less than half,Many,0.503173697,0.031134157,1,0,0,QQQ2,,,,,,,,English,2020-07-02_10h59.49.290,Experiment_English,3.2.4,Win32,60,,,1,0,340,128,1,339,ratio15_2_12_8.png,,,,,,,,,,,,
,,,,,,,,,,,,Less than half,More than half,Some,Many,All,Few,Most,None,Half,0.038014303,-0.268161629,1,0,0,QQQ6,,,,,,,,English,2020-07-02_10h59.49.290,Experiment_English,3.2.4,Win32,60,,,1,0,340,190,1,339,ratio23_6_15_3.png,,,,,,,,,,,,
,,,,,,,,,,,,Half,None,Less than half,More than half,All,Many,Some,Most,Few,-0.525365971,-0.311712409,1,0,0,QQQ9,,,,,,,,English,2020-07-02_10h59.49.290,Experiment_English,3.2.4,Win32,60,,,1,0,340,106,1,339,ratio14_2_10_2.png,,,,,,,,,,,,
,,,,,,,,,,,,Less than half,Some,Half,Many,More than half,Most,All,Few,None,0.479081889,0.344329113,1,0,0,QQQ1,,,,,,,,English,2020-07-02_10h59.49.290,Experiment_English,3.2.4,Win32,60,,,1,0,340,181,1,339,ratio23_2_5_6.png,,,,,,,,,,,,
,,,,,,,,,,,,Less than half,More than half,Many,Some,None,Half,Few,All,Most,-0.467916034,-0.319125364,1,0,0,QQQ9,,,,,,,,English,2020-07-02_10h59.49.290,Experiment_English,3.2.4,Win32,60,,,1,0,340,314,1,339,ratio51_15_18_4.png,,,,,,,,,,,,
,,,,,,,,,,,,Some,Many,More than half,Less than half,None,All,Most,Half,Few,0.612513953,0.333209779,1,0,0,QQQ1,,,,,,,,English,2020-07-02_10h59.49.290,Experiment_English,3.2.4,Win32,60,,,1,0,340,6,1,339,ratio12_3_9_1.png,,,,,,,,,,,,
,,,,,,,,,,,,Half,None,More than half,Many,All,Few,Less than half,Some,Most,-0.37803458,0.238695321,1,0,0,QQQ7,,,,,,,,English,2020-07-02_10h59.49.290,Experiment_English,3.2.4,Win32,60,,,1,0,340,244,1,339,ratio34_3_7_9.png,,,,,,,,,,,,
,,,,,,,,,,,,Many,Half,More than half,Few,None,Less than half,Most,Some,All,-0.447530534,0.260007404,1,0,0,QQQ7,,,,,,,,English,2020-07-02_10h59.49.290,Experiment_English,3.2.4,Win32,60,,,1,0,340,212,1,339,ratio31_12_16_1.png,,,,,,,,,,,,
,,,,,,,,,,,,All,Less than half,Half,More than half,Some,Many,Most,Few,None,-0.520732937,-0.004077112,1,0,0,QQQ8,,,,,,,,English,2020-07-02_10h59.49.290,Experiment_English,3.2.4,Win32,60,,,1,0,340,112,1,339,ratio14_3_15_4.png,,,,,,,,,,,,
,,,,,,,,,,,,All,Few,Half,None,Many,Most,Less than half,Some,More than half,0.447576957,-0.001297275,1,0,0,QQQ2,,,,,,,,English,2020-07-02_10h59.49.290,Experiment_English,3.2.4,Win32,60,,,1,0,340,148,1,339,ratio19_1_10_19.png,,,,,,,,,,,,
,,,,,,,,,,,,None,All,Few,Some,More than half,Half,Less than half,Most,Many,0.012069158,0.323943656,1,0,0,QQQ4,,,,,,,,English,2020-07-02_10h59.49.290,Experiment_English,3.2.4,Win32,60,,,1,0,340,192,1,339,ratio23_6_15_8.png,,,,,,,,,,,,
,,,,,,,,,,,,Most,Many,Some,None,Few,Less than half,All,Half,More than half,0.642165661,0.281319474,1,0,0,QQQ1,,,,,,,,English,2020-07-02_10h59.49.290,Experiment_English,3.2.4,Win32,60,,,1,0,340,170,1,339,ratio21_6_9_8.png,,,,,,,,,,,,
,,,,,,,,,,,,Less than half,None,All,Most,More than half,Few,Half,Some,Many,-0.003683252,0.32950333,1,0,0,QQQ4,,,,,,,,English,2020-07-02_10h59.49.290,Experiment_English,3.2.4,Win32,60,,,1,0,340,323,1,339,ratio91_9_10_5.png,,,,,,,,,,,,
,,,,,,,,,,,,Most,Half,Some,Less than half,None,All,Many,Few,More than half,-0.460503135,0.091363959,1,0,0,QQQ8,,,,,,,,English,2020-07-02_10h59.49.290,Experiment_English,3.2.4,Win32,60,,,1,0,340,107,1,339,ratio14_2_10_5.png,,,,,,,,,,,,
,,,,,,,,,,,,Few,Some,Half,None,All,Less than half,More than half,Most,Many,-0.000903415,-0.299666448,1,0,0,QQQ6,,,,,,,,English,2020-07-02_10h59.49.290,Experiment_English,3.2.4,Win32,60,,,1,0,340,12,1,339,ratio12_4_12_10.png,,,,,,,,,,,,
,,,,,,,,,,,,All,More than half,Half,Few,Some,Many,None,Most,Less than half,-0.397493496,0.228502585,1,0,0,QQQ7,,,,,,,,English,2020-07-02_10h59.49.290,Experiment_English,3.2.4,Win32,60,,,1,0,340,73,1,339,ratio0Y_0_14_7.png,,,,,,,,,,,,
,,,,,,,,,,,,Half,None,All,Less than half,Many,Most,More than half,Some,Few,0.054693325,0.28595255,1,0,0,QQQ4,,,,,,,,English,2020-07-02_10h59.49.290,Experiment_English,3.2.4,Win32,60,,,1,0,340,251,1,339,ratio34_6_14_2.png,,,,,,,,,,,,
,,,,,,,,,,,,Less than half,Many,All,More than half,Half,Few,None,Most,Some,-0.574476453,-0.045774667,1,0,0,QQQ8,,,,,,,,English,2020-07-02_10h59.49.290,Experiment_English,3.2.4,Win32,60,,,1,0,340,225,1,339,ratio32_6_10_4.png,,,,,,,,,,,,
,,,,,,,,,,,,Most,Many,None,Half,All,More than half,Less than half,Few,Some,0.418851974,0.27020014,1,0,0,QQQ1,,,,,,,,English,2020-07-02_10h59.49.290,Experiment_English,3.2.4,Win32,60,,,1,0,340,167,1,339,ratio21_6_9_2.png,,,,,,,,,,,,
,,,,,,,,,,,,Less than half,None,All,More than half,Most,Many,Half,Some,Few,0.002803091,-0.057820628,1,0,0,QQQ5,,,,,,,,English,2020-07-02_10h59.49.290,Experiment_English,3.2.4,Win32,60,,,1,0,340,203,1,339,ratio31_3_4_9.png,,,,,,,,,,,,
,,,,,,,,,,,,None,More than half,Some,Less than half,Half,Few,All,Many,Most,-0.514246651,-0.299666448,1,0,0,QQQ9,,,,,,,,English,2020-07-02_10h59.49.290,Experiment_English,3.2.4,Win32,60,,,1,0,340,277,1,339,ratio41_16_20_8.png,,,,,,,,,,,,
,,,,,,,,,,,,Many,Most,Some,None,Less than half,All,More than half,Half,Few,-0.480888607,-0.298739892,1,0,0,QQQ9,,,,,,,,English,2020-07-02_10h59.49.290,Experiment_English,3.2.4,Win32,60,,,1,0,340,125,1,339,ratio15_1_6_19.png,,,,,,,,,,,,
,,,,,,,,,,,,Some,Less than half,All,Many,Few,None,Most,More than half,Half,-0.494787763,0.266493705,1,0,0,QQQ7,,,,,,,,English,2020-07-02_10h59.49.290,Experiment_English,3.2.4,Win32,60,,,1,0,340,204,1,339,ratio31_6_8_1.png,,,,,,,,,,,,
,,,,,,,,,,,,All,Few,Less than half,Most,Half,More than half,Many,Some,None,2.32537E-05,0.316530743,1,0,0,QQQ4,,,,,,,,English,2020-07-02_10h59.49.290,Experiment_English,3.2.4,Win32,60,,,1,0,340,208,1,339,ratio31_9_12_3.png,,,,,,,,,,,,
,,,,,,,,,,,,None,Less than half,Most,Few,More than half,Some,Many,All,Half,0.451283406,-0.31356569,1,0,0,QQQ3,,,,,,,,English,2020-07-02_10h59.49.290,Experiment_English,3.2.4,Win32,60,,,1,0,340,330,1,339,ratio91_18_20_2.png,0.328970577,-0.396034131,1,0,0,continue_button_pause,1,0,1,0,1,0
,,,,,,,,,,,,,,,,,,,,,,,,,,,,,,,,,,English,2020-07-02_10h59.49.290,Experiment_English,3.2.4,Win32,60,,,1,0,340,330,1,339,ratio91_18_20_2.png,,,,,,,,,,,,
,,,,,,,,,,,,Half,None,All,More than half,Few,Many,Less than half,Some,Most,-0.024995336,-0.011490067,1,0,0,QQQ5,,,,,,,,English,2020-07-02_10h59.49.290,Experiment_English,3.2.4,Win32,60,,,1,0,340,186,1,339,ratio23_4_10_2.png,,,,,,,,,,,,
,,,,,,,,,,,,Many,None,Few,Half,Some,Most,Less than half,All,More than half,-0.586522413,0.320237192,1,0,0,QQQ7,,,,,,,,English,2020-07-02_10h59.49.290,Experiment_English,3.2.4,Win32,60,,,1,0,340,242,1,339,ratio34_3_7_6.png,,,,,,,,,,,,
,,,,,,,,,,,,Few,Many,Less than half,Half,None,Some,All,Most,More than half,0.439237446,0.31375092,1,0,0,QQQ1,,,,,,,,English,2020-07-02_10h59.49.290,Experiment_English,3.2.4,Win32,60,,,1,0,340,97,1,339,ratio13_5_20_2.png,,,,,,,,,,,,
,,,,,,,,,,,,Some,All,Half,Many,Few,More than half,None,Less than half,Most,-0.010169539,0.009822073,1,0,0,QQQ5,,,,,,,,English,2020-07-02_10h59.49.290,Experiment_English,3.2.4,Win32,60,,,1,0,340,119,1,339,ratio14_4_20_10.png,,,,,,,,,,,,
,,,,,,,,,,,,Most,More than half,Half,All,Less than half,Few,Some,None,Many,2.32537E-05,0.355448475,1,0,0,QQQ4,,,,,,,,English,2020-07-02_10h59.49.290,Experiment_English,3.2.4,Win32,60,,,1,0,340,321,1,339,ratio91_9_10_2.png,,,,,,,,,,,,
,,,,,,,,,,,,None,All,Some,More than half,Few,Half,Less than half,Most,Many,-0.043527583,-0.312639021,1,0,0,QQQ6,,,,,,,,English,2020-07-02_10h59.49.290,Experiment_English,3.2.4,Win32,60,,,1,0,340,38,1,339,ratio11_10_20_5.png,,,,,,,,,,,,
,,,,,,,,,,,,All,Most,Half,More than half,Many,None,Less than half,Few,Some,0.572669735,0.001482562,1,0,0,QQQ2,,,,,,,,English,2020-07-02_10h59.49.290,Experiment_English,3.2.4,Win32,60,,,1,0,340,269,1,339,ratio41_8_10_6.png,,,,,,,,,,,,
,,,,,,,,,,,,None,More than half,Most,Half,Few,Many,Some,Less than half,All,0.478155277,-0.24499632,1,0,0,QQQ3,,,,,,,,English,2020-07-02_10h59.49.290,Experiment_English,3.2.4,Win32,60,,,1,0,340,238,1,339,ratio32_12_20_9.png,,,,,,,,,,,,
,,,,,,,,,,,,All,Few,None,Some,Many,Most,More than half,Half,Less than half,0.564330111,0.013528522,1,0,0,QQQ2,,,,,,,,English,2020-07-02_10h59.49.290,Experiment_English,3.2.4,Win32,60,,,1,0,340,121,1,339,ratio15_1_6_4.png,,,,,,,,,,,,
,,,,,,,,,,,,All,None,More than half,Some,Many,Few,Most,Half,Less than half,-0.036114684,-0.297813223,1,0,0,QQQ6,,,,,,,,English,2020-07-02_10h59.49.290,Experiment_English,3.2.4,Win32,60,,,1,0,340,149,1,339,ratio19_1_10_20.png,,,,,,,,,,,,
,,,,,,,,,,,,Few,Less than half,Some,None,All,Half,More than half,Most,Many,-0.511466814,0.005189011,1,0,0,QQQ8,,,,,,,,English,2020-07-02_10h59.49.290,Experiment_English,3.2.4,Win32,60,,,1,0,340,334,1,339,ratio91_18_20_9.png,,,,,,,,,,,,
,,,,,,,,,,,,More than half,Few,Some,Half,All,Most,Less than half,Many,None,0.031528017,-0.274647972,1,0,0,QQQ6,,,,,,,,English,2020-07-02_10h59.49.290,Experiment_English,3.2.4,Win32,60,,,1,0,340,173,1,339,ratio21_8_12_9.png,,,,,,,,,,,,
,,,,,,,,,,,,Most,All,None,Half,Less than half,Many,More than half,Few,Some,0.451283406,0.055226049,1,0,0,QQQ2,,,,,,,,English,2020-07-02_10h59.49.290,Experiment_English,3.2.4,Win32,60,,,1,0,340,44,1,339,ratioX0_7_7_5.png,,,,,,,,,,,,
,,,,,,,,,,,,Some,None,More than half,Less than half,Few,All,Half,Most,Many,-0.06483961,-0.001297275,1,0,0,QQQ5,,,,,,,,English,2020-07-02_10h59.49.290,Experiment_English,3.2.4,Win32,60,,,1,0,340,109,1,339,ratio14_2_10_9.png,,,,,,,,,,,,
,,,,,,,,,,,,Many,Some,None,Few,More than half,Less than half,Most,All,Half,-0.489228118,0.311897695,1,0,0,QQQ7,,,,,,,,English,2020-07-02_10h59.49.290,Experiment_English,3.2.4,Win32,60,,,1,0,340,313,1,339,ratio51_15_18_2.png,,,,,,,,,,,,
,,,,,,,,,,,,Many,None,All,Most,Some,Few,Half,Less than half,More than half,-0.397493496,-0.321905201,1,0,0,QQQ9,,,,,,,,English,2020-07-02_10h59.49.290,Experiment_English,3.2.4,Win32,60,,,1,0,340,160,1,339,ratio21_2_3_2.png,,,,,,,,,,,,
,,,,,,,,,,,,Most,More than half,Less than half,Few,All,Half,Many,Some,None,0.012069158,0.310971083,1,0,0,QQQ4,,,,,,,,English,2020-07-02_10h59.49.290,Experiment_English,3.2.4,Win32,60,,,1,0,340,305,1,339,ratio51_5_6_14.png,,,,,,,,,,,,
,,,,,,,,,,,,All,More than half,Many,Less than half,Few,None,Some,Most,Half,0.497614023,-0.054114178,1,0,0,QQQ2,,,,,,,,English,2020-07-02_10h59.49.290,Experiment_English,3.2.4,Win32,60,,,1,0,340,286,1,339,ratio43_4_7_15.png,,,,,,,,,,,,
,,,,,,,,,,,,Less than half,Some,None,Few,All,Most,More than half,Many,Half,0.541164803,0.004262399,1,0,0,QQQ2,,,,,,,,English,2020-07-02_10h59.49.290,Experiment_English,3.2.4,Win32,60,,,1,0,340,337,1,339,ratio91_18_20_16.png,,,,,,,,,,,,
,,,,,,,,,,,,Half,Some,Few,All,Many,More than half,Most,Less than half,None,0.494834186,-0.371942267,1,0,0,QQQ3,,,,,,,,English,2020-07-02_10h59.49.290,Experiment_English,3.2.4,Win32,60,,,1,0,340,13,1,339,ratio12_5_15_3.png,,,,,,,,,,,,
,,,,,,,,,,,,Many,Most,Few,All,Less than half,None,Half,Some,More than half,-0.520732937,-0.318198695,1,0,0,QQQ9,,,,,,,,English,2020-07-02_10h59.49.290,Experiment_English,3.2.4,Win32,60,,,1,0,340,294,1,339,ratio43_8_14_9.png,,,,,,,,,,,,
,,,,,,,,,,,,Half,Less than half,More than half,Few,None,All,Some,Many,Most,-0.071325953,0.021868033,1,0,0,QQQ5,,,,,,,,English,2020-07-02_10h59.49.290,Experiment_English,3.2.4,Win32,60,,,1,0,340,64,1,339,ratio0Y_0_7_1.png,,,,,,,,,,,,
,,,,,,,,,,,,More than half,Most,Many,Few,Less than half,All,Half,None,Some,0.013922382,0.263713854,1,0,0,QQQ4,,,,,,,,English,2020-07-02_10h59.49.290,Experiment_English,3.2.4,Win32,60,,,1,0,340,142,1,339,ratio19_1_10_6.png,,,,,,,,,,,,
,,,,,,,,,,,,More than half,None,All,Most,Some,Half,Less than half,Few,Many,0.076005409,0.32579688,1,0,0,QQQ4,,,,,,,,English,2020-07-02_10h59.49.290,Experiment_English,3.2.4,Win32,60,,,1,0,340,300,1,339,ratio51_5_6_1.png,,,,,,,,,,,,
,,,,,,,,,,,,None,Some,All,Half,Many,More than half,Most,Less than half,Few,0.388273767,-0.242216483,1,0,0,QQQ3,,,,,,,,English,2020-07-02_10h59.49.290,Experiment_English,3.2.4,Win32,60,,,1,0,340,46,1,339,ratioX0_9_9_3.png,,,,,,,,,,,,
,,,,,,,,,,,,Half,More than half,Few,Less than half,None,Some,Many,All,Most,0.517999494,-0.308932572,1,0,0,QQQ3,,,,,,,,English,2020-07-02_10h59.49.290,Experiment_English,3.2.4,Win32,60,,,1,0,340,126,1,339,ratio15_2_12_1.png,,,,,,,,,,,,
,,,,,,,,,,,,Many,More than half,All,Half,Some,Most,Few,Less than half,None,-0.416952355,0.264640452,1,0,0,QQQ7,,,,,,,,English,2020-07-02_10h59.49.290,Experiment_English,3.2.4,Win32,60,,,1,0,340,103,1,339,ratio14_1_5_9.png,,,,,,,,,,,,
,,,,,,,,,,,,Few,Most,All,More than half,Less than half,Half,None,Many,Some,0.4883479,0.009822073,1,0,0,QQQ2,,,,,,,,English,2020-07-02_10h59.49.290,Experiment_English,3.2.4,Win32,60,,,1,0,340,271,1,339,ratio41_12_15_6.png,,,,,,,,,,,,
,,,,,,,,,,,,All,None,Some,Few,Less than half,Many,Half,Most,More than half,0.377154419,0.247034832,1,0,0,QQQ1,,,,,,,,English,2020-07-02_10h59.49.290,Experiment_English,3.2.4,Win32,60,,,1,0,340,47,1,339,ratioX0_9_9_4.png,,,,,,,,,,,,
,,,,,,,,,,,,More than half,Some,Few,All,Most,Many,None,Less than half,Half,-0.498494241,-0.347850346,1,0,0,QQQ9,,,,,,,,English,2020-07-02_10h59.49.290,Experiment_English,3.2.4,Win32,60,,,1,0,340,243,1,339,ratio34_3_7_8.png,,,,,,,,,,,,
,,,,,,,,,,,,Many,None,Some,Few,Less than half,More than half,Half,All,Most,-0.414172518,-0.2885471,1,0,0,QQQ9,,,,,,,,English,2020-07-02_10h59.49.290,Experiment_English,3.2.4,Win32,60,,,1,0,340,279,1,339,ratio41_16_20_10.png,,,,,,,,,,,,
,,,,,,,,,,,,All,Some,None,Half,Less than half,More than half,Few,Most,Many,-0.508686977,0.011675298,1,0,0,QQQ8,,,,,,,,English,2020-07-02_10h59.49.290,Experiment_English,3.2.4,Win32,60,,,1,0,340,171,1,339,ratio21_8_12_4.png,,,,,,,,,,,,
,,,,,,,,,,,,Few,Many,None,All,Less than half,More than half,Half,Most,Some,-0.4975676,0.004262399,1,0,0,QQQ8,,,,,,,,English,2020-07-02_10h59.49.290,Experiment_English,3.2.4,Win32,60,,,1,0,340,163,1,339,ratio21_4_6_1.png,,,,,,,,,,,,
,,,,,,,,,,,,Few,More than half,Half,Some,Less than half,Most,None,All,Many,0.029674792,-0.341364003,1,0,0,QQQ6,,,,,,,,English,2020-07-02_10h59.49.290,Experiment_English,3.2.4,Win32,60,,,1,0,340,214,1,339,ratio31_12_16_5.png,,,,,,,,,,,,
