continue_mouse.x,continue_mouse.y,continue_mouse.leftButton,continue_mouse.midButton,continue_mouse.rightButton,continue_mouse.clicked_name,continue_mouse_2.x,continue_mouse_2.y,continue_mouse_2.leftButton,continue_mouse_2.midButton,continue_mouse_2.rightButton,continue_mouse_2.clicked_name,Q1,Q2,Q3,Q4,Q5,Q6,Q7,Q8,Q9,select_answer.x,select_answer.y,select_answer.leftButton,select_answer.midButton,select_answer.rightButton,select_answer.clicked_name,trial.thisRepN,trial.thisTrialN,trial.thisN,trial.thisIndex,trial.ran,trial.order,trials,Native tongue*,date,expName,psychopyVersion,OS,frameRate,key_resp.keys,key_resp.rt,Actual_Experiment.thisRepN,Actual_Experiment.thisTrialN,Actual_Experiment.thisN,Actual_Experiment.thisIndex,Actual_Experiment.ran,Actual_Experiment.order,Pic,mouse_pause.x,mouse_pause.y,mouse_pause.leftButton,mouse_pause.midButton,mouse_pause.rightButton,mouse_pause.clicked_name,pause.thisRepN,pause.thisTrialN,pause.thisN,pause.thisIndex,pause.ran,pause.order
0.355976562,-0.451631944,1,0,0,continue_button,0.329613715,-0.440850694,1,0,0,continue_button_2,All,Some,More than half,None,Half,Less than half,Few,Most,Many,-0.455581597,-0.319908854,1,0,0,QQQ9,1,0,16,7,1,15,ratio23_2_5_8.png,English,2020-07-02_11h03.49.109,Experiment_English,3.2.4,MacIntel,60,,,,,,,,,,,,,,,,,,,,,
,,,,,,,,,,,,Some,All,None,Most,More than half,Half,Less than half,Many,Few,0.432803819,0.300681424,1,0,0,QQQ1,1,0,16,6,1,15,ratio31_12_16_7.png,English,2020-07-02_11h03.49.109,Experiment_English,3.2.4,MacIntel,60,,,,,,,,,,,,,,,,,,,,,
,,,,,,,,,,,,None,Less than half,More than half,Many,Some,Half,Few,All,Most,-0.082526042,0.256796875,1,0,0,QQQ4,1,0,16,12,1,15,ratio13_3_12_3.png,English,2020-07-02_11h03.49.109,Experiment_English,3.2.4,MacIntel,60,,,,,,,,,,,,,,,,,,,,,
,,,,,,,,,,,,All,Few,More than half,Less than half,Many,Most,Some,Half,None,0.390568576,-0.276102431,1,0,0,QQQ3,1,0,16,2,1,15,ratio43_8_14_19.png,English,2020-07-02_11h03.49.109,Experiment_English,3.2.4,MacIntel,60,,,,,,,,,,,,,,,,,,,,,
,,,,,,,,,,,,More than half,Half,Less than half,Some,All,None,Few,Many,Most,-0.424275174,-0.069722222,1,0,0,QQQ8,1,0,16,11,1,15,ratio14_1_5_7.png,English,2020-07-02_11h03.49.109,Experiment_English,3.2.4,MacIntel,60,,,,,,,,,,,,,,,,,,,,,
,,,,,,,,,,,,Some,Less than half,Few,More than half,Most,All,Many,Half,None,0.534479167,-0.273654514,1,0,0,QQQ3,,,,,,,,English,2020-07-02_11h03.49.109,Experiment_English,3.2.4,MacIntel,60,b,13.8499999,1,0,340,184,1,339,ratio23_2_5_10.png,,,,,,,,,,,,
,,,,,,,,,,,,None,Some,More than half,Less than half,Half,Many,Most,All,Few,-0.497170139,-0.266857639,1,0,0,QQQ9,,,,,,,,English,2020-07-02_11h03.49.109,Experiment_English,3.2.4,MacIntel,60,,,1,0,340,112,1,339,ratio14_3_15_4.png,,,,,,,,,,,,
,,,,,,,,,,,,None,Some,More than half,Few,Less than half,All,Many,Most,Half,-0.543845486,0.322261285,1,0,0,QQQ7,,,,,,,,English,2020-07-02_11h03.49.109,Experiment_English,3.2.4,MacIntel,60,,,1,0,340,210,1,339,ratio31_9_12_9.png,,,,,,,,,,,,
,,,,,,,,,,,,Most,More than half,None,Some,Few,All,Less than half,Many,Half,0.47421875,-0.278654514,1,0,0,QQQ3,,,,,,,,English,2020-07-02_11h03.49.109,Experiment_English,3.2.4,MacIntel,60,,,1,0,340,71,1,339,ratio0Y_0_12_10.png,,,,,,,,,,,,
,,,,,,,,,,,,Half,All,More than half,Many,Few,Less than half,Most,None,Some,0.067087674,-0.058203125,1,0,0,QQQ5,,,,,,,,English,2020-07-02_11h03.49.109,Experiment_English,3.2.4,MacIntel,60,,,1,0,340,180,1,339,ratio23_2_5_4.png,,,,,,,,,,,,
,,,,,,,,,,,,Half,Some,Most,Many,Less than half,More than half,None,All,Few,-0.415490451,-0.351085069,1,0,0,QQQ9,,,,,,,,English,2020-07-02_11h03.49.109,Experiment_English,3.2.4,MacIntel,60,,,1,0,340,93,1,339,ratio13_4_16_7.png,,,,,,,,,,,,
,,,,,,,,,,,,Some,Less than half,Most,Many,More than half,None,All,Few,Half,-0.455273437,-0.092382812,1,0,0,QQQ8,,,,,,,,English,2020-07-02_11h03.49.109,Experiment_English,3.2.4,MacIntel,60,,,1,0,340,158,1,339,ratio19_2_20_17.png,,,,,,,,,,,,
,,,,,,,,,,,,More than half,Most,Half,Many,Some,Less than half,All,None,Few,0.51312934,-0.042556424,1,0,0,QQQ2,,,,,,,,English,2020-07-02_11h03.49.109,Experiment_English,3.2.4,MacIntel,60,,,1,0,340,280,1,339,ratio43_4_7_2.png,,,,,,,,,,,,
,,,,,,,,,,,,More than half,All,Few,Some,Many,None,Most,Less than half,Half,-0.505828993,0.303185764,1,0,0,QQQ7,,,,,,,,English,2020-07-02_11h03.49.109,Experiment_English,3.2.4,MacIntel,60,,,1,0,340,274,1,339,ratio41_12_15_9.png,,,,,,,,,,,,
,,,,,,,,,,,,Few,None,Less than half,Some,More than half,Most,All,Many,Half,0.440021701,-0.258185764,1,0,0,QQQ3,,,,,,,,English,2020-07-02_11h03.49.109,Experiment_English,3.2.4,MacIntel,60,,,1,0,340,110,1,339,ratio14_3_15_2.png,,,,,,,,,,,,
,,,,,,,,,,,,Many,Half,Few,None,Some,More than half,All,Most,Less than half,0.490802951,-0.302799479,1,0,0,QQQ3,,,,,,,,English,2020-07-02_11h03.49.109,Experiment_English,3.2.4,MacIntel,60,,,1,0,340,144,1,339,ratio19_1_10_11.png,,,,,,,,,,,,
,,,,,,,,,,,,Some,Most,Less than half,None,Half,Many,More than half,Few,All,0.026610243,0.364986979,1,0,0,QQQ4,,,,,,,,English,2020-07-02_11h03.49.109,Experiment_English,3.2.4,MacIntel,60,,,1,0,340,62,1,339,ratio0Y_0_5_4.png,,,,,,,,,,,,
,,,,,,,,,,,,More than half,Most,Half,Many,Less than half,All,None,Some,Few,-0.468498264,-0.284088542,1,0,0,QQQ9,,,,,,,,English,2020-07-02_11h03.49.109,Experiment_English,3.2.4,MacIntel,60,,,1,0,340,146,1,339,ratio19_1_10_17.png,,,,,,,,,,,,
,,,,,,,,,,,,More than half,Half,Many,Some,Few,All,None,Most,Less than half,0.023077257,0.251202257,1,0,0,QQQ4,,,,,,,,English,2020-07-02_11h03.49.109,Experiment_English,3.2.4,MacIntel,60,,,1,0,340,90,1,339,ratio13_3_12_7.png,,,,,,,,,,,,
,,,,,,,,,,,,Some,None,Less than half,More than half,Few,Many,Most,All,Half,0.025590278,0.220121528,1,0,0,QQQ4,,,,,,,,English,2020-07-02_11h03.49.109,Experiment_English,3.2.4,MacIntel,60,,,1,0,340,284,1,339,ratio43_4_7_11.png,,,,,,,,,,,,
,,,,,,,,,,,,Less than half,Some,None,Half,Many,Few,All,Most,More than half,0.41640625,-0.003923611,1,0,0,QQQ2,,,,,,,,English,2020-07-02_11h03.49.109,Experiment_English,3.2.4,MacIntel,60,,,1,0,340,258,1,339,ratio34_6_14_14.png,,,,,,,,,,,,
,,,,,,,,,,,,Most,Some,All,Few,Half,Less than half,More than half,Many,None,-0.074739583,0.255186632,1,0,0,QQQ4,,,,,,,,English,2020-07-02_11h03.49.109,Experiment_English,3.2.4,MacIntel,60,,,1,0,340,6,1,339,ratio12_3_9_1.png,,,,,,,,,,,,
,,,,,,,,,,,,Less than half,More than half,Few,Some,All,Half,Most,None,Many,-0.470572917,0.318546007,1,0,0,QQQ7,,,,,,,,English,2020-07-02_11h03.49.109,Experiment_English,3.2.4,MacIntel,60,,,1,0,340,217,1,339,ratio31_15_20_5.png,,,,,,,,,,,,
,,,,,,,,,,,,Many,None,Most,Half,Few,Some,All,Less than half,More than half,-0.08765191,-0.004327257,1,0,0,QQQ5,,,,,,,,English,2020-07-02_11h03.49.109,Experiment_English,3.2.4,MacIntel,60,,,1,0,340,103,1,339,ratio14_1_5_9.png,,,,,,,,,,,,
,,,,,,,,,,,,All,None,Less than half,Few,Many,Half,Most,Some,More than half,-0.453177083,-0.31687934,1,0,0,QQQ9,,,,,,,,English,2020-07-02_11h03.49.109,Experiment_English,3.2.4,MacIntel,60,,,1,0,340,325,1,339,ratio91_9_10_8.png,,,,,,,,,,,,
,,,,,,,,,,,,Less than half,Half,Few,None,More than half,Some,Many,All,Most,-0.466362847,-0.301610243,1,0,0,QQQ9,,,,,,,,English,2020-07-02_11h03.49.109,Experiment_English,3.2.4,MacIntel,60,,,1,0,340,164,1,339,ratio21_4_6_6.png,,,,,,,,,,,,
,,,,,,,,,,,,None,Less than half,Many,More than half,Some,All,Most,Few,Half,-0.035143229,0.009257813,1,0,0,QQQ5,,,,,,,,English,2020-07-02_11h03.49.109,Experiment_English,3.2.4,MacIntel,60,,,1,0,340,39,1,339,ratio11_10_20_6.png,,,,,,,,,,,,
,,,,,,,,,,,,Many,Half,Less than half,Few,All,None,More than half,Most,Some,-0.455299479,0.042682292,1,0,0,QQQ8,,,,,,,,English,2020-07-02_11h03.49.109,Experiment_English,3.2.4,MacIntel,60,,,1,0,340,288,1,339,ratio43_4_7_18.png,,,,,,,,,,,,
,,,,,,,,,,,,Most,Some,Half,None,More than half,Many,All,Few,Less than half,0.493020833,0.32609809,1,0,0,QQQ1,,,,,,,,English,2020-07-02_11h03.49.109,Experiment_English,3.2.4,MacIntel,60,,,1,0,340,271,1,339,ratio41_12_15_6.png,,,,,,,,,,,,
,,,,,,,,,,,,All,Few,Most,More than half,Some,Many,None,Less than half,Half,0.510247396,0.049197049,1,0,0,QQQ2,,,,,,,,English,2020-07-02_11h03.49.109,Experiment_English,3.2.4,MacIntel,60,,,1,0,340,242,1,339,ratio34_3_7_6.png,,,,,,,,,,,,
,,,,,,,,,,,,Many,Most,More than half,Less than half,Some,None,Half,All,Few,0.477478299,-0.04453125,1,0,0,QQQ2,,,,,,,,English,2020-07-02_11h03.49.109,Experiment_English,3.2.4,MacIntel,60,,,1,0,340,160,1,339,ratio21_2_3_2.png,,,,,,,,,,,,
,,,,,,,,,,,,Half,Few,All,None,Many,Most,More than half,Less than half,Some,-0.527048611,-0.332018229,1,0,0,QQQ9,,,,,,,,English,2020-07-02_11h03.49.109,Experiment_English,3.2.4,MacIntel,60,,,1,0,340,29,1,339,ratio11_6_12_1.png,,,,,,,,,,,,
,,,,,,,,,,,,Most,Many,Half,All,Few,Some,None,Less than half,More than half,0.005633681,-0.338068576,1,0,0,QQQ6,,,,,,,,English,2020-07-02_11h03.49.109,Experiment_English,3.2.4,MacIntel,60,,,1,0,340,189,1,339,ratio23_4_10_8.png,,,,,,,,,,,,
,,,,,,,,,,,,None,Some,Many,Half,Most,More than half,Few,All,Less than half,0.033237847,0.025416667,1,0,0,QQQ5,,,,,,,,English,2020-07-02_11h03.49.109,Experiment_English,3.2.4,MacIntel,60,,,1,0,340,306,1,339,ratio51_5_6_18.png,,,,,,,,,,,,
,,,,,,,,,,,,Some,Less than half,All,Few,Half,Most,Many,More than half,None,-0.072157118,-0.261445313,1,0,0,QQQ6,,,,,,,,English,2020-07-02_11h03.49.109,Experiment_English,3.2.4,MacIntel,60,,,1,0,340,333,1,339,ratio91_18_20_6.png,,,,,,,,,,,,
,,,,,,,,,,,,Half,Less than half,Some,Few,Many,None,Most,All,More than half,0.489704861,-0.248289931,1,0,0,QQQ3,,,,,,,,English,2020-07-02_11h03.49.109,Experiment_English,3.2.4,MacIntel,60,,,1,0,340,231,1,339,ratio32_9_15_2.png,,,,,,,,,,,,
,,,,,,,,,,,,Most,All,Few,Many,Some,Half,Less than half,More than half,None,-0.498146701,-0.302248264,1,0,0,QQQ9,,,,,,,,English,2020-07-02_11h03.49.109,Experiment_English,3.2.4,MacIntel,60,,,1,0,340,60,1,339,ratio0Y_0_3_5.png,,,,,,,,,,,,
,,,,,,,,,,,,None,Many,Less than half,Most,Half,More than half,Some,All,Few,-0.020199653,0.242530382,1,0,0,QQQ4,,,,,,,,English,2020-07-02_11h03.49.109,Experiment_English,3.2.4,MacIntel,60,,,1,0,340,320,1,339,ratio91_9_10_1.png,,,,,,,,,,,,
,,,,,,,,,,,,All,Many,Less than half,Some,Few,Half,Most,More than half,None,-0.055833333,0.257083333,1,0,0,QQQ4,,,,,,,,English,2020-07-02_11h03.49.109,Experiment_English,3.2.4,MacIntel,60,,,1,0,340,31,1,339,ratio11_6_12_9.png,0.377764757,-0.436922743,1,0,0,continue_button_pause,1,0,1,0,1,0
,,,,,,,,,,,,,,,,,,,,,,,,,,,,,,,,,,English,2020-07-02_11h03.49.109,Experiment_English,3.2.4,MacIntel,60,,,1,0,340,31,1,339,ratio11_6_12_9.png,,,,,,,,,,,,
,,,,,,,,,,,,Few,Most,Less than half,None,Some,All,Half,Many,More than half,0.364184028,-0.067122396,1,0,0,QQQ2,,,,,,,,English,2020-07-02_11h03.49.109,Experiment_English,3.2.4,MacIntel,60,,,1,0,340,202,1,339,ratio31_3_4_8.png,,,,,,,,,,,,
,,,,,,,,,,,,More than half,Most,Some,All,Many,Less than half,Half,Few,None,-0.55749566,0.01890191,1,0,0,QQQ8,,,,,,,,English,2020-07-02_11h03.49.109,Experiment_English,3.2.4,MacIntel,60,,,1,0,340,137,1,339,ratio15_3_18_16.png,,,,,,,,,,,,
,,,,,,,,,,,,All,None,Few,Many,Half,Some,Most,More than half,Less than half,-0.548168403,0.345099826,1,0,0,QQQ7,,,,,,,,English,2020-07-02_11h03.49.109,Experiment_English,3.2.4,MacIntel,60,,,1,0,340,268,1,339,ratio41_8_10_5.png,,,,,,,,,,,,
,,,,,,,,,,,,More than half,Some,None,Most,Half,Many,Few,All,Less than half,-0.43312066,0.308637153,1,0,0,QQQ7,,,,,,,,English,2020-07-02_11h03.49.109,Experiment_English,3.2.4,MacIntel,60,,,1,0,340,183,1,339,ratio23_2_5_9.png,,,,,,,,,,,,
,,,,,,,,,,,,Some,More than half,Half,All,Few,Most,Many,None,Less than half,-0.526158854,0.280221354,1,0,0,QQQ7,,,,,,,,English,2020-07-02_11h03.49.109,Experiment_English,3.2.4,MacIntel,60,,,1,0,340,283,1,339,ratio43_4_7_8.png,,,,,,,,,,,,
,,,,,,,,,,,,Few,Many,Half,More than half,All,Most,Some,None,Less than half,0.51046441,0.219257813,1,0,0,QQQ1,,,,,,,,English,2020-07-02_11h03.49.109,Experiment_English,3.2.4,MacIntel,60,,,1,0,340,89,1,339,ratio13_3_12_6.png,,,,,,,,,,,,
,,,,,,,,,,,,Less than half,Half,Most,None,Many,More than half,All,Few,Some,0.442204861,-0.314934896,1,0,0,QQQ3,,,,,,,,English,2020-07-02_11h03.49.109,Experiment_English,3.2.4,MacIntel,60,,,1,0,340,260,1,339,ratio41_4_5_2.png,,,,,,,,,,,,
,,,,,,,,,,,,Some,All,Most,Few,Many,None,Half,Less than half,More than half,0.538229167,-0.012899306,1,0,0,QQQ2,,,,,,,,English,2020-07-02_11h03.49.109,Experiment_English,3.2.4,MacIntel,60,,,1,0,340,59,1,339,ratioX0_20_20_9.png,,,,,,,,,,,,
,,,,,,,,,,,,Less than half,More than half,Many,Some,Half,All,Most,Few,None,-0.439071181,0.252478299,1,0,0,QQQ7,,,,,,,,English,2020-07-02_11h03.49.109,Experiment_English,3.2.4,MacIntel,60,,,1,0,340,314,1,339,ratio51_15_18_4.png,,,,,,,,,,,,
,,,,,,,,,,,,More than half,All,Many,Few,Less than half,Half,None,Some,Most,0.426440972,-0.00766059,1,0,0,QQQ2,,,,,,,,English,2020-07-02_11h03.49.109,Experiment_English,3.2.4,MacIntel,60,,,1,0,340,52,1,339,ratioX0_13_13_10.png,,,,,,,,,,,,
,,,,,,,,,,,,Less than half,None,Few,Many,Half,Most,Some,More than half,All,0.451766493,0.283125,1,0,0,QQQ1,,,,,,,,English,2020-07-02_11h03.49.109,Experiment_English,3.2.4,MacIntel,60,,,1,0,340,241,1,339,ratio34_3_7_5.png,,,,,,,,,,,,
,,,,,,,,,,,,Most,More than half,Less than half,Few,Some,Half,All,Many,None,0.100360243,0.047061632,1,0,0,QQQ5,,,,,,,,English,2020-07-02_11h03.49.109,Experiment_English,3.2.4,MacIntel,60,,,1,0,340,200,1,339,ratio31_3_4_4.png,,,,,,,,,,,,
,,,,,,,,,,,,All,Less than half,Few,Some,Many,More than half,Half,None,Most,0.031636285,-0.360659722,1,0,0,QQQ6,,,,,,,,English,2020-07-02_11h03.49.109,Experiment_English,3.2.4,MacIntel,60,,,1,0,340,287,1,339,ratio43_4_7_17.png,,,,,,,,,,,,
,,,,,,,,,,,,Some,Less than half,None,All,Most,More than half,Few,Many,Half,-0.460282118,0.229444444,1,0,0,QQQ7,,,,,,,,English,2020-07-02_11h03.49.109,Experiment_English,3.2.4,MacIntel,60,,,1,0,340,240,1,339,ratio34_3_7_4.png,,,,,,,,,,,,
,,,,,,,,,,,,Less than half,Many,All,More than half,None,Most,Few,Half,Some,0.394331597,0.000542535,1,0,0,QQQ2,,,,,,,,English,2020-07-02_11h03.49.109,Experiment_English,3.2.4,MacIntel,60,,,1,0,340,308,1,339,ratio51_10_12_9.png,,,,,,,,,,,,
,,,,,,,,,,,,None,Few,Most,Half,More than half,All,Some,Less than half,Many,0.394331597,0.000542535,1,0,0,QQQ2,,,,,,,,English,2020-07-02_11h03.49.109,Experiment_English,3.2.4,MacIntel,60,,,1,0,340,171,1,339,ratio21_8_12_4.png,,,,,,,,,,,,
,,,,,,,,,,,,None,Most,Some,Less than half,Half,All,More than half,Few,Many,-0.456644965,0.283524306,1,0,0,QQQ7,,,,,,,,English,2020-07-02_11h03.49.109,Experiment_English,3.2.4,MacIntel,60,,,1,0,340,95,1,339,ratio13_4_16_10.png,,,,,,,,,,,,
,,,,,,,,,,,,Many,Some,Less than half,Most,More than half,None,Half,Few,All,0.013637153,-0.316306424,1,0,0,QQQ6,,,,,,,,English,2020-07-02_11h03.49.109,Experiment_English,3.2.4,MacIntel,60,,,1,0,340,78,1,339,ratio0Y_0_19_1.png,,,,,,,,,,,,
,,,,,,,,,,,,Few,Some,All,Most,Many,None,Half,More than half,Less than half,0.481167535,0.321792535,1,0,0,QQQ1,,,,,,,,English,2020-07-02_11h03.49.109,Experiment_English,3.2.4,MacIntel,60,,,1,0,340,134,1,339,ratio15_3_18_5.png,,,,,,,,,,,,
,,,,,,,,,,,,Some,Half,Many,More than half,Most,Few,Less than half,None,All,-0.400520833,-0.017981771,1,0,0,QQQ8,,,,,,,,English,2020-07-02_11h03.49.109,Experiment_English,3.2.4,MacIntel,60,,,1,0,340,74,1,339,ratio0Y_0_15_10.png,,,,,,,,,,,,
,,,,,,,,,,,,Less than half,All,Many,None,Some,More than half,Few,Most,Half,-0.400520833,-0.017981771,1,0,0,QQQ8,,,,,,,,English,2020-07-02_11h03.49.109,Experiment_English,3.2.4,MacIntel,60,,,1,0,340,224,1,339,ratio32_3_5_10.png,,,,,,,,,,,,
,,,,,,,,,,,,Half,Less than half,None,Some,More than half,Most,Few,Many,All,-0.060998264,0.292591146,1,0,0,QQQ4,,,,,,,,English,2020-07-02_11h03.49.109,Experiment_English,3.2.4,MacIntel,60,,,1,0,340,253,1,339,ratio34_6_14_5.png,,,,,,,,,,,,
,,,,,,,,,,,,Some,Many,All,Less than half,Few,More than half,Half,Most,None,-0.028832465,-0.039778646,1,0,0,QQQ5,,,,,,,,English,2020-07-02_11h03.49.109,Experiment_English,3.2.4,MacIntel,60,,,1,0,340,94,1,339,ratio13_4_16_8.png,,,,,,,,,,,,
,,,,,,,,,,,,Less than half,Some,Half,All,Many,More than half,Few,None,Most,0.503424479,-0.008246528,1,0,0,QQQ2,,,,,,,,English,2020-07-02_11h03.49.109,Experiment_English,3.2.4,MacIntel,60,,,1,0,340,282,1,339,ratio43_4_7_7.png,,,,,,,,,,,,
,,,,,,,,,,,,Most,Many,All,Half,Few,Some,None,Less than half,More than half,0.037599826,-0.025577257,1,0,0,QQQ5,,,,,,,,English,2020-07-02_11h03.49.109,Experiment_English,3.2.4,MacIntel,60,,,1,0,340,152,1,339,ratio19_2_20_6.png,,,,,,,,,,,,
,,,,,,,,,,,,More than half,All,Few,Some,Less than half,Half,Many,None,Most,0.508342014,-0.381085069,1,0,0,QQQ3,,,,,,,,English,2020-07-02_11h03.49.109,Experiment_English,3.2.4,MacIntel,60,,,1,0,340,2,1,339,ratio12_1_3_10.png,,,,,,,,,,,,
,,,,,,,,,,,,Most,Less than half,More than half,Half,Many,None,All,Some,Few,-0.387955729,-0.291740451,1,0,0,QQQ9,,,,,,,,English,2020-07-02_11h03.49.109,Experiment_English,3.2.4,MacIntel,60,,,1,0,340,131,1,339,ratio15_2_12_14.png,,,,,,,,,,,,
,,,,,,,,,,,,Half,Less than half,Most,More than half,Some,All,Many,Few,None,-0.112782118,0.002465278,1,0,0,QQQ5,,,,,,,,English,2020-07-02_11h03.49.109,Experiment_English,3.2.4,MacIntel,60,,,1,0,340,187,1,339,ratio23_4_10_5.png,,,,,,,,,,,,
,,,,,,,,,,,,Many,Most,Half,Less than half,More than half,None,Some,Few,All,0.490638021,-0.014283854,1,0,0,QQQ2,,,,,,,,English,2020-07-02_11h03.49.109,Experiment_English,3.2.4,MacIntel,60,,,1,0,340,172,1,339,ratio21_8_12_6.png,,,,,,,,,,,,
,,,,,,,,,,,,More than half,Most,Half,Less than half,Few,Many,All,None,Some,0.010282118,-0.007899306,1,0,0,QQQ5,,,,,,,,English,2020-07-02_11h03.49.109,Experiment_English,3.2.4,MacIntel,60,,,1,0,340,113,1,339,ratio14_3_15_8.png,,,,,,,,,,,,
,,,,,,,,,,,,Half,Many,Most,Less than half,Few,All,Some,More than half,None,0.449157986,-0.013810764,1,0,0,QQQ2,,,,,,,,English,2020-07-02_11h03.49.109,Experiment_English,3.2.4,MacIntel,60,,,1,0,340,250,1,339,ratio34_6_14_1.png,,,,,,,,,,,,
,,,,,,,,,,,,Some,All,Most,None,Half,Less than half,Many,More than half,Few,0.105086806,-0.318038194,1,0,0,QQQ6,,,,,,,,English,2020-07-02_11h03.49.109,Experiment_English,3.2.4,MacIntel,60,,,1,0,340,92,1,339,ratio13_4_16_3.png,,,,,,,,,,,,
,,,,,,,,,,,,None,More than half,Less than half,All,Half,Few,Many,Most,Some,-0.15905816,-0.308146701,1,0,0,QQQ6,,,,,,,,English,2020-07-02_11h03.49.109,Experiment_English,3.2.4,MacIntel,60,,,1,0,340,121,1,339,ratio15_1_6_4.png,,,,,,,,,,,,
,,,,,,,,,,,,More than half,Many,Most,Few,Some,All,None,Half,Less than half,0.115646701,0.285481771,1,0,0,QQQ4,,,,,,,,English,2020-07-02_11h03.49.109,Experiment_English,3.2.4,MacIntel,60,,,1,0,340,140,1,339,ratio19_1_10_1.png,0.29953125,-0.389496528,1,0,0,continue_button_pause,1,0,1,0,1,0
,,,,,,,,,,,,,,,,,,,,,,,,,,,,,,,,,,English,2020-07-02_11h03.49.109,Experiment_English,3.2.4,MacIntel,60,,,1,0,340,140,1,339,ratio19_1_10_1.png,,,,,,,,,,,,
,,,,,,,,,,,,None,More than half,All,Most,Few,Some,Many,Less than half,Half,0.100251736,-0.035108507,1,0,0,QQQ5,,,,,,,,English,2020-07-02_11h03.49.109,Experiment_English,3.2.4,MacIntel,60,,,1,0,340,133,1,339,ratio15_3_18_3.png,,,,,,,,,,,,
,,,,,,,,,,,,Many,Less than half,More than half,None,Half,All,Most,Few,Some,-0.503828125,0.205277778,1,0,0,QQQ7,,,,,,,,English,2020-07-02_11h03.49.109,Experiment_English,3.2.4,MacIntel,60,,,1,0,340,328,1,339,ratio91_9_10_15.png,,,,,,,,,,,,
,,,,,,,,,,,,Some,Many,Less than half,Half,All,None,Few,Most,More than half,-0.401996528,0.346080729,1,0,0,QQQ7,,,,,,,,English,2020-07-02_11h03.49.109,Experiment_English,3.2.4,MacIntel,60,,,1,0,340,85,1,339,ratio13_2_8_5.png,,,,,,,,,,,,
,,,,,,,,,,,,More than half,Half,Few,Some,Less than half,None,Most,Many,All,-0.403203125,0.333142361,1,0,0,QQQ7,,,,,,,,English,2020-07-02_11h03.49.109,Experiment_English,3.2.4,MacIntel,60,,,1,0,340,327,1,339,ratio91_9_10_11.png,,,,,,,,,,,,
,,,,,,,,,,,,Some,Most,Many,Half,More than half,Few,Less than half,All,None,0.513793403,-0.050868056,1,0,0,QQQ2,,,,,,,,English,2020-07-02_11h03.49.109,Experiment_English,3.2.4,MacIntel,60,,,1,0,340,161,1,339,ratio21_2_3_8.png,,,,,,,,,,,,
,,,,,,,,,,,,Most,Few,Some,Many,Less than half,More than half,All,None,Half,0.473958333,0.006888021,1,0,0,QQQ2,,,,,,,,English,2020-07-02_11h03.49.109,Experiment_English,3.2.4,MacIntel,60,,,1,0,340,135,1,339,ratio15_3_18_7.png,,,,,,,,,,,,
,,,,,,,,,,,,Half,Many,Less than half,More than half,Few,None,Some,Most,All,-0.381085069,0.245993924,1,0,0,QQQ7,,,,,,,,English,2020-07-02_11h03.49.109,Experiment_English,3.2.4,MacIntel,60,,,1,0,340,17,1,339,ratio12_6_18_5.png,,,,,,,,,,,,
,,,,,,,,,,,,Most,Less than half,Half,Many,All,Few,More than half,None,Some,-0.449900174,-0.287756076,1,0,0,QQQ9,,,,,,,,English,2020-07-02_11h03.49.109,Experiment_English,3.2.4,MacIntel,60,,,1,0,340,243,1,339,ratio34_3_7_8.png,,,,,,,,,,,,
,,,,,,,,,,,,More than half,Less than half,Some,All,Few,None,Many,Half,Most,0.500551215,-0.331037326,1,0,0,QQQ3,,,,,,,,English,2020-07-02_11h03.49.109,Experiment_English,3.2.4,MacIntel,60,,,1,0,340,227,1,339,ratio32_6_10_6.png,,,,,,,,,,,,
,,,,,,,,,,,,Half,Few,Some,Less than half,Many,None,Most,All,More than half,-0.468185764,-0.333355035,1,0,0,QQQ9,,,,,,,,English,2020-07-02_11h03.49.109,Experiment_English,3.2.4,MacIntel,60,,,1,0,340,293,1,339,ratio43_8_14_7.png,,,,,,,,,,,,
,,,,,,,,,,,,Few,Less than half,Most,Many,None,All,Half,Some,More than half,-0.030737847,0.025859375,1,0,0,QQQ5,,,,,,,,English,2020-07-02_11h03.49.109,Experiment_English,3.2.4,MacIntel,60,,,1,0,340,64,1,339,ratio0Y_0_7_1.png,,,,,,,,,,,,
,,,,,,,,,,,,All,None,Many,Most,More than half,Half,Some,Less than half,Few,-0.030737847,0.025859375,1,0,0,QQQ5,,,,,,,,English,2020-07-02_11h03.49.109,Experiment_English,3.2.4,MacIntel,60,,,1,0,340,317,1,339,ratio51_15_18_13.png,,,,,,,,,,,,
,,,,,,,,,,,,Half,Some,Less than half,More than half,Many,Most,None,Few,All,0.040989583,-0.282586806,1,0,0,QQQ6,,,,,,,,English,2020-07-02_11h03.49.109,Experiment_English,3.2.4,MacIntel,60,,,1,0,340,336,1,339,ratio91_18_20_12.png,,,,,,,,,,,,
,,,,,,,,,,,,Many,All,Less than half,Some,Half,More than half,Most,Few,None,-0.394197049,-0.282994792,1,0,0,QQQ9,,,,,,,,English,2020-07-02_11h03.49.109,Experiment_English,3.2.4,MacIntel,60,,,1,0,340,79,1,339,ratio0Y_0_20_4.png,,,,,,,,,,,,
,,,,,,,,,,,,Few,More than half,All,Many,None,Some,Less than half,Half,Most,-0.092999132,-0.301909722,1,0,0,QQQ6,,,,,,,,English,2020-07-02_11h03.49.109,Experiment_English,3.2.4,MacIntel,60,,,1,0,340,330,1,339,ratio91_18_20_2.png,,,,,,,,,,,,
,,,,,,,,,,,,Few,Many,Most,None,Some,More than half,All,Less than half,Half,0.394986979,-0.309631076,1,0,0,QQQ3,,,,,,,,English,2020-07-02_11h03.49.109,Experiment_English,3.2.4,MacIntel,60,,,1,0,340,321,1,339,ratio91_9_10_2.png,,,,,,,,,,,,
,,,,,,,,,,,,Some,All,None,Many,Less than half,Half,Few,Most,More than half,-0.432929687,0.276979167,1,0,0,QQQ7,,,,,,,,English,2020-07-02_11h03.49.109,Experiment_English,3.2.4,MacIntel,60,,,1,0,340,86,1,339,ratio13_2_8_6.png,,,,,,,,,,,,
,,,,,,,,,,,,Half,Few,More than half,All,Most,Many,Some,Less than half,None,0.159071181,-0.322118056,1,0,0,QQQ6,,,,,,,,English,2020-07-02_11h03.49.109,Experiment_English,3.2.4,MacIntel,60,,,1,0,340,37,1,339,ratio11_9_18_8.png,,,,,,,,,,,,
,,,,,,,,,,,,Some,More than half,Few,Half,None,All,Less than half,Most,Many,0.411050347,-0.338845486,1,0,0,QQQ3,,,,,,,,English,2020-07-02_11h03.49.109,Experiment_English,3.2.4,MacIntel,60,,,1,0,340,0,1,339,ratio12_1_3_3.png,,,,,,,,,,,,
,,,,,,,,,,,,Most,Less than half,Some,More than half,All,Many,None,Half,Few,0.07047309,0.274592014,1,0,0,QQQ4,,,,,,,,English,2020-07-02_11h03.49.109,Experiment_English,3.2.4,MacIntel,60,,,1,0,340,292,1,339,ratio43_8_14_6.png,,,,,,,,,,,,
,,,,,,,,,,,,All,More than half,Many,None,Less than half,Some,Most,Few,Half,-0.029327257,0.013858507,1,0,0,QQQ5,,,,,,,,English,2020-07-02_11h03.49.109,Experiment_English,3.2.4,MacIntel,60,,,1,0,340,14,1,339,ratio12_5_15_4.png,,,,,,,,,,,,
,,,,,,,,,,,,Half,Less than half,Some,Many,Most,Few,More than half,None,All,0.015525174,-0.317126736,1,0,0,QQQ6,,,,,,,,English,2020-07-02_11h03.49.109,Experiment_English,3.2.4,MacIntel,60,,,1,0,340,100,1,339,ratio14_1_5_3.png,,,,,,,,,,,,
,,,,,,,,,,,,Less than half,None,Most,More than half,Half,Few,Many,Some,All,-0.026054687,0.001896701,1,0,0,QQQ5,,,,,,,,English,2020-07-02_11h03.49.109,Experiment_English,3.2.4,MacIntel,60,,,1,0,340,290,1,339,ratio43_8_14_3.png,,,,,,,,,,,,
,,,,,,,,,,,,Some,Few,Less than half,More than half,Most,All,Half,None,Many,0.034253472,-0.279049479,1,0,0,QQQ6,,,,,,,,English,2020-07-02_11h03.49.109,Experiment_English,3.2.4,MacIntel,60,,,1,0,340,55,1,339,ratioX0_16_16_3.png,,,,,,,,,,,,
,,,,,,,,,,,,All,None,Less than half,Most,More than half,Many,Few,Some,Half,0.027456597,-0.249509549,1,0,0,QQQ6,,,,,,,,English,2020-07-02_11h03.49.109,Experiment_English,3.2.4,MacIntel,60,,,1,0,340,235,1,339,ratio32_12_20_1.png,,,,,,,,,,,,
,,,,,,,,,,,,Half,None,Most,Less than half,All,Many,More than half,Some,Few,-0.377426215,-0.010394965,1,0,0,QQQ8,,,,,,,,English,2020-07-02_11h03.49.109,Experiment_English,3.2.4,MacIntel,60,,,1,0,340,185,1,339,ratio23_4_10_1.png,,,,,,,,,,,,
,,,,,,,,,,,,Less than half,None,More than half,All,Many,Most,Half,Few,Some,-0.066640625,0.012947049,1,0,0,QQQ5,,,,,,,,English,2020-07-02_11h03.49.109,Experiment_English,3.2.4,MacIntel,60,,,1,0,340,169,1,339,ratio21_6_9_7.png,,,,,,,,,,,,
,,,,,,,,,,,,Few,Some,Less than half,Most,Many,All,More than half,None,Half,0.371983507,-0.016675347,1,0,0,QQQ2,,,,,,,,English,2020-07-02_11h03.49.109,Experiment_English,3.2.4,MacIntel,60,,,1,0,340,27,1,339,ratio11_5_10_7.png,,,,,,,,,,,,
,,,,,,,,,,,,Some,Less than half,None,Few,More than half,All,Many,Most,Half,0.001757813,-0.31187066,1,0,0,QQQ6,,,,,,,,English,2020-07-02_11h03.49.109,Experiment_English,3.2.4,MacIntel,60,,,1,0,340,58,1,339,ratioX0_19_19_4.png,,,,,,,,,,,,
,,,,,,,,,,,,None,Half,Some,Few,All,Many,Most,More than half,Less than half,-0.501228299,-0.301631944,1,0,0,QQQ9,,,,,,,,English,2020-07-02_11h03.49.109,Experiment_English,3.2.4,MacIntel,60,,,1,0,340,115,1,339,ratio14_4_20_1.png,,,,,,,,,,,,
,,,,,,,,,,,,More than half,Less than half,Some,Half,All,None,Most,Few,Many,-0.507951389,0.014752604,1,0,0,QQQ8,,,,,,,,English,2020-07-02_11h03.49.109,Experiment_English,3.2.4,MacIntel,60,,,1,0,340,101,1,339,ratio14_1_5_7.png,,,,,,,,,,,,
,,,,,,,,,,,,Half,Few,None,More than half,Less than half,Many,Most,All,Some,-0.478302951,-0.338142361,1,0,0,QQQ9,,,,,,,,English,2020-07-02_11h03.49.109,Experiment_English,3.2.4,MacIntel,60,,,1,0,340,28,1,339,ratio11_5_10_9.png,,,,,,,,,,,,
,,,,,,,,,,,,None,Many,Few,More than half,Some,Most,Less than half,All,Half,-0.032777778,0.256054687,1,0,0,QQQ4,,,,,,,,English,2020-07-02_11h03.49.109,Experiment_English,3.2.4,MacIntel,60,,,1,0,340,226,1,339,ratio32_6_10_5.png,,,,,,,,,,,,
,,,,,,,,,,,,Less than half,Some,Few,Most,None,Half,All,Many,More than half,-0.48344184,-0.05234375,1,0,0,QQQ8,,,,,,,,English,2020-07-02_11h03.49.109,Experiment_English,3.2.4,MacIntel,60,,,1,0,340,291,1,339,ratio43_8_14_5.png,0.292070312,-0.403585069,1,0,0,continue_button_pause,1,0,1,0,1,0
,,,,,,,,,,,,,,,,,,,,,,,,,,,,,,,,,,English,2020-07-02_11h03.49.109,Experiment_English,3.2.4,MacIntel,60,,,1,0,340,291,1,339,ratio43_8_14_5.png,,,,,,,,,,,,
,,,,,,,,,,,,Less than half,Few,Some,None,Half,All,More than half,Most,Many,-0.448003472,0.045690104,1,0,0,QQQ8,,,,,,,,English,2020-07-02_11h03.49.109,Experiment_English,3.2.4,MacIntel,60,,,1,0,340,326,1,339,ratio91_9_10_10.png,,,,,,,,,,,,
,,,,,,,,,,,,Less than half,Half,Many,All,None,Few,Most,Some,More than half,-0.46453559,-0.012048611,1,0,0,QQQ8,,,,,,,,English,2020-07-02_11h03.49.109,Experiment_English,3.2.4,MacIntel,60,,,1,0,340,239,1,339,ratio32_12_20_10.png,,,,,,,,,,,,
,,,,,,,,,,,,Half,All,More than half,Some,Less than half,Many,Most,None,Few,-0.453797743,0.292447917,1,0,0,QQQ7,,,,,,,,English,2020-07-02_11h03.49.109,Experiment_English,3.2.4,MacIntel,60,,,1,0,340,337,1,339,ratio91_18_20_16.png,,,,,,,,,,,,
,,,,,,,,,,,,Some,None,Few,Less than half,All,Many,More than half,Half,Most,-0.003897569,-0.324887153,1,0,0,QQQ6,,,,,,,,English,2020-07-02_11h03.49.109,Experiment_English,3.2.4,MacIntel,60,,,1,0,340,298,1,339,ratio43_8_14_14.png,,,,,,,,,,,,
,,,,,,,,,,,,Few,Half,More than half,Some,All,Many,None,Most,Less than half,0.459427083,-0.280516493,1,0,0,QQQ3,,,,,,,,English,2020-07-02_11h03.49.109,Experiment_English,3.2.4,MacIntel,60,,,1,0,340,222,1,339,ratio32_3_5_4.png,,,,,,,,,,,,
,,,,,,,,,,,,More than half,Most,All,None,Many,Some,Few,Half,Less than half,0.10374566,0.010290799,1,0,0,QQQ5,,,,,,,,English,2020-07-02_11h03.49.109,Experiment_English,3.2.4,MacIntel,60,,,1,0,340,30,1,339,ratio11_6_12_6.png,,,,,,,,,,,,
,,,,,,,,,,,,Few,Some,More than half,All,None,Many,Less than half,Half,Most,3.03819E-05,-0.055325521,1,0,0,QQQ5,,,,,,,,English,2020-07-02_11h03.49.109,Experiment_English,3.2.4,MacIntel,60,,,1,0,340,69,1,339,ratio0Y_0_11_6.png,,,,,,,,,,,,
,,,,,,,,,,,,All,Some,More than half,Half,Many,Less than half,None,Few,Most,-0.467803819,0.006128472,1,0,0,QQQ8,,,,,,,,English,2020-07-02_11h03.49.109,Experiment_English,3.2.4,MacIntel,60,,,1,0,340,5,1,339,ratio12_2_6_9.png,,,,,,,,,,,,
,,,,,,,,,,,,Most,Few,Many,None,Half,Less than half,More than half,All,Some,0.464605035,-0.044822049,1,0,0,QQQ2,,,,,,,,English,2020-07-02_11h03.49.109,Experiment_English,3.2.4,MacIntel,60,,,1,0,340,124,1,339,ratio15_1_6_16.png,,,,,,,,,,,,
,,,,,,,,,,,,None,Many,All,More than half,Half,Most,Less than half,Few,Some,-0.390329861,-0.056736111,1,0,0,QQQ8,,,,,,,,English,2020-07-02_11h03.49.109,Experiment_English,3.2.4,MacIntel,60,,,1,0,340,97,1,339,ratio13_5_20_2.png,,,,,,,,,,,,
,,,,,,,,,,,,Some,Half,Most,Less than half,All,None,Few,Many,More than half,-0.362929687,0.2453125,1,0,0,QQQ7,,,,,,,,English,2020-07-02_11h03.49.109,Experiment_English,3.2.4,MacIntel,60,,,1,0,340,123,1,339,ratio15_1_6_12.png,,,,,,,,,,,,
,,,,,,,,,,,,Many,Half,Less than half,More than half,Most,None,All,Some,Few,-0.07922309,0.081310764,1,0,0,QQQ5,,,,,,,,English,2020-07-02_11h03.49.109,Experiment_English,3.2.4,MacIntel,60,,,1,0,340,335,1,339,ratio91_18_20_11.png,,,,,,,,,,,,
,,,,,,,,,,,,Less than half,Half,Some,Few,Most,More than half,All,Many,None,-0.073945312,0.050208333,1,0,0,QQQ5,,,,,,,,English,2020-07-02_11h03.49.109,Experiment_English,3.2.4,MacIntel,60,,,1,0,340,228,1,339,ratio32_6_10_7.png,,,,,,,,,,,,
,,,,,,,,,,,,All,Most,Many,Half,Less than half,None,More than half,Some,Few,-0.449882813,0.028615451,1,0,0,QQQ8,,,,,,,,English,2020-07-02_11h03.49.109,Experiment_English,3.2.4,MacIntel,60,,,1,0,340,163,1,339,ratio21_4_6_1.png,,,,,,,,,,,,
,,,,,,,,,,,,Most,Few,Many,Some,More than half,Less than half,All,None,Half,-0.030559896,-0.039435764,1,0,0,QQQ5,,,,,,,,English,2020-07-02_11h03.49.109,Experiment_English,3.2.4,MacIntel,60,,,1,0,340,22,1,339,ratio11_3_6_6.png,,,,,,,,,,,,
,,,,,,,,,,,,Less than half,Half,Few,Some,More than half,None,Many,Most,All,0.369822049,0.373519965,1,0,0,QQQ1,,,,,,,,English,2020-07-02_11h03.49.109,Experiment_English,3.2.4,MacIntel,60,,,1,0,340,8,1,339,ratio12_3_9_4.png,,,,,,,,,,,,
,,,,,,,,,,,,Most,More than half,Few,Half,Some,Many,None,Less than half,All,-0.012447917,0.001575521,1,0,0,QQQ5,,,,,,,,English,2020-07-02_11h03.49.109,Experiment_English,3.2.4,MacIntel,60,,,1,0,340,304,1,339,ratio51_5_6_13.png,,,,,,,,,,,,
,,,,,,,,,,,,Many,Some,Less than half,Few,Most,Half,All,None,More than half,-0.453988715,-0.282426215,1,0,0,QQQ9,,,,,,,,English,2020-07-02_11h03.49.109,Experiment_English,3.2.4,MacIntel,60,,,1,0,340,323,1,339,ratio91_9_10_5.png,,,,,,,,,,,,
,,,,,,,,,,,,Few,Many,Some,Most,More than half,None,All,Half,Less than half,0.390117188,0.327986111,1,0,0,QQQ1,,,,,,,,English,2020-07-02_11h03.49.109,Experiment_English,3.2.4,MacIntel,60,,,1,0,340,83,1,339,ratio13_1_4_10.png,,,,,,,,,,,,
,,,,,,,,,,,,Less than half,Some,More than half,Few,Most,All,None,Half,Many,0.010911458,0.234947917,1,0,0,QQQ4,,,,,,,,English,2020-07-02_11h03.49.109,Experiment_English,3.2.4,MacIntel,60,,,1,0,340,136,1,339,ratio15_3_18_8.png,,,,,,,,,,,,
,,,,,,,,,,,,All,Many,More than half,Some,Few,Less than half,None,Most,Half,-0.01328125,-0.296067708,1,0,0,QQQ6,,,,,,,,English,2020-07-02_11h03.49.109,Experiment_English,3.2.4,MacIntel,60,,,1,0,340,249,1,339,ratio34_3_7_20.png,,,,,,,,,,,,
,,,,,,,,,,,,More than half,Less than half,Half,Many,All,Few,Most,Some,None,0.057248264,-0.328684896,1,0,0,QQQ6,,,,,,,,English,2020-07-02_11h03.49.109,Experiment_English,3.2.4,MacIntel,60,,,1,0,340,151,1,339,ratio19_2_20_4.png,,,,,,,,,,,,
,,,,,,,,,,,,More than half,Some,All,Half,None,Less than half,Few,Most,Many,-0.393758681,0.240616319,1,0,0,QQQ7,,,,,,,,English,2020-07-02_11h03.49.109,Experiment_English,3.2.4,MacIntel,60,,,1,0,340,87,1,339,ratio13_2_8_8.png,,,,,,,,,,,,
,,,,,,,,,,,,Some,Half,Most,Many,Few,All,None,Less than half,More than half,0.555594618,0.315625,1,0,0,QQQ1,,,,,,,,English,2020-07-02_11h03.49.109,Experiment_English,3.2.4,MacIntel,60,,,1,0,340,190,1,339,ratio23_6_15_3.png,,,,,,,,,,,,
,,,,,,,,,,,,Most,None,Less than half,More than half,All,Many,Some,Half,Few,-0.428585069,-0.260707465,1,0,0,QQQ9,,,,,,,,English,2020-07-02_11h03.49.109,Experiment_English,3.2.4,MacIntel,60,,,1,0,340,127,1,339,ratio15_2_12_2.png,,,,,,,,,,,,
,,,,,,,,,,,,Less than half,Few,None,Some,All,Half,More than half,Many,Most,-0.485746528,-0.016206597,1,0,0,QQQ8,,,,,,,,English,2020-07-02_11h03.49.109,Experiment_English,3.2.4,MacIntel,60,,,1,0,340,166,1,339,ratio21_6_9_1.png,,,,,,,,,,,,
,,,,,,,,,,,,All,More than half,Few,Half,Some,Most,Many,None,Less than half,0.401319444,-0.25921441,1,0,0,QQQ3,,,,,,,,English,2020-07-02_11h03.49.109,Experiment_English,3.2.4,MacIntel,60,,,1,0,340,182,1,339,ratio23_2_5_7.png,,,,,,,,,,,,
,,,,,,,,,,,,All,Some,Many,Less than half,Most,None,Few,More than half,Half,0.457057292,-0.045082465,1,0,0,QQQ2,,,,,,,,English,2020-07-02_11h03.49.109,Experiment_English,3.2.4,MacIntel,60,,,1,0,340,199,1,339,ratio23_8_20_8.png,,,,,,,,,,,,
,,,,,,,,,,,,Few,Some,More than half,Many,Less than half,Half,None,Most,All,-0.557686632,-0.021844618,1,0,0,QQQ8,,,,,,,,English,2020-07-02_11h03.49.109,Experiment_English,3.2.4,MacIntel,60,,,1,0,340,273,1,339,ratio41_12_15_8.png,,,,,,,,,,,,
,,,,,,,,,,,,Half,Some,More than half,Few,None,Less than half,Many,Most,All,-0.511992187,-0.29391059,1,0,0,QQQ9,,,,,,,,English,2020-07-02_11h03.49.109,Experiment_English,3.2.4,MacIntel,60,,,1,0,340,57,1,339,ratioX0_18_18_1.png,,,,,,,,,,,,
,,,,,,,,,,,,Some,Few,Many,All,Less than half,Half,None,More than half,Most,0.414921875,0.29797309,1,0,0,QQQ1,,,,,,,,English,2020-07-02_11h03.49.109,Experiment_English,3.2.4,MacIntel,60,,,1,0,340,23,1,339,ratio11_3_6_9.png,,,,,,,,,,,,
,,,,,,,,,,,,Most,Some,All,Few,More than half,Less than half,None,Many,Half,0.050690104,0.243016493,1,0,0,QQQ4,,,,,,,,English,2020-07-02_11h03.49.109,Experiment_English,3.2.4,MacIntel,60,,,1,0,340,104,1,339,ratio14_1_5_10.png,,,,,,,,,,,,
,,,,,,,,,,,,None,All,More than half,Many,Few,Half,Less than half,Some,Most,0.08594184,0.301831597,1,0,0,QQQ4,,,,,,,,English,2020-07-02_11h03.49.109,Experiment_English,3.2.4,MacIntel,60,,,1,0,340,33,1,339,ratio11_7_14_8.png,,,,,,,,,,,,
,,,,,,,,,,,,Most,Many,None,More than half,Half,Few,All,Some,Less than half,0.121610243,0.283220486,1,0,0,QQQ4,,,,,,,,English,2020-07-02_11h03.49.109,Experiment_English,3.2.4,MacIntel,60,,,1,0,340,167,1,339,ratio21_6_9_2.png,0.312586806,-0.415221354,1,0,0,continue_button_pause,1,0,1,0,1,0
,,,,,,,,,,,,,,,,,,,,,,,,,,,,,,,,,,English,2020-07-02_11h03.49.109,Experiment_English,3.2.4,MacIntel,60,,,1,0,340,167,1,339,ratio21_6_9_2.png,,,,,,,,,,,,
,,,,,,,,,,,,More than half,Less than half,All,Half,Few,Some,Most,Many,None,0.069088542,-0.072131076,1,0,0,QQQ5,,,,,,,,English,2020-07-02_11h03.49.109,Experiment_English,3.2.4,MacIntel,60,,,1,0,340,132,1,339,ratio15_2_12_16.png,,,,,,,,,,,,
,,,,,,,,,,,,Most,Half,Few,Many,None,Some,Less than half,More than half,All,0.47375434,-0.286154514,1,0,0,QQQ3,,,,,,,,English,2020-07-02_11h03.49.109,Experiment_English,3.2.4,MacIntel,60,,,1,0,340,145,1,339,ratio19_1_10_15.png,,,,,,,,,,,,
,,,,,,,,,,,,Some,Many,None,Less than half,Most,More than half,Half,All,Few,0.025416667,0.056072049,1,0,0,QQQ5,,,,,,,,English,2020-07-02_11h03.49.109,Experiment_English,3.2.4,MacIntel,60,,,1,0,340,286,1,339,ratio43_4_7_15.png,,,,,,,,,,,,
,,,,,,,,,,,,More than half,Less than half,All,Few,None,Most,Half,Some,Many,0.496419271,-0.298094618,1,0,0,QQQ3,,,,,,,,English,2020-07-02_11h03.49.109,Experiment_English,3.2.4,MacIntel,60,,,1,0,340,54,1,339,ratioX0_15_15_5.png,,,,,,,,,,,,
,,,,,,,,,,,,Most,Some,None,Half,Many,More than half,All,Less than half,Few,-0.512907986,-0.313576389,1,0,0,QQQ9,,,,,,,,English,2020-07-02_11h03.49.109,Experiment_English,3.2.4,MacIntel,60,,,1,0,340,107,1,339,ratio14_2_10_5.png,,,,,,,,,,,,
,,,,,,,,,,,,None,Less than half,Most,Few,Many,More than half,All,Half,Some,-0.072517361,0.275503472,1,0,0,QQQ4,,,,,,,,English,2020-07-02_11h03.49.109,Experiment_English,3.2.4,MacIntel,60,,,1,0,340,118,1,339,ratio14_4_20_8.png,,,,,,,,,,,,
,,,,,,,,,,,,Some,None,Few,Less than half,More than half,All,Half,Many,Most,0.413229167,-0.275716146,1,0,0,QQQ3,,,,,,,,English,2020-07-02_11h03.49.109,Experiment_English,3.2.4,MacIntel,60,,,1,0,340,80,1,339,ratio13_1_4_3.png,,,,,,,,,,,,
,,,,,,,,,,,,Less than half,More than half,Half,Some,None,Few,Most,Many,All,-0.455355903,0.279166667,1,0,0,QQQ7,,,,,,,,English,2020-07-02_11h03.49.109,Experiment_English,3.2.4,MacIntel,60,,,1,0,340,339,1,339,ratio91_18_20_19.png,,,,,,,,,,,,
,,,,,,,,,,,,All,More than half,Many,Few,None,Half,Some,Less than half,Most,-0.029678819,0.253923611,1,0,0,QQQ4,,,,,,,,English,2020-07-02_11h03.49.109,Experiment_English,3.2.4,MacIntel,60,,,1,0,340,154,1,339,ratio19_2_20_11.png,,,,,,,,,,,,
,,,,,,,,,,,,Many,Most,Less than half,Some,None,Few,More than half,All,Half,0.453337674,-0.046184896,1,0,0,QQQ2,,,,,,,,English,2020-07-02_11h03.49.109,Experiment_English,3.2.4,MacIntel,60,,,1,0,340,265,1,339,ratio41_8_10_1.png,,,,,,,,,,,,
,,,,,,,,,,,,More than half,Some,Less than half,All,Most,Half,None,Few,Many,0.05140191,-0.067595486,1,0,0,QQQ5,,,,,,,,English,2020-07-02_11h03.49.109,Experiment_English,3.2.4,MacIntel,60,,,1,0,340,208,1,339,ratio31_9_12_3.png,,,,,,,,,,,,
,,,,,,,,,,,,Many,More than half,Few,Some,Half,All,Most,Less than half,None,-0.378042535,0.255190972,1,0,0,QQQ7,,,,,,,,English,2020-07-02_11h03.49.109,Experiment_English,3.2.4,MacIntel,60,,,1,0,340,319,1,339,ratio51_15_18_20.png,,,,,,,,,,,,
,,,,,,,,,,,,Many,None,All,Less than half,Most,Half,More than half,Some,Few,-0.428802083,0.228576389,1,0,0,QQQ7,,,,,,,,English,2020-07-02_11h03.49.109,Experiment_English,3.2.4,MacIntel,60,,,1,0,340,179,1,339,ratio21_12_18_8.png,,,,,,,,,,,,
,,,,,,,,,,,,Most,Less than half,Some,None,Half,Many,All,More than half,Few,0.396614583,0.305421007,1,0,0,QQQ1,,,,,,,,English,2020-07-02_11h03.49.109,Experiment_English,3.2.4,MacIntel,60,,,1,0,340,264,1,339,ratio41_4_5_6.png,,,,,,,,,,,,
,,,,,,,,,,,,More than half,Some,All,Half,Many,Most,Few,None,Less than half,-0.414101563,0.218094618,1,0,0,QQQ7,,,,,,,,English,2020-07-02_11h03.49.109,Experiment_English,3.2.4,MacIntel,60,,,1,0,340,116,1,339,ratio14_4_20_3.png,,,,,,,,,,,,
,,,,,,,,,,,,Some,All,Many,None,Half,Less than half,Few,Most,More than half,0.36172309,0.055837674,1,0,0,QQQ2,,,,,,,,English,2020-07-02_11h03.49.109,Experiment_English,3.2.4,MacIntel,60,,,1,0,340,45,1,339,ratioX0_8_8_3.png,,,,,,,,,,,,
,,,,,,,,,,,,None,Half,Many,More than half,Less than half,Few,All,Some,Most,-0.464440104,-0.328667535,1,0,0,QQQ9,,,,,,,,English,2020-07-02_11h03.49.109,Experiment_English,3.2.4,MacIntel,60,,,1,0,340,275,1,339,ratio41_16_20_2.png,,,,,,,,,,,,
,,,,,,,,,,,,Few,None,Many,More than half,Most,Some,Half,Less than half,All,0.055108507,0.052990451,1,0,0,QQQ5,,,,,,,,English,2020-07-02_11h03.49.109,Experiment_English,3.2.4,MacIntel,60,,,1,0,340,279,1,339,ratio41_16_20_10.png,,,,,,,,,,,,
,,,,,,,,,,,,Few,Less than half,Most,Many,Some,All,None,Half,More than half,0.038767361,0.315026042,1,0,0,QQQ4,,,,,,,,English,2020-07-02_11h03.49.109,Experiment_English,3.2.4,MacIntel,60,,,1,0,340,278,1,339,ratio41_16_20_9.png,,,,,,,,,,,,
,,,,,,,,,,,,Some,Most,Many,None,Few,Half,More than half,All,Less than half,0.038767361,0.315026042,1,0,0,QQQ4,,,,,,,,English,2020-07-02_11h03.49.109,Experiment_English,3.2.4,MacIntel,60,,,1,0,340,61,1,339,ratio0Y_0_4_7.png,,,,,,,,,,,,
,,,,,,,,,,,,Most,Few,Many,None,Less than half,All,Some,More than half,Half,0.0571875,-0.318463542,1,0,0,QQQ6,,,,,,,,English,2020-07-02_11h03.49.109,Experiment_English,3.2.4,MacIntel,60,,,1,0,340,43,1,339,ratioX0_6_6_9.png,,,,,,,,,,,,
,,,,,,,,,,,,All,Half,Some,Less than half,Many,None,Most,More than half,Few,-0.400429688,0.314743924,1,0,0,QQQ7,,,,,,,,English,2020-07-02_11h03.49.109,Experiment_English,3.2.4,MacIntel,60,,,1,0,340,267,1,339,ratio41_8_10_4.png,,,,,,,,,,,,
,,,,,,,,,,,,Many,Less than half,Some,More than half,None,Half,Most,All,Few,-0.400143229,0.312022569,1,0,0,QQQ7,,,,,,,,English,2020-07-02_11h03.49.109,Experiment_English,3.2.4,MacIntel,60,,,1,0,340,173,1,339,ratio21_8_12_9.png,,,,,,,,,,,,
,,,,,,,,,,,,Many,Some,Most,Few,Less than half,All,None,Half,More than half,-0.054956597,0.365555556,1,0,0,QQQ4,,,,,,,,English,2020-07-02_11h03.49.109,Experiment_English,3.2.4,MacIntel,60,,,1,0,340,155,1,339,ratio19_2_20_13.png,,,,,,,,,,,,
,,,,,,,,,,,,Half,Few,Many,More than half,Some,Less than half,All,None,Most,0.537821181,0.041002604,1,0,0,QQQ2,,,,,,,,English,2020-07-02_11h03.49.109,Experiment_English,3.2.4,MacIntel,60,,,1,0,340,147,1,339,ratio19_1_10_18.png,,,,,,,,,,,,
,,,,,,,,,,,,Some,More than half,Less than half,Many,Most,None,Half,All,Few,0.454123264,-0.233038194,1,0,0,QQQ3,,,,,,,,English,2020-07-02_11h03.49.109,Experiment_English,3.2.4,MacIntel,60,,,1,0,340,114,1,339,ratio14_3_15_10.png,,,,,,,,,,,,
,,,,,,,,,,,,Less than half,Many,Some,More than half,Half,Few,None,Most,All,-0.002408854,-0.270815972,1,0,0,QQQ6,,,,,,,,English,2020-07-02_11h03.49.109,Experiment_English,3.2.4,MacIntel,60,,,1,0,340,303,1,339,ratio51_5_6_6.png,,,,,,,,,,,,
,,,,,,,,,,,,None,Many,Less than half,Few,All,Half,Some,Most,More than half,-0.422864583,0.032352431,1,0,0,QQQ8,,,,,,,,English,2020-07-02_11h03.49.109,Experiment_English,3.2.4,MacIntel,60,,,1,0,340,312,1,339,ratio51_10_12_16.png,,,,,,,,,,,,
,,,,,,,,,,,,Most,Some,None,Half,Less than half,More than half,All,Few,Many,0.467868924,-0.289878472,1,0,0,QQQ3,,,,,,,,English,2020-07-02_11h03.49.109,Experiment_English,3.2.4,MacIntel,60,,,1,0,340,70,1,339,ratio0Y_0_12_5.png,,,,,,,,,,,,
,,,,,,,,,,,,Half,More than half,All,Less than half,Few,Some,Most,None,Many,-0.483854167,-0.002165799,1,0,0,QQQ8,,,,,,,,English,2020-07-02_11h03.49.109,Experiment_English,3.2.4,MacIntel,60,,,1,0,340,68,1,339,ratio0Y_0_11_3.png,,,,,,,,,,,,
,,,,,,,,,,,,Half,Most,Few,More than half,Less than half,None,Many,Some,All,0.469088542,-0.279440104,1,0,0,QQQ3,,,,,,,,English,2020-07-02_11h03.49.109,Experiment_English,3.2.4,MacIntel,60,,,1,0,340,149,1,339,ratio19_1_10_20.png,,,,,,,,,,,,
,,,,,,,,,,,,Half,Many,Some,All,Most,Few,None,More than half,Less than half,0.46515191,0.062278646,1,0,0,QQQ2,,,,,,,,English,2020-07-02_11h03.49.109,Experiment_English,3.2.4,MacIntel,60,,,1,0,340,232,1,339,ratio32_9_15_8.png,,,,,,,,,,,,
,,,,,,,,,,,,Some,Less than half,Most,More than half,Many,Few,Half,All,None,-0.036028646,-0.336905382,1,0,0,QQQ6,,,,,,,,English,2020-07-02_11h03.49.109,Experiment_English,3.2.4,MacIntel,60,,,1,0,340,18,1,339,ratio12_6_18_7.png,,,,,,,,,,,,
,,,,,,,,,,,,Few,More than half,All,Some,Most,Many,None,Half,Less than half,0.402999132,0.213767361,1,0,0,QQQ1,,,,,,,,English,2020-07-02_11h03.49.109,Experiment_English,3.2.4,MacIntel,60,,,1,0,340,156,1,339,ratio19_2_20_14.png,0.430881076,-0.394353299,1,0,0,continue_button_pause,1,0,1,0,1,0
,,,,,,,,,,,,,,,,,,,,,,,,,,,,,,,,,,English,2020-07-02_11h03.49.109,Experiment_English,3.2.4,MacIntel,60,,,1,0,340,156,1,339,ratio19_2_20_14.png,,,,,,,,,,,,
,,,,,,,,,,,,Half,None,More than half,Some,Less than half,Few,Most,All,Many,0.007825521,0.278164062,1,0,0,QQQ4,,,,,,,,English,2020-07-02_11h03.49.109,Experiment_English,3.2.4,MacIntel,60,,,1,0,340,9,1,339,ratio12_3_9_5.png,,,,,,,,,,,,
,,,,,,,,,,,,Many,Less than half,None,All,More than half,Most,Few,Half,Some,-0.050377604,-0.074075521,1,0,0,QQQ5,,,,,,,,English,2020-07-02_11h03.49.109,Experiment_English,3.2.4,MacIntel,60,,,1,0,340,234,1,339,ratio32_9_15_10.png,,,,,,,,,,,,
,,,,,,,,,,,,Half,More than half,Some,Most,All,Many,Few,None,Less than half,0.43297309,-0.317621528,1,0,0,QQQ3,,,,,,,,English,2020-07-02_11h03.49.109,Experiment_English,3.2.4,MacIntel,60,,,1,0,340,21,1,339,ratio11_2_4_10.png,,,,,,,,,,,,
,,,,,,,,,,,,Half,None,Many,Some,Less than half,All,More than half,Most,Few,-0.513684896,-0.262434896,1,0,0,QQQ9,,,,,,,,English,2020-07-02_11h03.49.109,Experiment_English,3.2.4,MacIntel,60,,,1,0,340,150,1,339,ratio19_2_20_1.png,,,,,,,,,,,,
,,,,,,,,,,,,Less than half,Most,Some,Half,All,Many,None,Few,More than half,-0.508372396,-0.042456597,1,0,0,QQQ8,,,,,,,,English,2020-07-02_11h03.49.109,Experiment_English,3.2.4,MacIntel,60,,,1,0,340,4,1,339,ratio12_2_6_5.png,,,,,,,,,,,,
,,,,,,,,,,,,Some,Half,More than half,None,Many,Most,Less than half,Few,All,-0.508372396,-0.042456597,1,0,0,QQQ8,,,,,,,,English,2020-07-02_11h03.49.109,Experiment_English,3.2.4,MacIntel,60,,,1,0,340,130,1,339,ratio15_2_12_12.png,,,,,,,,,,,,
,,,,,,,,,,,,Less than half,All,Half,Most,More than half,None,Some,Few,Many,0.423242187,-0.01421441,1,0,0,QQQ2,,,,,,,,English,2020-07-02_11h03.49.109,Experiment_English,3.2.4,MacIntel,60,,,1,0,340,41,1,339,ratioX0_4_4_9.png,,,,,,,,,,,,
,,,,,,,,,,,,Many,Most,Few,None,More than half,Some,All,Less than half,Half,-0.103051215,-0.263697917,1,0,0,QQQ6,,,,,,,,English,2020-07-02_11h03.49.109,Experiment_English,3.2.4,MacIntel,60,,,1,0,340,194,1,339,ratio23_6_15_10.png,,,,,,,,,,,,
,,,,,,,,,,,,Some,Half,More than half,Less than half,Few,None,Many,All,Most,0.443919271,-0.349149306,1,0,0,QQQ3,,,,,,,,English,2020-07-02_11h03.49.109,Experiment_English,3.2.4,MacIntel,60,,,1,0,340,25,1,339,ratio11_4_8_10.png,,,,,,,,,,,,
,,,,,,,,,,,,Some,More than half,Less than half,Few,Many,None,All,Half,Most,0.491375868,0.24375434,1,0,0,QQQ1,,,,,,,,English,2020-07-02_11h03.49.109,Experiment_English,3.2.4,MacIntel,60,,,1,0,340,19,1,339,ratio12_6_18_9.png,,,,,,,,,,,,
,,,,,,,,,,,,More than half,None,Some,Less than half,All,Most,Many,Half,Few,0.453333333,0.281445312,1,0,0,QQQ1,,,,,,,,English,2020-07-02_11h03.49.109,Experiment_English,3.2.4,MacIntel,60,,,1,0,340,176,1,339,ratio21_10_15_3.png,,,,,,,,,,,,
,,,,,,,,,,,,Less than half,Most,Some,Many,None,Half,More than half,Few,All,-0.38016059,0.330802951,1,0,0,QQQ7,,,,,,,,English,2020-07-02_11h03.49.109,Experiment_English,3.2.4,MacIntel,60,,,1,0,340,299,1,339,ratio43_8_14_17.png,,,,,,,,,,,,
,,,,,,,,,,,,Most,All,Half,Few,Less than half,Many,None,More than half,Some,-0.361002604,-0.279075521,1,0,0,QQQ9,,,,,,,,English,2020-07-02_11h03.49.109,Experiment_English,3.2.4,MacIntel,60,,,1,0,340,47,1,339,ratioX0_9_9_4.png,,,,,,,,,,,,
,,,,,,,,,,,,Most,Half,Many,Some,Few,More than half,None,Less than half,All,0.458736979,0.33015625,1,0,0,QQQ1,,,,,,,,English,2020-07-02_11h03.49.109,Experiment_English,3.2.4,MacIntel,60,,,1,0,340,300,1,339,ratio51_5_6_1.png,,,,,,,,,,,,
,,,,,,,,,,,,Less than half,Many,Most,All,Few,More than half,None,Some,Half,-0.009309896,0.296462674,1,0,0,QQQ4,,,,,,,,English,2020-07-02_11h03.49.109,Experiment_English,3.2.4,MacIntel,60,,,1,0,340,53,1,339,ratioX0_14_14_8.png,,,,,,,,,,,,
,,,,,,,,,,,,Less than half,Few,Most,Half,Some,All,None,More than half,Many,0.526588542,-0.313233507,1,0,0,QQQ3,,,,,,,,English,2020-07-02_11h03.49.109,Experiment_English,3.2.4,MacIntel,60,,,1,0,340,276,1,339,ratio41_16_20_4.png,,,,,,,,,,,,
,,,,,,,,,,,,Some,Many,All,Less than half,Half,Few,More than half,Most,None,0.078342014,-0.327916667,1,0,0,QQQ6,,,,,,,,English,2020-07-02_11h03.49.109,Experiment_English,3.2.4,MacIntel,60,,,1,0,340,128,1,339,ratio15_2_12_8.png,,,,,,,,,,,,
,,,,,,,,,,,,Most,Some,Few,None,All,More than half,Less than half,Half,Many,-0.134483507,-0.25250434,1,0,0,QQQ6,,,,,,,,English,2020-07-02_11h03.49.109,Experiment_English,3.2.4,MacIntel,60,,,1,0,340,174,1,339,ratio21_10_15_1.png,,,,,,,,,,,,
,,,,,,,,,,,,Half,Many,All,Less than half,More than half,Few,Some,None,Most,0.036679688,-0.291835937,1,0,0,QQQ6,,,,,,,,English,2020-07-02_11h03.49.109,Experiment_English,3.2.4,MacIntel,60,,,1,0,340,84,1,339,ratio13_2_8_1.png,,,,,,,,,,,,
,,,,,,,,,,,,None,Most,Some,Half,Many,Less than half,Few,All,More than half,-0.419735243,0.201684028,1,0,0,QQQ7,,,,,,,,English,2020-07-02_11h03.49.109,Experiment_English,3.2.4,MacIntel,60,,,1,0,340,109,1,339,ratio14_2_10_9.png,,,,,,,,,,,,
,,,,,,,,,,,,All,Less than half,More than half,Half,Few,Most,Some,Many,None,0.05672309,-0.396067708,1,0,0,QQQ6,,,,,,,,English,2020-07-02_11h03.49.109,Experiment_English,3.2.4,MacIntel,60,,,1,0,340,324,1,339,ratio91_9_10_7.png,,,,,,,,,,,,
,,,,,,,,,,,,Half,Less than half,Few,Most,Some,More than half,All,Many,None,0.054327257,0.248263889,1,0,0,QQQ4,,,,,,,,English,2020-07-02_11h03.49.109,Experiment_English,3.2.4,MacIntel,60,,,1,0,340,229,1,339,ratio32_6_10_9.png,,,,,,,,,,,,
,,,,,,,,,,,,Many,None,Half,Few,All,Less than half,Most,More than half,Some,0.051657986,-0.305842014,1,0,0,QQQ6,,,,,,,,English,2020-07-02_11h03.49.109,Experiment_English,3.2.4,MacIntel,60,,,1,0,340,244,1,339,ratio34_3_7_9.png,,,,,,,,,,,,
,,,,,,,,,,,,Less than half,Many,Most,All,Some,None,More than half,Half,Few,-0.006892361,-0.040386285,1,0,0,QQQ5,,,,,,,,English,2020-07-02_11h03.49.109,Experiment_English,3.2.4,MacIntel,60,,,1,0,340,191,1,339,ratio23_6_15_7.png,,,,,,,,,,,,
,,,,,,,,,,,,Few,Half,Many,Less than half,None,More than half,Most,All,Some,0.020555556,-0.304118924,1,0,0,QQQ6,,,,,,,,English,2020-07-02_11h03.49.109,Experiment_English,3.2.4,MacIntel,60,,,1,0,340,203,1,339,ratio31_3_4_9.png,,,,,,,,,,,,
,,,,,,,,,,,,Many,All,Half,None,Most,Some,Few,More than half,Less than half,-0.463988715,-0.005959201,1,0,0,QQQ8,,,,,,,,English,2020-07-02_11h03.49.109,Experiment_English,3.2.4,MacIntel,60,,,1,0,340,281,1,339,ratio43_4_7_4.png,,,,,,,,,,,,
,,,,,,,,,,,,Some,Many,Few,Most,More than half,All,Less than half,None,Half,-0.498289931,0.35141059,1,0,0,QQQ7,,,,,,,,English,2020-07-02_11h03.49.109,Experiment_English,3.2.4,MacIntel,60,,,1,0,340,13,1,339,ratio12_5_15_3.png,,,,,,,,,,,,
,,,,,,,,,,,,More than half,Half,Less than half,Few,Some,Most,All,None,Many,0.123064236,-0.366141493,1,0,0,QQQ6,,,,,,,,English,2020-07-02_11h03.49.109,Experiment_English,3.2.4,MacIntel,60,,,1,0,340,213,1,339,ratio31_12_16_2.png,,,,,,,,,,,,
,,,,,,,,,,,,All,None,Most,Some,More than half,Half,Many,Less than half,Few,-0.055164931,0.229327257,1,0,0,QQQ4,,,,,,,,English,2020-07-02_11h03.49.109,Experiment_English,3.2.4,MacIntel,60,,,1,0,340,255,1,339,ratio34_6_14_10.png,,,,,,,,,,,,
,,,,,,,,,,,,More than half,Few,Some,Many,None,All,Half,Less than half,Most,0.453302951,-0.082743056,1,0,0,QQQ2,,,,,,,,English,2020-07-02_11h03.49.109,Experiment_English,3.2.4,MacIntel,60,,,1,0,340,108,1,339,ratio14_2_10_6.png,,,,,,,,,,,,
,,,,,,,,,,,,None,All,Few,Half,Many,More than half,Most,Some,Less than half,0.029856771,-0.015789931,1,0,0,QQQ5,,,,,,,,English,2020-07-02_11h03.49.109,Experiment_English,3.2.4,MacIntel,60,,,1,0,340,309,1,339,ratio51_10_12_10.png,,,,,,,,,,,,
,,,,,,,,,,,,None,More than half,Many,Less than half,Few,All,Some,Half,Most,0.030898438,-0.015789931,1,0,0,QQQ5,,,,,,,,English,2020-07-02_11h03.49.109,Experiment_English,3.2.4,MacIntel,60,,,1,0,340,141,1,339,ratio19_1_10_2.png,,,,,,,,,,,,
,,,,,,,,,,,,Half,Less than half,All,Most,More than half,Some,Few,None,Many,0.009288194,-0.310177951,1,0,0,QQQ6,,,,,,,,English,2020-07-02_11h03.49.109,Experiment_English,3.2.4,MacIntel,60,,,1,0,340,195,1,339,ratio23_8_20_1.png,,,,,,,,,,,,
,,,,,,,,,,,,All,Half,More than half,Many,Few,Some,Most,Less than half,None,0.009288194,-0.310177951,1,0,0,QQQ6,,,,,,,,English,2020-07-02_11h03.49.109,Experiment_English,3.2.4,MacIntel,60,,,1,0,340,256,1,339,ratio34_6_14_11.png,0.329483507,-0.393862847,1,0,0,continue_button_pause,1,0,1,0,1,0
,,,,,,,,,,,,,,,,,,,,,,,,,,,,,,,,,,English,2020-07-02_11h03.49.109,Experiment_English,3.2.4,MacIntel,60,,,1,0,340,256,1,339,ratio34_6_14_11.png,,,,,,,,,,,,
,,,,,,,,,,,,None,Less than half,All,Some,Half,Many,Few,More than half,Most,-0.433741319,0.222113715,1,0,0,QQQ7,,,,,,,,English,2020-07-02_11h03.49.109,Experiment_English,3.2.4,MacIntel,60,,,1,0,340,148,1,339,ratio19_1_10_19.png,,,,,,,,,,,,
,,,,,,,,,,,,More than half,Most,Many,Less than half,All,Few,Half,None,Some,-0.004010417,-0.266484375,1,0,0,QQQ6,,,,,,,,English,2020-07-02_11h03.49.109,Experiment_English,3.2.4,MacIntel,60,,,1,0,340,157,1,339,ratio19_2_20_16.png,,,,,,,,,,,,
,,,,,,,,,,,,Few,All,More than half,None,Half,Many,Some,Less than half,Most,0.487799479,0.303923611,1,0,0,QQQ1,,,,,,,,English,2020-07-02_11h03.49.109,Experiment_English,3.2.4,MacIntel,60,,,1,0,340,117,1,339,ratio14_4_20_6.png,,,,,,,,,,,,
,,,,,,,,,,,,Most,All,Some,More than half,None,Half,Less than half,Many,Few,0.582226563,0.035190972,1,0,0,QQQ2,,,,,,,,English,2020-07-02_11h03.49.109,Experiment_English,3.2.4,MacIntel,60,,,1,0,340,40,1,339,ratioX0_3_3_5.png,,,,,,,,,,,,
,,,,,,,,,,,,Some,More than half,None,Many,Less than half,Half,All,Few,Most,-0.496801215,-0.067907986,1,0,0,QQQ8,,,,,,,,English,2020-07-02_11h03.49.109,Experiment_English,3.2.4,MacIntel,60,,,1,0,340,98,1,339,ratio13_5_20_3.png,,,,,,,,,,,,
,,,,,,,,,,,,Half,Few,More than half,None,All,Some,Most,Less than half,Many,-0.018003472,-0.23046441,1,0,0,QQQ6,,,,,,,,English,2020-07-02_11h03.49.109,Experiment_English,3.2.4,MacIntel,60,,,1,0,340,26,1,339,ratio11_5_10_4.png,,,,,,,,,,,,
,,,,,,,,,,,,None,Some,All,Many,Most,Less than half,Few,Half,More than half,0.395460069,0.265885417,1,0,0,QQQ1,,,,,,,,English,2020-07-02_11h03.49.109,Experiment_English,3.2.4,MacIntel,60,,,1,0,340,73,1,339,ratio0Y_0_14_7.png,,,,,,,,,,,,
,,,,,,,,,,,,All,Some,Half,None,Many,More than half,Less than half,Most,Few,0.416006944,0.0996875,1,0,0,QQQ2,,,,,,,,English,2020-07-02_11h03.49.109,Experiment_English,3.2.4,MacIntel,60,,,1,0,340,10,1,339,ratio12_4_12_4.png,,,,,,,,,,,,
,,,,,,,,,,,,Less than half,None,Few,Many,Some,All,Most,More than half,Half,-0.43578125,0.265442708,1,0,0,QQQ7,,,,,,,,English,2020-07-02_11h03.49.109,Experiment_English,3.2.4,MacIntel,60,,,1,0,340,178,1,339,ratio21_12_18_2.png,,,,,,,,,,,,
,,,,,,,,,,,,Few,Half,More than half,Most,Many,Some,All,None,Less than half,0.420568576,0.315507812,1,0,0,QQQ1,,,,,,,,English,2020-07-02_11h03.49.109,Experiment_English,3.2.4,MacIntel,60,,,1,0,340,91,1,339,ratio13_3_12_10.png,,,,,,,,,,,,
,,,,,,,,,,,,Many,Few,More than half,Half,Most,Some,All,None,Less than half,-0.00108941,-0.066241319,1,0,0,QQQ5,,,,,,,,English,2020-07-02_11h03.49.109,Experiment_English,3.2.4,MacIntel,60,,,1,0,340,334,1,339,ratio91_18_20_9.png,,,,,,,,,,,,
,,,,,,,,,,,,Some,Many,Few,More than half,Most,Less than half,None,All,Half,-0.00108941,-0.066241319,1,0,0,QQQ5,,,,,,,,English,2020-07-02_11h03.49.109,Experiment_English,3.2.4,MacIntel,60,,,1,0,340,315,1,339,ratio51_15_18_10.png,,,,,,,,,,,,
,,,,,,,,,,,,Few,Many,Less than half,Some,Half,None,All,More than half,Most,-0.033485243,0.287738715,1,0,0,QQQ4,,,,,,,,English,2020-07-02_11h03.49.109,Experiment_English,3.2.4,MacIntel,60,,,1,0,340,36,1,339,ratio11_9_18_1.png,,,,,,,,,,,,
,,,,,,,,,,,,Few,None,All,Less than half,More than half,Half,Many,Most,Some,-0.391423611,-0.016749132,1,0,0,QQQ8,,,,,,,,English,2020-07-02_11h03.49.109,Experiment_English,3.2.4,MacIntel,60,,,1,0,340,206,1,339,ratio31_6_8_6.png,,,,,,,,,,,,
,,,,,,,,,,,,Few,Many,More than half,Some,All,Most,Less than half,Half,None,0.02249566,-0.363828125,1,0,0,QQQ6,,,,,,,,English,2020-07-02_11h03.49.109,Experiment_English,3.2.4,MacIntel,60,,,1,0,340,277,1,339,ratio41_16_20_8.png,,,,,,,,,,,,
,,,,,,,,,,,,Half,All,More than half,None,Most,Many,Less than half,Few,Some,0.083502604,-0.042747396,1,0,0,QQQ5,,,,,,,,English,2020-07-02_11h03.49.109,Experiment_English,3.2.4,MacIntel,60,,,1,0,340,209,1,339,ratio31_9_12_6.png,,,,,,,,,,,,
,,,,,,,,,,,,Many,Few,More than half,Some,Half,Less than half,All,None,Most,-0.459427083,-0.255802951,1,0,0,QQQ9,,,,,,,,English,2020-07-02_11h03.49.109,Experiment_English,3.2.4,MacIntel,60,,,1,0,340,225,1,339,ratio32_6_10_4.png,,,,,,,,,,,,
,,,,,,,,,,,,None,Many,More than half,All,Most,Some,Half,Less than half,Few,-0.100737847,-0.053693576,1,0,0,QQQ5,,,,,,,,English,2020-07-02_11h03.49.109,Experiment_English,3.2.4,MacIntel,60,,,1,0,340,207,1,339,ratio31_6_8_9.png,,,,,,,,,,,,
,,,,,,,,,,,,Half,Some,None,Many,Few,Less than half,All,Most,More than half,0.383932292,-0.074709201,1,0,0,QQQ2,,,,,,,,English,2020-07-02_11h03.49.109,Experiment_English,3.2.4,MacIntel,60,,,1,0,340,254,1,339,ratio34_6_14_9.png,,,,,,,,,,,,
,,,,,,,,,,,,Half,All,Most,Some,Few,Less than half,None,Many,More than half,0.081940104,-0.057378472,1,0,0,QQQ5,,,,,,,,English,2020-07-02_11h03.49.109,Experiment_English,3.2.4,MacIntel,60,,,1,0,340,143,1,339,ratio19_1_10_9.png,,,,,,,,,,,,
,,,,,,,,,,,,Few,None,More than half,Some,Most,Many,Half,Less than half,All,-0.498993056,-0.354344618,1,0,0,QQQ9,,,,,,,,English,2020-07-02_11h03.49.109,Experiment_English,3.2.4,MacIntel,60,,,1,0,340,50,1,339,ratioX0_12_12_3.png,,,,,,,,,,,,
,,,,,,,,,,,,Some,Less than half,Many,All,Half,Most,None,Few,More than half,-0.51546441,-0.059904514,1,0,0,QQQ8,,,,,,,,English,2020-07-02_11h03.49.109,Experiment_English,3.2.4,MacIntel,60,,,1,0,340,35,1,339,ratio11_8_16_10.png,,,,,,,,,,,,
,,,,,,,,,,,,Some,Many,None,Half,All,Few,More than half,Most,Less than half,0.429114583,0.265863715,1,0,0,QQQ1,,,,,,,,English,2020-07-02_11h03.49.109,Experiment_English,3.2.4,MacIntel,60,,,1,0,340,311,1,339,ratio51_10_12_14.png,,,,,,,,,,,,
,,,,,,,,,,,,More than half,Less than half,None,Most,Some,All,Few,Many,Half,-0.442760417,0.256015625,1,0,0,QQQ7,,,,,,,,English,2020-07-02_11h03.49.109,Experiment_English,3.2.4,MacIntel,60,,,1,0,340,1,1,339,ratio12_1_3_7.png,,,,,,,,,,,,
,,,,,,,,,,,,Less than half,More than half,None,Many,Half,Most,All,Few,Some,-0.047226562,-0.289492187,1,0,0,QQQ6,,,,,,,,English,2020-07-02_11h03.49.109,Experiment_English,3.2.4,MacIntel,60,,,1,0,340,211,1,339,ratio31_9_12_10.png,,,,,,,,,,,,
,,,,,,,,,,,,More than half,Few,Many,Less than half,All,Most,Half,None,Some,0.462456597,-0.015104167,1,0,0,QQQ2,,,,,,,,English,2020-07-02_11h03.49.109,Experiment_English,3.2.4,MacIntel,60,,,1,0,340,105,1,339,ratio14_2_10_1.png,,,,,,,,,,,,
,,,,,,,,,,,,Less than half,Half,Many,None,Few,Most,All,More than half,Some,0.088849826,-0.012578125,1,0,0,QQQ5,,,,,,,,English,2020-07-02_11h03.49.109,Experiment_English,3.2.4,MacIntel,60,,,1,0,340,159,1,339,ratio19_2_20_20.png,,,,,,,,,,,,
,,,,,,,,,,,,Some,Less than half,More than half,None,Many,Few,Half,Most,All,0.088849826,-0.012578125,1,0,0,QQQ5,,,,,,,,English,2020-07-02_11h03.49.109,Experiment_English,3.2.4,MacIntel,60,,,1,0,340,266,1,339,ratio41_8_10_2.png,,,,,,,,,,,,
,,,,,,,,,,,,Half,Few,All,More than half,Some,Most,Less than half,None,Many,0.495546875,-0.351510417,1,0,0,QQQ3,,,,,,,,English,2020-07-02_11h03.49.109,Experiment_English,3.2.4,MacIntel,60,,,1,0,340,51,1,339,ratioX0_12_12_9.png,,,,,,,,,,,,
,,,,,,,,,,,,All,More than half,Few,Half,None,Most,Less than half,Some,Many,0.404231771,0.355724826,1,0,0,QQQ1,,,,,,,,English,2020-07-02_11h03.49.109,Experiment_English,3.2.4,MacIntel,60,,,1,0,340,48,1,339,ratioX0_10_10_1.png,,,,,,,,,,,,
,,,,,,,,,,,,Most,Many,More than half,Few,Some,Half,None,Less than half,All,-0.045177951,-0.035980903,1,0,0,QQQ5,,,,,,,,English,2020-07-02_11h03.49.109,Experiment_English,3.2.4,MacIntel,60,,,1,0,340,15,1,339,ratio12_5_15_5.png,,,,,,,,,,,,
,,,,,,,,,,,,Many,All,Few,Half,None,More than half,Some,Less than half,Most,-0.466740451,0.246744792,1,0,0,QQQ7,,,,,,,,English,2020-07-02_11h03.49.109,Experiment_English,3.2.4,MacIntel,60,,,1,0,340,186,1,339,ratio23_4_10_2.png,,,,,,,,,,,,
,,,,,,,,,,,,All,None,Less than half,Half,Some,Few,More than half,Many,Most,-0.536019965,0.000976563,1,0,0,QQQ8,,,,,,,,English,2020-07-02_11h03.49.109,Experiment_English,3.2.4,MacIntel,60,,,1,0,340,302,1,339,ratio51_5_6_5.png,,,,,,,,,,,,
,,,,,,,,,,,,Half,All,Many,More than half,Few,Less than half,Most,None,Some,-0.431284722,-0.088207465,1,0,0,QQQ8,,,,,,,,English,2020-07-02_11h03.49.109,Experiment_English,3.2.4,MacIntel,60,,,1,0,340,65,1,339,ratio0Y_0_8_4.png,0.411297743,-0.40093316,1,0,0,continue_button_pause,1,0,1,0,1,0
,,,,,,,,,,,,,,,,,,,,,,,,,,,,,,,,,,English,2020-07-02_11h03.49.109,Experiment_English,3.2.4,MacIntel,60,,,1,0,340,65,1,339,ratio0Y_0_8_4.png,,,,,,,,,,,,
,,,,,,,,,,,,None,Most,Half,Few,Some,All,Less than half,More than half,Many,0.102447917,-0.078003472,1,0,0,QQQ5,,,,,,,,English,2020-07-02_11h03.49.109,Experiment_English,3.2.4,MacIntel,60,,,1,0,340,285,1,339,ratio43_4_7_14.png,,,,,,,,,,,,
,,,,,,,,,,,,Most,Many,Half,None,Few,Some,All,Less than half,More than half,0.412222222,-0.019952257,1,0,0,QQQ2,,,,,,,,English,2020-07-02_11h03.49.109,Experiment_English,3.2.4,MacIntel,60,,,1,0,340,272,1,339,ratio41_12_15_7.png,,,,,,,,,,,,
,,,,,,,,,,,,Many,All,More than half,None,Half,Less than half,Some,Few,Most,0.080429687,0.279895833,1,0,0,QQQ4,,,,,,,,English,2020-07-02_11h03.49.109,Experiment_English,3.2.4,MacIntel,60,,,1,0,340,75,1,339,ratio0Y_0_16_10.png,,,,,,,,,,,,
,,,,,,,,,,,,Half,Many,Few,More than half,None,Some,Less than half,Most,All,-0.069179688,-0.276358507,1,0,0,QQQ6,,,,,,,,English,2020-07-02_11h03.49.109,Experiment_English,3.2.4,MacIntel,60,,,1,0,340,247,1,339,ratio34_3_7_12.png,,,,,,,,,,,,
,,,,,,,,,,,,Some,Half,Many,More than half,None,Few,Less than half,All,Most,0.057560764,-0.328684896,1,0,0,QQQ6,,,,,,,,English,2020-07-02_11h03.49.109,Experiment_English,3.2.4,MacIntel,60,,,1,0,340,142,1,339,ratio19_1_10_6.png,,,,,,,,,,,,
,,,,,,,,,,,,None,Most,All,Many,Some,Less than half,Few,Half,More than half,-0.414396701,0.251319444,1,0,0,QQQ7,,,,,,,,English,2020-07-02_11h03.49.109,Experiment_English,3.2.4,MacIntel,60,,,1,0,340,138,1,339,ratio15_3_18_17.png,,,,,,,,,,,,
,,,,,,,,,,,,Half,Some,All,Most,Less than half,Few,None,More than half,Many,0.094969618,-0.227265625,1,0,0,QQQ6,,,,,,,,English,2020-07-02_11h03.49.109,Experiment_English,3.2.4,MacIntel,60,,,1,0,340,181,1,339,ratio23_2_5_6.png,,,,,,,,,,,,
,,,,,,,,,,,,Many,Most,Half,More than half,None,All,Few,Some,Less than half,0.444348958,0.033198785,1,0,0,QQQ2,,,,,,,,English,2020-07-02_11h03.49.109,Experiment_English,3.2.4,MacIntel,60,,,1,0,340,44,1,339,ratioX0_7_7_5.png,,,,,,,,,,,,
,,,,,,,,,,,,None,All,Half,Some,Less than half,Many,Most,More than half,Few,-0.430551215,-0.045525174,1,0,0,QQQ8,,,,,,,,English,2020-07-02_11h03.49.109,Experiment_English,3.2.4,MacIntel,60,,,1,0,340,295,1,339,ratio43_8_14_11.png,,,,,,,,,,,,
,,,,,,,,,,,,All,More than half,Many,Few,Some,Half,None,Most,Less than half,0.037400174,0.272395833,1,0,0,QQQ4,,,,,,,,English,2020-07-02_11h03.49.109,Experiment_English,3.2.4,MacIntel,60,,,1,0,340,111,1,339,ratio14_3_15_3.png,,,,,,,,,,,,
,,,,,,,,,,,,Less than half,All,Few,Half,Most,None,Some,Many,More than half,0.011605903,0.040928819,1,0,0,QQQ5,,,,,,,,English,2020-07-02_11h03.49.109,Experiment_English,3.2.4,MacIntel,60,,,1,0,340,296,1,339,ratio43_8_14_12.png,,,,,,,,,,,,
,,,,,,,,,,,,Few,Many,Some,Most,Less than half,All,None,Half,More than half,0.430429687,-0.272061632,1,0,0,QQQ3,,,,,,,,English,2020-07-02_11h03.49.109,Experiment_English,3.2.4,MacIntel,60,,,1,0,340,20,1,339,ratio11_2_4_3.png,,,,,,,,,,,,
,,,,,,,,,,,,All,More than half,Less than half,Few,Most,Half,Some,Many,None,-0.507413194,-0.309470486,1,0,0,QQQ9,,,,,,,,English,2020-07-02_11h03.49.109,Experiment_English,3.2.4,MacIntel,60,,,1,0,340,67,1,339,ratio0Y_0_10_10.png,,,,,,,,,,,,
,,,,,,,,,,,,Most,Many,Less than half,Few,None,All,Some,More than half,Half,0.383554687,-0.306423611,1,0,0,QQQ3,,,,,,,,English,2020-07-02_11h03.49.109,Experiment_English,3.2.4,MacIntel,60,,,1,0,340,248,1,339,ratio34_3_7_19.png,,,,,,,,,,,,
,,,,,,,,,,,,Many,Most,Less than half,Few,Some,None,More than half,Half,All,0.024192708,0.280763889,1,0,0,QQQ4,,,,,,,,English,2020-07-02_11h03.49.109,Experiment_English,3.2.4,MacIntel,60,,,1,0,340,129,1,339,ratio15_2_12_9.png,,,,,,,,,,,,
,,,,,,,,,,,,Few,More than half,All,Half,None,Less than half,Many,Most,Some,-0.492699653,-0.389466146,1,0,0,QQQ9,,,,,,,,English,2020-07-02_11h03.49.109,Experiment_English,3.2.4,MacIntel,60,,,1,0,340,236,1,339,ratio32_12_20_2.png,,,,,,,,,,,,
,,,,,,,,,,,,Half,Most,Less than half,More than half,Many,All,Few,Some,None,-0.069366319,-0.290203993,1,0,0,QQQ6,,,,,,,,English,2020-07-02_11h03.49.109,Experiment_English,3.2.4,MacIntel,60,,,1,0,340,42,1,339,ratioX0_5_5_5.png,,,,,,,,,,,,
,,,,,,,,,,,,Some,Less than half,Many,All,None,Few,More than half,Most,Half,-0.418645833,-0.017638889,1,0,0,QQQ8,,,,,,,,English,2020-07-02_11h03.49.109,Experiment_English,3.2.4,MacIntel,60,,,1,0,340,305,1,339,ratio51_5_6_14.png,,,,,,,,,,,,
,,,,,,,,,,,,Most,None,Few,Half,More than half,Less than half,Many,Some,All,0.015594618,-0.288789063,1,0,0,QQQ6,,,,,,,,English,2020-07-02_11h03.49.109,Experiment_English,3.2.4,MacIntel,60,,,1,0,340,3,1,339,ratio12_2_6_3.png,,,,,,,,,,,,
,,,,,,,,,,,,More than half,All,Less than half,Few,Most,Some,Many,None,Half,-0.061961806,-0.025807292,1,0,0,QQQ5,,,,,,,,English,2020-07-02_11h03.49.109,Experiment_English,3.2.4,MacIntel,60,,,1,0,340,294,1,339,ratio43_8_14_9.png,,,,,,,,,,,,
,,,,,,,,,,,,Most,Half,More than half,Some,None,Many,Few,All,Less than half,0.005512153,-0.333810764,1,0,0,QQQ6,,,,,,,,English,2020-07-02_11h03.49.109,Experiment_English,3.2.4,MacIntel,60,,,1,0,340,252,1,339,ratio34_6_14_3.png,,,,,,,,,,,,
,,,,,,,,,,,,Few,All,None,Some,Half,Many,More than half,Less than half,Most,0.423815104,-0.319045139,1,0,0,QQQ3,,,,,,,,English,2020-07-02_11h03.49.109,Experiment_English,3.2.4,MacIntel,60,,,1,0,340,63,1,339,ratio0Y_0_6_8.png,,,,,,,,,,,,
,,,,,,,,,,,,More than half,None,Less than half,Most,Half,All,Many,Some,Few,-0.019227431,0.236076389,1,0,0,QQQ4,,,,,,,,English,2020-07-02_11h03.49.109,Experiment_English,3.2.4,MacIntel,60,,,1,0,340,338,1,339,ratio91_18_20_18.png,,,,,,,,,,,,
,,,,,,,,,,,,Some,Most,More than half,All,Half,Less than half,None,Few,Many,0.425421007,0.234852431,1,0,0,QQQ1,,,,,,,,English,2020-07-02_11h03.49.109,Experiment_English,3.2.4,MacIntel,60,,,1,0,340,165,1,339,ratio21_4_6_10.png,,,,,,,,,,,,
,,,,,,,,,,,,None,Many,All,Less than half,Few,Most,More than half,Some,Half,-0.370516493,0.002760417,1,0,0,QQQ8,,,,,,,,English,2020-07-02_11h03.49.109,Experiment_English,3.2.4,MacIntel,60,,,1,0,340,170,1,339,ratio21_6_9_8.png,,,,,,,,,,,,
,,,,,,,,,,,,Some,Many,Few,All,Most,More than half,Half,Less than half,None,-0.486210937,-0.241302083,1,0,0,QQQ9,,,,,,,,English,2020-07-02_11h03.49.109,Experiment_English,3.2.4,MacIntel,60,,,1,0,340,66,1,339,ratio0Y_0_9_8.png,,,,,,,,,,,,
,,,,,,,,,,,,Half,Many,All,Less than half,Most,More than half,Some,Few,None,-0.092473958,-0.091271701,1,0,0,QQQ5,,,,,,,,English,2020-07-02_11h03.49.109,Experiment_English,3.2.4,MacIntel,60,,,1,0,340,168,1,339,ratio21_6_9_3.png,,,,,,,,,,,,
,,,,,,,,,,,,Many,More than half,Some,Few,Most,None,Half,All,Less than half,-0.015833333,-0.032942708,1,0,0,QQQ5,,,,,,,,English,2020-07-02_11h03.49.109,Experiment_English,3.2.4,MacIntel,60,,,1,0,340,215,1,339,ratio31_12_16_8.png,,,,,,,,,,,,
,,,,,,,,,,,,Most,Half,Few,More than half,None,Less than half,All,Some,Many,-0.482287326,0.267243924,1,0,0,QQQ7,,,,,,,,English,2020-07-02_11h03.49.109,Experiment_English,3.2.4,MacIntel,60,,,1,0,340,46,1,339,ratioX0_9_9_3.png,,,,,,,,,,,,
,,,,,,,,,,,,Half,More than half,Few,All,Most,None,Some,Many,Less than half,0.39562066,-0.068858507,1,0,0,QQQ2,,,,,,,,English,2020-07-02_11h03.49.109,Experiment_English,3.2.4,MacIntel,60,,,1,0,340,221,1,339,ratio32_3_5_3.png,,,,,,,,,,,,
,,,,,,,,,,,,Most,More than half,Many,Few,Half,Less than half,Some,All,None,0.416627604,-0.2528125,1,0,0,QQQ3,,,,,,,,English,2020-07-02_11h03.49.109,Experiment_English,3.2.4,MacIntel,60,,,1,0,340,38,1,339,ratio11_10_20_5.png,,,,,,,,,,,,
,,,,,,,,,,,,Most,Many,Less than half,Some,None,All,More than half,Few,Half,-0.465195313,0.01984375,1,0,0,QQQ8,,,,,,,,English,2020-07-02_11h03.49.109,Experiment_English,3.2.4,MacIntel,60,,,1,0,340,120,1,339,ratio15_1_6_1.png,,,,,,,,,,,,
,,,,,,,,,,,,Half,Most,Less than half,More than half,All,Few,Some,None,Many,0.447478299,0.041215278,1,0,0,QQQ2,,,,,,,,English,2020-07-02_11h03.49.109,Experiment_English,3.2.4,MacIntel,60,,,1,0,340,318,1,339,ratio51_15_18_18.png,,,,,,,,,,,,
,,,,,,,,,,,,Some,Many,None,All,Half,Few,Most,Less than half,More than half,-0.510217014,-0.265998264,1,0,0,QQQ9,,,,,,,,English,2020-07-02_11h03.49.109,Experiment_English,3.2.4,MacIntel,60,,,1,0,340,289,1,339,ratio43_4_7_20.png,0.355190972,-0.41516059,1,0,0,continue_button_pause,1,0,1,0,1,0
,,,,,,,,,,,,,,,,,,,,,,,,,,,,,,,,,,English,2020-07-02_11h03.49.109,Experiment_English,3.2.4,MacIntel,60,,,1,0,340,289,1,339,ratio43_4_7_20.png,,,,,,,,,,,,
,,,,,,,,,,,,More than half,Half,Some,None,Few,All,Many,Less than half,Most,0.085195312,-0.046375868,1,0,0,QQQ5,,,,,,,,English,2020-07-02_11h03.49.109,Experiment_English,3.2.4,MacIntel,60,,,1,0,340,192,1,339,ratio23_6_15_8.png,,,,,,,,,,,,
,,,,,,,,,,,,Less than half,Half,Many,Few,Most,More than half,Some,None,All,0.085195312,-0.046375868,1,0,0,QQQ5,,,,,,,,English,2020-07-02_11h03.49.109,Experiment_English,3.2.4,MacIntel,60,,,1,0,340,332,1,339,ratio91_18_20_4.png,,,,,,,,,,,,
,,,,,,,,,,,,Many,All,Few,Most,None,Some,Half,More than half,Less than half,-0.488715278,0.060447049,1,0,0,QQQ8,,,,,,,,English,2020-07-02_11h03.49.109,Experiment_English,3.2.4,MacIntel,60,,,1,0,340,261,1,339,ratio41_4_5_3.png,,,,,,,,,,,,
,,,,,,,,,,,,More than half,Some,None,Less than half,Half,Most,Few,All,Many,0.480503472,0.291414931,1,0,0,QQQ1,,,,,,,,English,2020-07-02_11h03.49.109,Experiment_English,3.2.4,MacIntel,60,,,1,0,340,216,1,339,ratio31_15_20_3.png,,,,,,,,,,,,
,,,,,,,,,,,,Few,All,Less than half,Many,More than half,Some,Half,Most,None,0.532842882,0.257048611,1,0,0,QQQ1,,,,,,,,English,2020-07-02_11h03.49.109,Experiment_English,3.2.4,MacIntel,60,,,1,0,340,106,1,339,ratio14_2_10_2.png,,,,,,,,,,,,
,,,,,,,,,,,,Many,Half,Some,Most,More than half,Less than half,All,Few,None,0.007513021,-0.296757812,1,0,0,QQQ6,,,,,,,,English,2020-07-02_11h03.49.109,Experiment_English,3.2.4,MacIntel,60,,,1,0,340,270,1,339,ratio41_12_15_3.png,,,,,,,,,,,,
,,,,,,,,,,,,None,Many,Most,Half,All,Some,Few,More than half,Less than half,0.014309896,-0.319184028,1,0,0,QQQ6,,,,,,,,English,2020-07-02_11h03.49.109,Experiment_English,3.2.4,MacIntel,60,,,1,0,340,251,1,339,ratio34_6_14_2.png,,,,,,,,,,,,
,,,,,,,,,,,,Half,None,Many,Few,All,Less than half,Most,More than half,Some,-0.535729167,-0.351306424,1,0,0,QQQ9,,,,,,,,English,2020-07-02_11h03.49.109,Experiment_English,3.2.4,MacIntel,60,,,1,0,340,214,1,339,ratio31_12_16_5.png,,,,,,,,,,,,
,,,,,,,,,,,,Few,None,More than half,All,Half,Most,Less than half,Many,Some,-0.049891493,-0.320959201,1,0,0,QQQ6,,,,,,,,English,2020-07-02_11h03.49.109,Experiment_English,3.2.4,MacIntel,60,,,1,0,340,201,1,339,ratio31_3_4_7.png,,,,,,,,,,,,
,,,,,,,,,,,,Most,Some,Less than half,Few,Half,All,None,More than half,Many,0.414930556,0.279301215,1,0,0,QQQ1,,,,,,,,English,2020-07-02_11h03.49.109,Experiment_English,3.2.4,MacIntel,60,,,1,0,340,204,1,339,ratio31_6_8_1.png,,,,,,,,,,,,
,,,,,,,,,,,,Many,All,None,Few,Most,Half,Some,Less than half,More than half,-0.352582465,0.001189236,1,0,0,QQQ8,,,,,,,,English,2020-07-02_11h03.49.109,Experiment_English,3.2.4,MacIntel,60,,,1,0,340,188,1,339,ratio23_4_10_6.png,,,,,,,,,,,,
,,,,,,,,,,,,Half,More than half,Less than half,None,Some,Many,Few,Most,All,-0.07656684,-0.011636285,1,0,0,QQQ5,,,,,,,,English,2020-07-02_11h03.49.109,Experiment_English,3.2.4,MacIntel,60,,,1,0,340,32,1,339,ratio11_7_14_5.png,,,,,,,,,,,,
,,,,,,,,,,,,Some,All,Less than half,More than half,None,Most,Few,Many,Half,-0.029618056,-0.058090278,1,0,0,QQQ5,,,,,,,,English,2020-07-02_11h03.49.109,Experiment_English,3.2.4,MacIntel,60,,,1,0,340,76,1,339,ratio0Y_0_17_10.png,,,,,,,,,,,,
,,,,,,,,,,,,Most,Few,None,More than half,Some,Half,Less than half,Many,All,0.441328125,0.290703125,1,0,0,QQQ1,,,,,,,,English,2020-07-02_11h03.49.109,Experiment_English,3.2.4,MacIntel,60,,,1,0,340,269,1,339,ratio41_8_10_6.png,,,,,,,,,,,,
,,,,,,,,,,,,Many,Most,Less than half,More than half,Half,All,Some,None,Few,-0.421536458,-0.301145833,1,0,0,QQQ9,,,,,,,,English,2020-07-02_11h03.49.109,Experiment_English,3.2.4,MacIntel,60,,,1,0,340,102,1,339,ratio14_1_5_8.png,,,,,,,,,,,,
,,,,,,,,,,,,Most,None,Many,More than half,All,Less than half,Half,Some,Few,-0.421536458,-0.301145833,1,0,0,QQQ9,,,,,,,,English,2020-07-02_11h03.49.109,Experiment_English,3.2.4,MacIntel,60,,,1,0,340,88,1,339,ratio13_3_12_5.png,,,,,,,,,,,,
,,,,,,,,,,,,Few,None,Many,All,More than half,Less than half,Most,Half,Some,-0.421536458,-0.301145833,1,0,0,QQQ9,,,,,,,,English,2020-07-02_11h03.49.109,Experiment_English,3.2.4,MacIntel,60,,,1,0,340,196,1,339,ratio23_8_20_5.png,,,,,,,,,,,,
,,,,,,,,,,,,Half,More than half,Few,Many,All,Less than half,None,Most,Some,-0.449856771,-0.049960937,1,0,0,QQQ8,,,,,,,,English,2020-07-02_11h03.49.109,Experiment_English,3.2.4,MacIntel,60,,,1,0,340,331,1,339,ratio91_18_20_3.png,,,,,,,,,,,,
,,,,,,,,,,,,Less than half,None,More than half,Some,Few,Half,Many,Most,All,-0.006210938,0.001905382,1,0,0,QQQ5,,,,,,,,English,2020-07-02_11h03.49.109,Experiment_English,3.2.4,MacIntel,60,,,1,0,340,126,1,339,ratio15_2_12_1.png,,,,,,,,,,,,
,,,,,,,,,,,,Less than half,None,Many,Half,All,More than half,Most,Some,Few,-0.4675,0.203723958,1,0,0,QQQ7,,,,,,,,English,2020-07-02_11h03.49.109,Experiment_English,3.2.4,MacIntel,60,,,1,0,340,262,1,339,ratio41_4_5_4.png,,,,,,,,,,,,
,,,,,,,,,,,,More than half,Half,Less than half,Few,Some,Most,All,None,Many,-0.012552083,-0.049409722,1,0,0,QQQ5,,,,,,,,English,2020-07-02_11h03.49.109,Experiment_English,3.2.4,MacIntel,60,,,1,0,340,197,1,339,ratio23_8_20_6.png,,,,,,,,,,,,
,,,,,,,,,,,,More than half,All,Some,Few,None,Less than half,Most,Half,Many,0.440881076,-0.302378472,1,0,0,QQQ3,,,,,,,,English,2020-07-02_11h03.49.109,Experiment_English,3.2.4,MacIntel,60,,,1,0,340,263,1,339,ratio41_4_5_5.png,,,,,,,,,,,,
,,,,,,,,,,,,Most,Some,All,Half,Many,None,Less than half,Few,More than half,-0.410616319,-0.064730903,1,0,0,QQQ8,,,,,,,,English,2020-07-02_11h03.49.109,Experiment_English,3.2.4,MacIntel,60,,,1,0,340,82,1,339,ratio13_1_4_7.png,,,,,,,,,,,,
,,,,,,,,,,,,Few,None,Most,Some,Many,All,Half,More than half,Less than half,-0.071232639,0.239457465,1,0,0,QQQ4,,,,,,,,English,2020-07-02_11h03.49.109,Experiment_English,3.2.4,MacIntel,60,,,1,0,340,198,1,339,ratio23_8_20_7.png,,,,,,,,,,,,
,,,,,,,,,,,,All,Some,Less than half,Most,More than half,Few,None,Many,Half,-0.418198785,0.04516059,1,0,0,QQQ8,,,,,,,,English,2020-07-02_11h03.49.109,Experiment_English,3.2.4,MacIntel,60,,,1,0,340,233,1,339,ratio32_9_15_9.png,,,,,,,,,,,,
,,,,,,,,,,,,Most,None,Half,Less than half,Many,Some,Few,All,More than half,-0.025499132,-0.024904514,1,0,0,QQQ5,,,,,,,,English,2020-07-02_11h03.49.109,Experiment_English,3.2.4,MacIntel,60,,,1,0,340,329,1,339,ratio91_9_10_20.png,,,,,,,,,,,,
,,,,,,,,,,,,Less than half,None,Many,Half,More than half,Some,Few,Most,All,0.355507813,0.262782118,1,0,0,QQQ1,,,,,,,,English,2020-07-02_11h03.49.109,Experiment_English,3.2.4,MacIntel,60,,,1,0,340,7,1,339,ratio12_3_9_2.png,,,,,,,,,,,,
,,,,,,,,,,,,All,Few,More than half,None,Many,Most,Half,Less than half,Some,0.494474826,0.056731771,1,0,0,QQQ2,,,,,,,,English,2020-07-02_11h03.49.109,Experiment_English,3.2.4,MacIntel,60,,,1,0,340,81,1,339,ratio13_1_4_5.png,,,,,,,,,,,,
,,,,,,,,,,,,Many,Few,More than half,All,Half,Most,Some,Less than half,None,-0.528029514,-0.024305556,1,0,0,QQQ8,,,,,,,,English,2020-07-02_11h03.49.109,Experiment_English,3.2.4,MacIntel,60,,,1,0,340,96,1,339,ratio13_5_20_1.png,,,,,,,,,,,,
,,,,,,,,,,,,Less than half,None,More than half,Few,Half,Most,Some,Many,All,-0.149648438,0.251345486,1,0,0,QQQ4,,,,,,,,English,2020-07-02_11h03.49.109,Experiment_English,3.2.4,MacIntel,60,,,1,0,340,153,1,339,ratio19_2_20_8.png,,,,,,,,,,,,
,,,,,,,,,,,,Some,Less than half,Half,None,Few,Most,More than half,Many,All,0.391627604,0.250334201,1,0,0,QQQ1,,,,,,,,English,2020-07-02_11h03.49.109,Experiment_English,3.2.4,MacIntel,60,,,1,0,340,193,1,339,ratio23_6_15_9.png,,,,,,,,,,,,
,,,,,,,,,,,,Less than half,Half,More than half,None,All,Some,Many,Few,Most,-0.564236111,0.024405382,1,0,0,QQQ8,,,,,,,,English,2020-07-02_11h03.49.109,Experiment_English,3.2.4,MacIntel,60,,,1,0,340,245,1,339,ratio34_3_7_10.png,,,,,,,,,,,,
,,,,,,,,,,,,Less than half,More than half,Half,All,Most,Few,Some,Many,None,0.474696181,-0.009513889,1,0,0,QQQ2,,,,,,,,English,2020-07-02_11h03.49.109,Experiment_English,3.2.4,MacIntel,60,,,1,0,340,297,1,339,ratio43_8_14_13.png,,,,,,,,,,,,
,,,,,,,,,,,,Some,None,Few,Less than half,More than half,All,Most,Many,Half,0.15953125,-0.014470486,1,0,0,QQQ5,,,,,,,,English,2020-07-02_11h03.49.109,Experiment_English,3.2.4,MacIntel,60,,,1,0,340,238,1,339,ratio32_12_20_9.png,0.278472222,-0.401631944,1,0,0,continue_button_pause,1,0,1,0,1,0
,,,,,,,,,,,,,,,,,,,,,,,,,,,,,,,,,,English,2020-07-02_11h03.49.109,Experiment_English,3.2.4,MacIntel,60,,,1,0,340,238,1,339,ratio32_12_20_9.png,,,,,,,,,,,,
,,,,,,,,,,,,Many,Few,More than half,None,Some,Half,All,Less than half,Most,-0.424748264,0.01828125,1,0,0,QQQ8,,,,,,,,English,2020-07-02_11h03.49.109,Experiment_English,3.2.4,MacIntel,60,,,1,0,340,24,1,339,ratio11_4_8_3.png,,,,,,,,,,,,
,,,,,,,,,,,,Half,Few,Less than half,Some,Many,More than half,None,All,Most,-0.074513889,0.013763021,1,0,0,QQQ5,,,,,,,,English,2020-07-02_11h03.49.109,Experiment_English,3.2.4,MacIntel,60,,,1,0,340,322,1,339,ratio91_9_10_3.png,,,,,,,,,,,,
,,,,,,,,,,,,More than half,Few,None,Some,Most,Half,All,Less than half,Many,-0.442313368,0.323077257,1,0,0,QQQ7,,,,,,,,English,2020-07-02_11h03.49.109,Experiment_English,3.2.4,MacIntel,60,,,1,0,340,56,1,339,ratioX0_17_17_10.png,,,,,,,,,,,,
,,,,,,,,,,,,Few,Less than half,None,Most,More than half,All,Half,Some,Many,0.486671007,-0.308454861,1,0,0,QQQ3,,,,,,,,English,2020-07-02_11h03.49.109,Experiment_English,3.2.4,MacIntel,60,,,1,0,340,77,1,339,ratio0Y_0_18_3.png,,,,,,,,,,,,
,,,,,,,,,,,,None,All,Half,Few,More than half,Many,Less than half,Some,Most,-0.345342882,-0.059496528,1,0,0,QQQ8,,,,,,,,English,2020-07-02_11h03.49.109,Experiment_English,3.2.4,MacIntel,60,,,1,0,340,139,1,339,ratio15_3_18_20.png,,,,,,,,,,,,
,,,,,,,,,,,,Many,Some,All,Half,Less than half,More than half,None,Few,Most,-0.054097222,-0.29234375,1,0,0,QQQ6,,,,,,,,English,2020-07-02_11h03.49.109,Experiment_English,3.2.4,MacIntel,60,,,1,0,340,230,1,339,ratio32_9_15_1.png,,,,,,,,,,,,
,,,,,,,,,,,,None,More than half,Some,Half,Few,Most,Less than half,Many,All,0.399279514,-0.306193576,1,0,0,QQQ3,,,,,,,,English,2020-07-02_11h03.49.109,Experiment_English,3.2.4,MacIntel,60,,,1,0,340,246,1,339,ratio34_3_7_11.png,,,,,,,,,,,,
,,,,,,,,,,,,Half,More than half,None,Less than half,Most,Many,Some,All,Few,-0.609092882,0.322447917,1,0,0,QQQ7,,,,,,,,English,2020-07-02_11h03.49.109,Experiment_English,3.2.4,MacIntel,60,,,1,0,340,16,1,339,ratio12_5_15_6.png,,,,,,,,,,,,
,,,,,,,,,,,,None,Half,Many,Less than half,More than half,Most,All,Few,Some,-0.002916667,0.038272569,1,0,0,QQQ5,,,,,,,,English,2020-07-02_11h03.49.109,Experiment_English,3.2.4,MacIntel,60,,,1,0,340,223,1,339,ratio32_3_5_5.png,,,,,,,,,,,,
,,,,,,,,,,,,None,Many,More than half,Most,Few,Some,Half,Less than half,All,0.4946875,0.026137153,1,0,0,QQQ2,,,,,,,,English,2020-07-02_11h03.49.109,Experiment_English,3.2.4,MacIntel,60,,,1,0,340,219,1,339,ratio31_15_20_10.png,,,,,,,,,,,,
,,,,,,,,,,,,Many,Less than half,Half,All,None,More than half,Most,Few,Some,-0.447330729,0.251328125,1,0,0,QQQ7,,,,,,,,English,2020-07-02_11h03.49.109,Experiment_English,3.2.4,MacIntel,60,,,1,0,340,310,1,339,ratio51_10_12_12.png,,,,,,,,,,,,
,,,,,,,,,,,,Some,None,Less than half,Few,Many,Half,All,More than half,Most,0.41703125,0.244709201,1,0,0,QQQ1,,,,,,,,English,2020-07-02_11h03.49.109,Experiment_English,3.2.4,MacIntel,60,,,1,0,340,119,1,339,ratio14_4_20_10.png,,,,,,,,,,,,
,,,,,,,,,,,,More than half,None,Many,Most,Some,Few,All,Less than half,Half,-0.012356771,0.331323785,1,0,0,QQQ4,,,,,,,,English,2020-07-02_11h03.49.109,Experiment_English,3.2.4,MacIntel,60,,,1,0,340,212,1,339,ratio31_12_16_1.png,,,,,,,,,,,,
,,,,,,,,,,,,Many,None,All,More than half,Some,Few,Half,Less than half,Most,0.496032986,0.290568576,1,0,0,QQQ1,,,,,,,,English,2020-07-02_11h03.49.109,Experiment_English,3.2.4,MacIntel,60,,,1,0,340,175,1,339,ratio21_10_15_2.png,,,,,,,,,,,,
,,,,,,,,,,,,Less than half,Few,None,All,Half,Some,Most,More than half,Many,-0.526835938,-0.38859375,1,0,0,QQQ9,,,,,,,,English,2020-07-02_11h03.49.109,Experiment_English,3.2.4,MacIntel,60,,,1,0,340,218,1,339,ratio31_15_20_7.png,,,,,,,,,,,,
,,,,,,,,,,,,Few,Some,Less than half,More than half,Most,All,Half,None,Many,-0.562296007,-0.089388021,1,0,0,QQQ8,,,,,,,,English,2020-07-02_11h03.49.109,Experiment_English,3.2.4,MacIntel,60,,,1,0,340,72,1,339,ratio0Y_0_13_4.png,,,,,,,,,,,,
,,,,,,,,,,,,Half,All,Few,Less than half,None,More than half,Many,Some,Most,-0.421119792,0.245542535,1,0,0,QQQ7,,,,,,,,English,2020-07-02_11h03.49.109,Experiment_English,3.2.4,MacIntel,60,,,1,0,340,205,1,339,ratio31_6_8_2.png,,,,,,,,,,,,
,,,,,,,,,,,,Most,Less than half,Few,Half,More than half,Some,All,None,Many,0.474965278,-0.064240451,1,0,0,QQQ2,,,,,,,,English,2020-07-02_11h03.49.109,Experiment_English,3.2.4,MacIntel,60,,,1,0,340,11,1,339,ratio12_4_12_7.png,,,,,,,,,,,,
,,,,,,,,,,,,Few,All,Less than half,Some,Half,More than half,Most,Many,None,-0.390269097,-0.053893229,1,0,0,QQQ8,,,,,,,,English,2020-07-02_11h03.49.109,Experiment_English,3.2.4,MacIntel,60,,,1,0,340,313,1,339,ratio51_15_18_2.png,,,,,,,,,,,,
,,,,,,,,,,,,Less than half,Half,Few,All,Most,Many,None,More than half,Some,0.452261285,-0.373958333,1,0,0,QQQ3,,,,,,,,English,2020-07-02_11h03.49.109,Experiment_English,3.2.4,MacIntel,60,,,1,0,340,99,1,339,ratio13_5_20_4.png,,,,,,,,,,,,
,,,,,,,,,,,,None,Less than half,Many,More than half,Most,Few,Some,Half,All,0.126141493,-0.332925347,1,0,0,QQQ6,,,,,,,,English,2020-07-02_11h03.49.109,Experiment_English,3.2.4,MacIntel,60,,,1,0,340,12,1,339,ratio12_4_12_10.png,,,,,,,,,,,,
,,,,,,,,,,,,Many,None,More than half,Half,Most,Few,All,Some,Less than half,0.41530816,-0.296497396,1,0,0,QQQ3,,,,,,,,English,2020-07-02_11h03.49.109,Experiment_English,3.2.4,MacIntel,60,,,1,0,340,220,1,339,ratio32_3_5_1.png,,,,,,,,,,,,
,,,,,,,,,,,,Less than half,None,Most,Half,All,More than half,Few,Some,Many,-0.580746528,-0.274500868,1,0,0,QQQ9,,,,,,,,English,2020-07-02_11h03.49.109,Experiment_English,3.2.4,MacIntel,60,,,1,0,340,316,1,339,ratio51_15_18_11.png,,,,,,,,,,,,
,,,,,,,,,,,,Many,Half,Few,All,None,Most,Less than half,More than half,Some,0.429544271,0.285164931,1,0,0,QQQ1,,,,,,,,English,2020-07-02_11h03.49.109,Experiment_English,3.2.4,MacIntel,60,,,1,0,340,307,1,339,ratio51_10_12_1.png,,,,,,,,,,,,
,,,,,,,,,,,,Less than half,Some,More than half,None,Most,Few,Many,Half,All,-0.139865451,-0.220625,1,0,0,QQQ6,,,,,,,,English,2020-07-02_11h03.49.109,Experiment_English,3.2.4,MacIntel,60,,,1,0,340,122,1,339,ratio15_1_6_7.png,,,,,,,,,,,,
,,,,,,,,,,,,Few,None,More than half,All,Less than half,Many,Some,Half,Most,0.453376736,-0.323780382,1,0,0,QQQ3,,,,,,,,English,2020-07-02_11h03.49.109,Experiment_English,3.2.4,MacIntel,60,,,1,0,340,301,1,339,ratio51_5_6_4.png,,,,,,,,,,,,
,,,,,,,,,,,,None,Some,Half,Many,More than half,All,Most,Few,Less than half,0.498784722,-0.032864583,1,0,0,QQQ2,,,,,,,,English,2020-07-02_11h03.49.109,Experiment_English,3.2.4,MacIntel,60,,,1,0,340,257,1,339,ratio34_6_14_12.png,,,,,,,,,,,,
,,,,,,,,,,,,None,Half,Few,Some,Many,Most,More than half,All,Less than half,-0.364340278,0.006653646,1,0,0,QQQ8,,,,,,,,English,2020-07-02_11h03.49.109,Experiment_English,3.2.4,MacIntel,60,,,1,0,340,49,1,339,ratioX0_11_11_2.png,,,,,,,,,,,,
,,,,,,,,,,,,Most,Half,All,Some,None,Few,Less than half,Many,More than half,-0.450134549,0.012213542,1,0,0,QQQ8,,,,,,,,English,2020-07-02_11h03.49.109,Experiment_English,3.2.4,MacIntel,60,,,1,0,340,34,1,339,ratio11_8_16_8.png,,,,,,,,,,,,
,,,,,,,,,,,,Some,Less than half,Most,More than half,Half,Few,All,Many,None,-0.488988715,0.008810764,1,0,0,QQQ8,,,,,,,,English,2020-07-02_11h03.49.109,Experiment_English,3.2.4,MacIntel,60,,,1,0,340,237,1,339,ratio32_12_20_5.png,,,,,,,,,,,,
,,,,,,,,,,,,Some,None,Half,Most,All,Less than half,More than half,Few,Many,-0.488602431,0.023133681,1,0,0,QQQ8,,,,,,,,English,2020-07-02_11h03.49.109,Experiment_English,3.2.4,MacIntel,60,,,1,0,340,125,1,339,ratio15_1_6_19.png,,,,,,,,,,,,
,,,,,,,,,,,,Half,Some,Most,More than half,None,All,Many,Less than half,Few,0.442387153,-0.37141059,1,0,0,QQQ3,,,,,,,,English,2020-07-02_11h03.49.109,Experiment_English,3.2.4,MacIntel,60,,,1,0,340,162,1,339,ratio21_2_3_9.png,,,,,,,,,,,,
,,,,,,,,,,,,Half,Many,None,Some,All,More than half,Less than half,Few,Most,-0.447161458,-0.084088542,1,0,0,QQQ8,,,,,,,,English,2020-07-02_11h03.49.109,Experiment_English,3.2.4,MacIntel,60,,,1,0,340,259,1,339,ratio34_6_14_19.png,,,,,,,,,,,,
,,,,,,,,,,,,Few,Many,Less than half,None,Half,Some,Most,All,More than half,-0.420863715,0.352317708,1,0,0,QQQ7,,,,,,,,English,2020-07-02_11h03.49.109,Experiment_English,3.2.4,MacIntel,60,,,1,0,340,177,1,339,ratio21_12_18_1.png,,,,,,,,,,,,
