continue_mouse.x,continue_mouse.y,continue_mouse.leftButton,continue_mouse.midButton,continue_mouse.rightButton,continue_mouse.clicked_name,continue_mouse_2.x,continue_mouse_2.y,continue_mouse_2.leftButton,continue_mouse_2.midButton,continue_mouse_2.rightButton,continue_mouse_2.clicked_name,Q1,Q2,Q3,Q4,Q5,Q6,Q7,Q8,Q9,select_answer.x,select_answer.y,select_answer.leftButton,select_answer.midButton,select_answer.rightButton,select_answer.clicked_name,trial.thisRepN,trial.thisTrialN,trial.thisN,trial.thisIndex,trial.ran,trial.order,trials,Native tongue*,date,expName,psychopyVersion,OS,frameRate,key_resp.keys,key_resp.rt,trial_2.thisRepN,trial_2.thisTrialN,trial_2.thisN,trial_2.thisIndex,trial_2.ran,trial_2.order,continue_mouse_3.x,continue_mouse_3.y,continue_mouse_3.leftButton,continue_mouse_3.midButton,continue_mouse_3.rightButton,continue_mouse_3.clicked_name,insts.thisRepN,insts.thisTrialN,insts.thisN,insts.thisIndex,insts.ran,insts.order,Actual_Experiment.thisRepN,Actual_Experiment.thisTrialN,Actual_Experiment.thisN,Actual_Experiment.thisIndex,Actual_Experiment.ran,Actual_Experiment.order,Pic,mouse_pause.x,mouse_pause.y,mouse_pause.leftButton,mouse_pause.midButton,mouse_pause.rightButton,mouse_pause.clicked_name,pause.thisRepN,pause.thisTrialN,pause.thisN,pause.thisIndex,pause.ran,pause.order
0.288841146,-0.470056424,1,0,0,continue_button,0.335850694,-0.441106771,1,0,0,continue_button_2,More than half,Some,Most,Less than half,None,All,Few,Half,Many,0.511801215,-0.027057292,1,0,0,QQQ2,1,0,16,7,1,15,ratio23_2_5_8.png,English,2020-07-02_11h01.41.311,Experiment_English,3.2.4,MacIntel,60,,,,,,,,,,,,,,,,,,,,,,,,,,,,,,,,,,,,,,,
,,,,,,,,,,,,More than half,Most,None,Many,Half,Some,Less than half,All,Few,0.034283854,0.268971354,1,0,0,QQQ4,1,0,16,15,1,15,ratio0Y_0_14_10.png,English,2020-07-02_11h01.41.311,Experiment_English,3.2.4,MacIntel,60,,,,,,,,,,,,,,,,,,,,,,,,,,,,,,,,,,,,,,,
,,,,,,,,,,,,Few,Some,More than half,Many,Most,Half,All,Less than half,None,-0.015985243,-0.034045139,1,0,0,QQQ5,1,0,16,6,1,15,ratio31_12_16_7.png,English,2020-07-02_11h01.41.311,Experiment_English,3.2.4,MacIntel,60,,,,,,,,,,,,,,,,,,,,,,,,,,,,,,,,,,,,,,,
,,,,,,,,,,,,None,Some,Few,More than half,Less than half,Most,Many,Half,All,-0.3990625,-0.02250434,1,0,0,QQQ8,1,0,16,14,1,15,ratio11_5_10_6.png,English,2020-07-02_11h01.41.311,Experiment_English,3.2.4,MacIntel,60,,,,,,,,,,,,,,,,,,,,,,,,,,,,,,,,,,,,,,,
,,,,,,,,,,,,Most,None,Some,Many,More than half,Half,Less than half,All,Few,0.504157986,0.314301215,1,0,0,QQQ1,1,0,16,0,1,15,ratio91_9_10_19.png,English,2020-07-02_11h01.41.311,Experiment_English,3.2.4,MacIntel,60,,,,,,,,,,,,,,,,,,,,,,,,,,,,,,,,,,,,,,,
,,,,,,,,,,,,All,Many,Half,Few,None,Some,Less than half,More than half,Most,-0.004774306,0.268519965,1,0,0,QQQ4,,,,,,,ratio15_2_12_4.png,English,2020-07-02_11h01.41.311,Experiment_English,3.2.4,MacIntel,60,a,91.91199994,1,0,16,10,1,15,,,,,,,,,,,,,,,,,,,,,,,,,,,,,,,
,,,,,,,,,,,,Most,All,More than half,Few,None,Less than half,Half,Many,Some,-0.018190104,-0.362252604,1,0,0,QQQ6,,,,,,,ratio12_5_15_1.png,English,2020-07-02_11h01.41.311,Experiment_English,3.2.4,MacIntel,60,,,1,0,16,13,1,15,,,,,,,,,,,,,,,,,,,,,,,,,,,,,,,
,,,,,,,,,,,,Most,Half,More than half,Some,Few,Less than half,None,All,Many,0.442152778,0.299835069,1,0,0,QQQ1,,,,,,,ratio51_5_6_8.png,English,2020-07-02_11h01.41.311,Experiment_English,3.2.4,MacIntel,60,,,1,0,16,1,1,15,,,,,,,,,,,,,,,,,,,,,,,,,,,,,,,
,,,,,,,,,,,,Half,More than half,Some,Many,Few,None,Less than half,All,Most,0.466032986,0.272521701,1,0,0,QQQ1,,,,,,,ratio32_6_10_2.png,English,2020-07-02_11h01.41.311,Experiment_English,3.2.4,MacIntel,60,,,1,0,16,5,1,15,,,,,,,,,,,,,,,,,,,,,,,,,,,,,,,
,,,,,,,,,,,,Few,Some,All,Less than half,None,Most,Half,Many,More than half,0.433793403,0.070798611,1,0,0,QQQ2,,,,,,,ratio13_3_12_3.png,English,2020-07-02_11h01.41.311,Experiment_English,3.2.4,MacIntel,60,,,1,0,16,12,1,15,,,,,,,,,,,,,,,,,,,,,,,,,,,,,,,
,,,,,,,,,,,,,,,,,,,,,,,,,,,,,,,,,,English,2020-07-02_11h01.41.311,Experiment_English,3.2.4,MacIntel,60,,,,,,,,,0.296297743,-0.403420139,1,0,0,continue_button_3,1,0,1,0,1,0,,,,,,,,,,,,,,,,,,,
,,,,,,,,,,,,Some,Most,Half,Few,Less than half,None,All,More than half,Many,-0.013220486,0.250186632,1,0,0,QQQ4,,,,,,,,English,2020-07-02_11h01.41.311,Experiment_English,3.2.4,MacIntel,60,,,,,,,,,,,,,,,,,,,,,1,0,340,152,1,339,ratio19_2_20_6.png,,,,,,,,,,,,
,,,,,,,,,,,,Half,Few,More than half,None,Some,Many,Most,Less than half,All,0.421475694,-0.279014757,1,0,0,QQQ3,,,,,,,,English,2020-07-02_11h01.41.311,Experiment_English,3.2.4,MacIntel,60,,,,,,,,,,,,,,,,,,,,,1,0,340,163,1,339,ratio21_4_6_1.png,,,,,,,,,,,,
,,,,,,,,,,,,None,Many,More than half,Few,Some,Most,All,Half,Less than half,0.062738715,0.245868056,1,0,0,QQQ4,,,,,,,,English,2020-07-02_11h01.41.311,Experiment_English,3.2.4,MacIntel,60,,,,,,,,,,,,,,,,,,,,,1,0,340,109,1,339,ratio14_2_10_9.png,,,,,,,,,,,,
,,,,,,,,,,,,All,Few,More than half,Half,None,Some,Most,Less than half,Many,0.44406684,0.019457465,1,0,0,QQQ2,,,,,,,,English,2020-07-02_11h01.41.311,Experiment_English,3.2.4,MacIntel,60,,,,,,,,,,,,,,,,,,,,,1,0,340,85,1,339,ratio13_2_8_5.png,,,,,,,,,,,,
,,,,,,,,,,,,All,Less than half,None,Some,Few,More than half,Half,Most,Many,-0.420203993,-0.312773437,1,0,0,QQQ9,,,,,,,,English,2020-07-02_11h01.41.311,Experiment_English,3.2.4,MacIntel,60,,,,,,,,,,,,,,,,,,,,,1,0,340,230,1,339,ratio32_9_15_1.png,,,,,,,,,,,,
,,,,,,,,,,,,All,Less than half,Many,Few,Half,Some,More than half,None,Most,-0.036805556,0.255538194,1,0,0,QQQ4,,,,,,,,English,2020-07-02_11h01.41.311,Experiment_English,3.2.4,MacIntel,60,,,,,,,,,,,,,,,,,,,,,1,0,340,142,1,339,ratio19_1_10_6.png,,,,,,,,,,,,
,,,,,,,,,,,,Less than half,Some,Most,Half,Many,All,Few,More than half,None,0.402513021,0.254144965,1,0,0,QQQ1,,,,,,,,English,2020-07-02_11h01.41.311,Experiment_English,3.2.4,MacIntel,60,,,,,,,,,,,,,,,,,,,,,1,0,340,183,1,339,ratio23_2_5_9.png,,,,,,,,,,,,
,,,,,,,,,,,,More than half,Few,Some,None,Many,Half,All,Most,Less than half,0.468172743,-0.014188368,1,0,0,QQQ2,,,,,,,,English,2020-07-02_11h01.41.311,Experiment_English,3.2.4,MacIntel,60,,,,,,,,,,,,,,,,,,,,,1,0,340,80,1,339,ratio13_1_4_3.png,,,,,,,,,,,,
,,,,,,,,,,,,More than half,Less than half,Few,All,Many,Most,Some,None,Half,0.074023437,-0.038867187,1,0,0,QQQ5,,,,,,,,English,2020-07-02_11h01.41.311,Experiment_English,3.2.4,MacIntel,60,,,,,,,,,,,,,,,,,,,,,1,0,340,37,1,339,ratio11_9_18_8.png,,,,,,,,,,,,
,,,,,,,,,,,,Most,Half,Few,None,Many,Some,Less than half,All,More than half,0.005564236,-0.005190972,1,0,0,QQQ5,,,,,,,,English,2020-07-02_11h01.41.311,Experiment_English,3.2.4,MacIntel,60,,,,,,,,,,,,,,,,,,,,,1,0,340,258,1,339,ratio34_6_14_14.png,,,,,,,,,,,,
,,,,,,,,,,,,Most,Many,Less than half,All,Some,More than half,Half,None,Few,0.031892361,-0.333476563,1,0,0,QQQ6,,,,,,,,English,2020-07-02_11h01.41.311,Experiment_English,3.2.4,MacIntel,60,,,,,,,,,,,,,,,,,,,,,1,0,340,285,1,339,ratio43_4_7_14.png,,,,,,,,,,,,
,,,,,,,,,,,,None,Less than half,More than half,Most,Some,Few,Half,All,Many,0.006102431,-0.040138889,1,0,0,QQQ5,,,,,,,,English,2020-07-02_11h01.41.311,Experiment_English,3.2.4,MacIntel,60,,,,,,,,,,,,,,,,,,,,,1,0,340,5,1,339,ratio12_2_6_9.png,,,,,,,,,,,,
,,,,,,,,,,,,More than half,Many,Most,None,Few,Some,Half,All,Less than half,0.038051215,-0.046736111,1,0,0,QQQ5,,,,,,,,English,2020-07-02_11h01.41.311,Experiment_English,3.2.4,MacIntel,60,,,,,,,,,,,,,,,,,,,,,1,0,340,132,1,339,ratio15_2_12_16.png,,,,,,,,,,,,
,,,,,,,,,,,,Less than half,All,Some,Few,None,Many,More than half,Half,Most,0.413650174,0.285907118,1,0,0,QQQ1,,,,,,,,English,2020-07-02_11h01.41.311,Experiment_English,3.2.4,MacIntel,60,,,,,,,,,,,,,,,,,,,,,1,0,340,10,1,339,ratio12_4_12_4.png,,,,,,,,,,,,
,,,,,,,,,,,,More than half,Many,Some,Less than half,Few,All,Half,Most,None,-0.414548611,-0.021762153,1,0,0,QQQ8,,,,,,,,English,2020-07-02_11h01.41.311,Experiment_English,3.2.4,MacIntel,60,,,,,,,,,,,,,,,,,,,,,1,0,340,324,1,339,ratio91_9_10_7.png,,,,,,,,,,,,
,,,,,,,,,,,,Half,None,Many,Less than half,Most,More than half,Some,Few,All,0.044730903,-0.001236979,1,0,0,QQQ5,,,,,,,,English,2020-07-02_11h01.41.311,Experiment_English,3.2.4,MacIntel,60,,,,,,,,,,,,,,,,,,,,,1,0,340,204,1,339,ratio31_6_8_1.png,,,,,,,,,,,,
,,,,,,,,,,,,None,More than half,Few,Many,Less than half,All,Most,Some,Half,0.419522569,-0.334006076,1,0,0,QQQ3,,,,,,,,English,2020-07-02_11h01.41.311,Experiment_English,3.2.4,MacIntel,60,,,,,,,,,,,,,,,,,,,,,1,0,340,82,1,339,ratio13_1_4_7.png,,,,,,,,,,,,
,,,,,,,,,,,,Less than half,Few,All,More than half,Some,Half,None,Most,Many,-0.485177951,-0.286822917,1,0,0,QQQ9,,,,,,,,English,2020-07-02_11h01.41.311,Experiment_English,3.2.4,MacIntel,60,,,,,,,,,,,,,,,,,,,,,1,0,340,173,1,339,ratio21_8_12_9.png,,,,,,,,,,,,
,,,,,,,,,,,,Some,Most,Less than half,None,Half,Many,Few,More than half,All,0.438324653,-0.28671875,1,0,0,QQQ3,,,,,,,,English,2020-07-02_11h01.41.311,Experiment_English,3.2.4,MacIntel,60,,,,,,,,,,,,,,,,,,,,,1,0,340,259,1,339,ratio34_6_14_19.png,,,,,,,,,,,,
,,,,,,,,,,,,Some,All,Few,Most,Half,More than half,Many,Less than half,None,-0.528359375,-0.342539062,1,0,0,QQQ9,,,,,,,,English,2020-07-02_11h01.41.311,Experiment_English,3.2.4,MacIntel,60,,,,,,,,,,,,,,,,,,,,,1,0,340,73,1,339,ratio0Y_0_14_7.png,,,,,,,,,,,,
,,,,,,,,,,,,Half,Some,More than half,Few,Many,Most,All,None,Less than half,0.03952691,-0.276835938,1,0,0,QQQ6,,,,,,,,English,2020-07-02_11h01.41.311,Experiment_English,3.2.4,MacIntel,60,,,,,,,,,,,,,,,,,,,,,1,0,340,169,1,339,ratio21_6_9_7.png,,,,,,,,,,,,
,,,,,,,,,,,,None,Some,Half,Many,Most,More than half,Few,Less than half,All,-0.426037326,0.273233507,1,0,0,QQQ7,,,,,,,,English,2020-07-02_11h01.41.311,Experiment_English,3.2.4,MacIntel,60,,,,,,,,,,,,,,,,,,,,,1,0,340,145,1,339,ratio19_1_10_15.png,,,,,,,,,,,,
,,,,,,,,,,,,Few,Many,None,Half,More than half,All,Some,Most,Less than half,-0.046341146,-0.278602431,1,0,0,QQQ6,,,,,,,,English,2020-07-02_11h01.41.311,Experiment_English,3.2.4,MacIntel,60,,,,,,,,,,,,,,,,,,,,,1,0,340,54,1,339,ratioX0_15_15_5.png,,,,,,,,,,,,
,,,,,,,,,,,,More than half,Less than half,Few,Some,Most,All,None,Many,Half,0.51531684,0.016297743,1,0,0,QQQ2,,,,,,,,English,2020-07-02_11h01.41.311,Experiment_English,3.2.4,MacIntel,60,,,,,,,,,,,,,,,,,,,,,1,0,340,14,1,339,ratio12_5_15_4.png,,,,,,,,,,,,
,,,,,,,,,,,,None,Few,Half,More than half,Less than half,Most,Some,All,Many,-0.086319444,-0.372630208,1,0,0,QQQ6,,,,,,,,English,2020-07-02_11h01.41.311,Experiment_English,3.2.4,MacIntel,60,,,,,,,,,,,,,,,,,,,,,1,0,340,328,1,339,ratio91_9_10_15.png,,,,,,,,,,,,
,,,,,,,,,,,,More than half,All,Few,Some,Half,Less than half,None,Many,Most,-0.408845486,0.26562066,1,0,0,QQQ7,,,,,,,,English,2020-07-02_11h01.41.311,Experiment_English,3.2.4,MacIntel,60,,,,,,,,,,,,,,,,,,,,,1,0,340,68,1,339,ratio0Y_0_11_3.png,,,,,,,,,,,,
,,,,,,,,,,,,Most,More than half,All,Few,Some,Half,Many,None,Less than half,-0.406258681,0.262838542,1,0,0,QQQ7,,,,,,,,English,2020-07-02_11h01.41.311,Experiment_English,3.2.4,MacIntel,60,,,,,,,,,,,,,,,,,,,,,1,0,340,274,1,339,ratio41_12_15_9.png,,,,,,,,,,,,
,,,,,,,,,,,,None,Half,More than half,Most,Less than half,Many,All,Few,Some,-0.051818576,-0.040438368,1,0,0,QQQ5,,,,,,,,English,2020-07-02_11h01.41.311,Experiment_English,3.2.4,MacIntel,60,,,,,,,,,,,,,,,,,,,,,1,0,340,248,1,339,ratio34_3_7_19.png,,,,,,,,,,,,
,,,,,,,,,,,,Many,More than half,All,None,Less than half,Half,Some,Most,Few,-0.456727431,-0.090421007,1,0,0,QQQ8,,,,,,,,English,2020-07-02_11h01.41.311,Experiment_English,3.2.4,MacIntel,60,,,,,,,,,,,,,,,,,,,,,1,0,340,305,1,339,ratio51_5_6_14.png,,,,,,,,,,,,
,,,,,,,,,,,,Few,Many,All,None,More than half,Less than half,Most,Half,Some,-0.428715278,0.303098958,1,0,0,QQQ7,,,,,,,,English,2020-07-02_11h01.41.311,Experiment_English,3.2.4,MacIntel,60,,,,,,,,,,,,,,,,,,,,,1,0,340,314,1,339,ratio51_15_18_4.png,,,,,,,,,,,,
,,,,,,,,,,,,Less than half,More than half,Most,Few,Half,None,All,Many,Some,0.44062934,-0.05671441,1,0,0,QQQ2,,,,,,,,English,2020-07-02_11h01.41.311,Experiment_English,3.2.4,MacIntel,60,,,,,,,,,,,,,,,,,,,,,1,0,340,206,1,339,ratio31_6_8_6.png,,,,,,,,,,,,
,,,,,,,,,,,,More than half,Most,Many,Few,Some,None,All,Less than half,Half,0.088515625,0.258515625,1,0,0,QQQ4,,,,,,,,English,2020-07-02_11h01.41.311,Experiment_English,3.2.4,MacIntel,60,,,,,,,,,,,,,,,,,,,,,1,0,340,135,1,339,ratio15_3_18_7.png,,,,,,,,,,,,
,,,,,,,,,,,,More than half,All,Many,Less than half,Some,Half,None,Most,Few,0.435842014,-0.335390625,1,0,0,QQQ3,,,,,,,,English,2020-07-02_11h01.41.311,Experiment_English,3.2.4,MacIntel,60,,,,,,,,,,,,,,,,,,,,,1,0,340,309,1,339,ratio51_10_12_10.png,,,,,,,,,,,,
,,,,,,,,,,,,Half,All,Most,Few,None,Less than half,Some,Many,More than half,0.123867188,0.250859375,1,0,0,QQQ4,,,,,,,,English,2020-07-02_11h01.41.311,Experiment_English,3.2.4,MacIntel,60,,,,,,,,,,,,,,,,,,,,,1,0,340,157,1,339,ratio19_2_20_16.png,0.281940104,-0.408528646,1,0,0,continue_button_pause,1,0,1,0,1,0
,,,,,,,,,,,,,,,,,,,,,,,,,,,,,,,,,,English,2020-07-02_11h01.41.311,Experiment_English,3.2.4,MacIntel,60,,,,,,,,,,,,,,,,,,,,,1,0,340,157,1,339,ratio19_2_20_16.png,,,,,,,,,,,,
,,,,,,,,,,,,More than half,Some,Many,None,All,Few,Half,Most,Less than half,0.443246528,0.334366319,1,0,0,QQQ1,,,,,,,,English,2020-07-02_11h01.41.311,Experiment_English,3.2.4,MacIntel,60,,,,,,,,,,,,,,,,,,,,,1,0,340,231,1,339,ratio32_9_15_2.png,,,,,,,,,,,,
,,,,,,,,,,,,Some,Most,Less than half,Half,More than half,None,Few,All,Many,0.484296875,-0.064140625,1,0,0,QQQ2,,,,,,,,English,2020-07-02_11h01.41.311,Experiment_English,3.2.4,MacIntel,60,,,,,,,,,,,,,,,,,,,,,1,0,340,280,1,339,ratio43_4_7_2.png,,,,,,,,,,,,
,,,,,,,,,,,,Many,All,Few,Most,More than half,None,Less than half,Half,Some,0.366059028,-0.306445313,1,0,0,QQQ3,,,,,,,,English,2020-07-02_11h01.41.311,Experiment_English,3.2.4,MacIntel,60,,,,,,,,,,,,,,,,,,,,,1,0,340,89,1,339,ratio13_3_12_6.png,,,,,,,,,,,,
,,,,,,,,,,,,Most,More than half,Half,None,Many,Few,Some,All,Less than half,0.438359375,0.241987847,1,0,0,QQQ1,,,,,,,,English,2020-07-02_11h01.41.311,Experiment_English,3.2.4,MacIntel,60,,,,,,,,,,,,,,,,,,,,,1,0,340,201,1,339,ratio31_3_4_7.png,,,,,,,,,,,,
,,,,,,,,,,,,Some,Many,More than half,Less than half,Few,All,Most,None,Half,-0.381848958,-0.255499132,1,0,0,QQQ9,,,,,,,,English,2020-07-02_11h01.41.311,Experiment_English,3.2.4,MacIntel,60,,,,,,,,,,,,,,,,,,,,,1,0,340,299,1,339,ratio43_8_14_17.png,,,,,,,,,,,,
,,,,,,,,,,,,Less than half,Many,More than half,Some,Few,None,All,Half,Most,0.508658854,-0.032599826,1,0,0,QQQ2,,,,,,,,English,2020-07-02_11h01.41.311,Experiment_English,3.2.4,MacIntel,60,,,,,,,,,,,,,,,,,,,,,1,0,340,307,1,339,ratio51_10_12_1.png,,,,,,,,,,,,
,,,,,,,,,,,,Some,None,More than half,Less than half,Few,Many,Half,All,Most,-0.397552083,0.005928819,1,0,0,QQQ8,,,,,,,,English,2020-07-02_11h01.41.311,Experiment_English,3.2.4,MacIntel,60,,,,,,,,,,,,,,,,,,,,,1,0,340,55,1,339,ratioX0_16_16_3.png,,,,,,,,,,,,
,,,,,,,,,,,,None,Half,Few,All,Some,More than half,Less than half,Many,Most,0.41296875,-0.287773438,1,0,0,QQQ3,,,,,,,,English,2020-07-02_11h01.41.311,Experiment_English,3.2.4,MacIntel,60,,,,,,,,,,,,,,,,,,,,,1,0,340,4,1,339,ratio12_2_6_5.png,,,,,,,,,,,,
,,,,,,,,,,,,More than half,All,Few,Half,Some,Many,None,Less than half,Most,-0.452703993,-0.344457465,1,0,0,QQQ9,,,,,,,,English,2020-07-02_11h01.41.311,Experiment_English,3.2.4,MacIntel,60,,,,,,,,,,,,,,,,,,,,,1,0,340,175,1,339,ratio21_10_15_2.png,,,,,,,,,,,,
,,,,,,,,,,,,All,Less than half,Most,More than half,Half,Many,Some,None,Few,-0.037460937,0.220868056,1,0,0,QQQ4,,,,,,,,English,2020-07-02_11h01.41.311,Experiment_English,3.2.4,MacIntel,60,,,,,,,,,,,,,,,,,,,,,1,0,340,232,1,339,ratio32_9_15_8.png,,,,,,,,,,,,
,,,,,,,,,,,,Most,Some,More than half,Less than half,None,Half,Few,All,Many,-0.379600694,0.249522569,1,0,0,QQQ7,,,,,,,,English,2020-07-02_11h01.41.311,Experiment_English,3.2.4,MacIntel,60,,,,,,,,,,,,,,,,,,,,,1,0,340,141,1,339,ratio19_1_10_2.png,,,,,,,,,,,,
,,,,,,,,,,,,Some,Few,All,None,Less than half,Many,Half,More than half,Most,-0.458029514,0.319483507,1,0,0,QQQ7,,,,,,,,English,2020-07-02_11h01.41.311,Experiment_English,3.2.4,MacIntel,60,,,,,,,,,,,,,,,,,,,,,1,0,340,36,1,339,ratio11_9_18_1.png,,,,,,,,,,,,
,,,,,,,,,,,,Few,Most,All,Some,Many,More than half,Less than half,Half,None,0.486028646,0.006384549,1,0,0,QQQ2,,,,,,,,English,2020-07-02_11h01.41.311,Experiment_English,3.2.4,MacIntel,60,,,,,,,,,,,,,,,,,,,,,1,0,340,317,1,339,ratio51_15_18_13.png,,,,,,,,,,,,
,,,,,,,,,,,,Less than half,Some,Half,All,More than half,None,Many,Few,Most,-0.389622396,-0.326072049,1,0,0,QQQ9,,,,,,,,English,2020-07-02_11h01.41.311,Experiment_English,3.2.4,MacIntel,60,,,,,,,,,,,,,,,,,,,,,1,0,340,215,1,339,ratio31_12_16_8.png,,,,,,,,,,,,
,,,,,,,,,,,,Most,Many,Some,None,Half,Less than half,All,Few,More than half,-0.475177951,-0.031631944,1,0,0,QQQ8,,,,,,,,English,2020-07-02_11h01.41.311,Experiment_English,3.2.4,MacIntel,60,,,,,,,,,,,,,,,,,,,,,1,0,340,156,1,339,ratio19_2_20_14.png,,,,,,,,,,,,
,,,,,,,,,,,,More than half,Some,Many,Few,None,Most,Less than half,All,Half,-0.031523438,0.256449653,1,0,0,QQQ4,,,,,,,,English,2020-07-02_11h01.41.311,Experiment_English,3.2.4,MacIntel,60,,,,,,,,,,,,,,,,,,,,,1,0,340,130,1,339,ratio15_2_12_12.png,,,,,,,,,,,,
,,,,,,,,,,,,Half,Less than half,Many,Few,All,None,More than half,Some,Most,-0.089713542,0.226927083,1,0,0,QQQ4,,,,,,,,English,2020-07-02_11h01.41.311,Experiment_English,3.2.4,MacIntel,60,,,,,,,,,,,,,,,,,,,,,1,0,340,111,1,339,ratio14_3_15_3.png,,,,,,,,,,,,
,,,,,,,,,,,,Most,Many,Some,More than half,None,Half,Few,Less than half,All,0.073832465,0.241944444,1,0,0,QQQ4,,,,,,,,English,2020-07-02_11h01.41.311,Experiment_English,3.2.4,MacIntel,60,,,,,,,,,,,,,,,,,,,,,1,0,340,222,1,339,ratio32_3_5_4.png,,,,,,,,,,,,
,,,,,,,,,,,,More than half,Less than half,None,Some,Many,Few,Most,Half,All,0.048151042,-0.274826389,1,0,0,QQQ6,,,,,,,,English,2020-07-02_11h01.41.311,Experiment_English,3.2.4,MacIntel,60,,,,,,,,,,,,,,,,,,,,,1,0,340,9,1,339,ratio12_3_9_5.png,,,,,,,,,,,,
,,,,,,,,,,,,None,Half,Many,Some,Less than half,All,Few,More than half,Most,0.384791667,-0.060980903,1,0,0,QQQ2,,,,,,,,English,2020-07-02_11h01.41.311,Experiment_English,3.2.4,MacIntel,60,,,,,,,,,,,,,,,,,,,,,1,0,340,196,1,339,ratio23_8_20_5.png,,,,,,,,,,,,
,,,,,,,,,,,,More than half,Less than half,All,None,Most,Few,Many,Half,Some,-0.089661458,-0.326792535,1,0,0,QQQ6,,,,,,,,English,2020-07-02_11h01.41.311,Experiment_English,3.2.4,MacIntel,60,,,,,,,,,,,,,,,,,,,,,1,0,340,131,1,339,ratio15_2_12_14.png,,,,,,,,,,,,
,,,,,,,,,,,,Less than half,Most,All,Half,More than half,Some,Few,None,Many,-0.054934896,-0.006914063,1,0,0,QQQ5,,,,,,,,English,2020-07-02_11h01.41.311,Experiment_English,3.2.4,MacIntel,60,,,,,,,,,,,,,,,,,,,,,1,0,340,289,1,339,ratio43_4_7_20.png,,,,,,,,,,,,
,,,,,,,,,,,,All,More than half,Many,None,Most,Less than half,Some,Few,Half,-0.391744792,0.233967014,1,0,0,QQQ7,,,,,,,,English,2020-07-02_11h01.41.311,Experiment_English,3.2.4,MacIntel,60,,,,,,,,,,,,,,,,,,,,,1,0,340,133,1,339,ratio15_3_18_3.png,,,,,,,,,,,,
,,,,,,,,,,,,Most,All,Less than half,More than half,None,Few,Half,Many,Some,0.45984375,-0.357421875,1,0,0,QQQ3,,,,,,,,English,2020-07-02_11h01.41.311,Experiment_English,3.2.4,MacIntel,60,,,,,,,,,,,,,,,,,,,,,1,0,340,6,1,339,ratio12_3_9_1.png,,,,,,,,,,,,
,,,,,,,,,,,,More than half,Few,All,Most,Many,None,Less than half,Half,Some,0.394422743,-0.350203993,1,0,0,QQQ3,,,,,,,,English,2020-07-02_11h01.41.311,Experiment_English,3.2.4,MacIntel,60,,,,,,,,,,,,,,,,,,,,,1,0,340,44,1,339,ratioX0_7_7_5.png,,,,,,,,,,,,
,,,,,,,,,,,,More than half,Few,Most,Many,All,None,Less than half,Some,Half,0.439613715,-0.2690625,1,0,0,QQQ3,,,,,,,,English,2020-07-02_11h01.41.311,Experiment_English,3.2.4,MacIntel,60,,,,,,,,,,,,,,,,,,,,,1,0,340,214,1,339,ratio31_12_16_5.png,,,,,,,,,,,,
,,,,,,,,,,,,Many,None,Some,Less than half,Most,More than half,Half,Few,All,-0.004097222,0.295885417,1,0,0,QQQ4,,,,,,,,English,2020-07-02_11h01.41.311,Experiment_English,3.2.4,MacIntel,60,,,,,,,,,,,,,,,,,,,,,1,0,340,249,1,339,ratio34_3_7_20.png,,,,,,,,,,,,
,,,,,,,,,,,,Half,All,Some,Less than half,Few,None,Most,More than half,Many,-0.459253472,0.230551215,1,0,0,QQQ7,,,,,,,,English,2020-07-02_11h01.41.311,Experiment_English,3.2.4,MacIntel,60,,,,,,,,,,,,,,,,,,,,,1,0,340,261,1,339,ratio41_4_5_3.png,,,,,,,,,,,,
,,,,,,,,,,,,Many,Most,Half,More than half,Few,Less than half,All,None,Some,0.434422743,0.271901042,1,0,0,QQQ1,,,,,,,,English,2020-07-02_11h01.41.311,Experiment_English,3.2.4,MacIntel,60,,,,,,,,,,,,,,,,,,,,,1,0,340,210,1,339,ratio31_9_12_9.png,,,,,,,,,,,,
,,,,,,,,,,,,Less than half,Half,None,Some,Many,More than half,All,Few,Most,-0.428059896,0.013446181,1,0,0,QQQ8,,,,,,,,English,2020-07-02_11h01.41.311,Experiment_English,3.2.4,MacIntel,60,,,,,,,,,,,,,,,,,,,,,1,0,340,100,1,339,ratio14_1_5_3.png,,,,,,,,,,,,
,,,,,,,,,,,,Many,None,Less than half,Few,Some,More than half,All,Half,Most,0.447161458,-0.309769965,1,0,0,QQQ3,,,,,,,,English,2020-07-02_11h01.41.311,Experiment_English,3.2.4,MacIntel,60,,,,,,,,,,,,,,,,,,,,,1,0,340,198,1,339,ratio23_8_20_7.png,,,,,,,,,,,,
,,,,,,,,,,,,Some,Half,More than half,Few,None,All,Many,Most,Less than half,-0.037408854,0.287517361,1,0,0,QQQ4,,,,,,,,English,2020-07-02_11h01.41.311,Experiment_English,3.2.4,MacIntel,60,,,,,,,,,,,,,,,,,,,,,1,0,340,181,1,339,ratio23_2_5_6.png,,,,,,,,,,,,
,,,,,,,,,,,,All,Few,Many,Less than half,Most,Half,More than half,None,Some,0.390616319,-0.039288194,1,0,0,QQQ2,,,,,,,,English,2020-07-02_11h01.41.311,Experiment_English,3.2.4,MacIntel,60,,,,,,,,,,,,,,,,,,,,,1,0,340,104,1,339,ratio14_1_5_10.png,,,,,,,,,,,,
,,,,,,,,,,,,None,Some,Many,Half,Few,Less than half,All,More than half,Most,0.434292535,-0.284049479,1,0,0,QQQ3,,,,,,,,English,2020-07-02_11h01.41.311,Experiment_English,3.2.4,MacIntel,60,,,,,,,,,,,,,,,,,,,,,1,0,340,323,1,339,ratio91_9_10_5.png,0.302877604,-0.423164062,1,0,0,continue_button_pause,1,0,1,0,1,0
,,,,,,,,,,,,,,,,,,,,,,,,,,,,,,,,,,English,2020-07-02_11h01.41.311,Experiment_English,3.2.4,MacIntel,60,,,,,,,,,,,,,,,,,,,,,1,0,340,323,1,339,ratio91_9_10_5.png,,,,,,,,,,,,
,,,,,,,,,,,,Some,More than half,Less than half,All,None,Most,Half,Many,Few,-0.377994792,-0.275364583,1,0,0,QQQ9,,,,,,,,English,2020-07-02_11h01.41.311,Experiment_English,3.2.4,MacIntel,60,,,,,,,,,,,,,,,,,,,,,1,0,340,158,1,339,ratio19_2_20_17.png,,,,,,,,,,,,
,,,,,,,,,,,,None,Some,Most,Many,More than half,Less than half,Half,Few,All,-0.058085937,-0.262269965,1,0,0,QQQ6,,,,,,,,English,2020-07-02_11h01.41.311,Experiment_English,3.2.4,MacIntel,60,,,,,,,,,,,,,,,,,,,,,1,0,340,84,1,339,ratio13_2_8_1.png,,,,,,,,,,,,
,,,,,,,,,,,,Many,Some,Half,All,Most,More than half,None,Few,Less than half,-0.013645833,-0.000130208,1,0,0,QQQ5,,,,,,,,English,2020-07-02_11h01.41.311,Experiment_English,3.2.4,MacIntel,60,,,,,,,,,,,,,,,,,,,,,1,0,340,207,1,339,ratio31_6_8_9.png,,,,,,,,,,,,
,,,,,,,,,,,,None,Many,Some,Few,Most,More than half,All,Less than half,Half,0.031892361,-0.05249566,1,0,0,QQQ5,,,,,,,,English,2020-07-02_11h01.41.311,Experiment_English,3.2.4,MacIntel,60,,,,,,,,,,,,,,,,,,,,,1,0,340,306,1,339,ratio51_5_6_18.png,,,,,,,,,,,,
,,,,,,,,,,,,Many,All,More than half,Less than half,Few,Some,Half,None,Most,-0.475976562,0.240881076,1,0,0,QQQ7,,,,,,,,English,2020-07-02_11h01.41.311,Experiment_English,3.2.4,MacIntel,60,,,,,,,,,,,,,,,,,,,,,1,0,340,192,1,339,ratio23_6_15_8.png,,,,,,,,,,,,
,,,,,,,,,,,,More than half,Less than half,Few,Most,None,All,Some,Half,Many,-0.477439236,0.239162326,1,0,0,QQQ7,,,,,,,,English,2020-07-02_11h01.41.311,Experiment_English,3.2.4,MacIntel,60,,,,,,,,,,,,,,,,,,,,,1,0,340,128,1,339,ratio15_2_12_8.png,,,,,,,,,,,,
,,,,,,,,,,,,Many,Less than half,None,All,Half,More than half,Most,Few,Some,-0.454019097,-0.002708333,1,0,0,QQQ8,,,,,,,,English,2020-07-02_11h01.41.311,Experiment_English,3.2.4,MacIntel,60,,,,,,,,,,,,,,,,,,,,,1,0,340,153,1,339,ratio19_2_20_8.png,,,,,,,,,,,,
,,,,,,,,,,,,Many,Most,Few,All,None,Half,Less than half,More than half,Some,0.409570312,-0.268033854,1,0,0,QQQ3,,,,,,,,English,2020-07-02_11h01.41.311,Experiment_English,3.2.4,MacIntel,60,,,,,,,,,,,,,,,,,,,,,1,0,340,102,1,339,ratio14_1_5_8.png,,,,,,,,,,,,
,,,,,,,,,,,,None,Many,Most,More than half,All,Half,Some,Less than half,Few,-0.036384549,-0.306740451,1,0,0,QQQ6,,,,,,,,English,2020-07-02_11h01.41.311,Experiment_English,3.2.4,MacIntel,60,,,,,,,,,,,,,,,,,,,,,1,0,340,38,1,339,ratio11_10_20_5.png,,,,,,,,,,,,
,,,,,,,,,,,,More than half,Less than half,Few,Most,Some,All,Half,None,Many,-0.35171441,-0.012256944,1,0,0,QQQ8,,,,,,,,English,2020-07-02_11h01.41.311,Experiment_English,3.2.4,MacIntel,60,,,,,,,,,,,,,,,,,,,,,1,0,340,61,1,339,ratio0Y_0_4_7.png,,,,,,,,,,,,
,,,,,,,,,,,,Many,Most,More than half,Some,Few,Less than half,None,Half,All,-0.033680556,0.007083333,1,0,0,QQQ5,,,,,,,,English,2020-07-02_11h01.41.311,Experiment_English,3.2.4,MacIntel,60,,,,,,,,,,,,,,,,,,,,,1,0,340,147,1,339,ratio19_1_10_18.png,,,,,,,,,,,,
,,,,,,,,,,,,Less than half,Some,Few,Half,None,All,More than half,Many,Most,0.422391493,0.289453125,1,0,0,QQQ1,,,,,,,,English,2020-07-02_11h01.41.311,Experiment_English,3.2.4,MacIntel,60,,,,,,,,,,,,,,,,,,,,,1,0,340,11,1,339,ratio12_4_12_7.png,,,,,,,,,,,,
,,,,,,,,,,,,All,Few,Half,More than half,None,Many,Most,Some,Less than half,0.058012153,0.344739583,1,0,0,QQQ4,,,,,,,,English,2020-07-02_11h01.41.311,Experiment_English,3.2.4,MacIntel,60,,,,,,,,,,,,,,,,,,,,,1,0,340,227,1,339,ratio32_6_10_6.png,,,,,,,,,,,,
,,,,,,,,,,,,None,Many,All,Some,Most,Less than half,More than half,Few,Half,-0.493945313,0.332860243,1,0,0,QQQ7,,,,,,,,English,2020-07-02_11h01.41.311,Experiment_English,3.2.4,MacIntel,60,,,,,,,,,,,,,,,,,,,,,1,0,340,19,1,339,ratio12_6_18_9.png,,,,,,,,,,,,
,,,,,,,,,,,,Many,Less than half,Half,None,Most,Some,More than half,Few,All,0.402209201,-0.282296007,1,0,0,QQQ3,,,,,,,,English,2020-07-02_11h01.41.311,Experiment_English,3.2.4,MacIntel,60,,,,,,,,,,,,,,,,,,,,,1,0,340,238,1,339,ratio32_12_20_9.png,,,,,,,,,,,,
,,,,,,,,,,,,None,More than half,Some,Half,Few,All,Most,Less than half,Many,0.038511285,-0.022057292,1,0,0,QQQ5,,,,,,,,English,2020-07-02_11h01.41.311,Experiment_English,3.2.4,MacIntel,60,,,,,,,,,,,,,,,,,,,,,1,0,340,127,1,339,ratio15_2_12_2.png,,,,,,,,,,,,
,,,,,,,,,,,,Some,Most,Many,Few,Half,All,More than half,None,Less than half,-0.438216146,0.27421441,1,0,0,QQQ7,,,,,,,,English,2020-07-02_11h01.41.311,Experiment_English,3.2.4,MacIntel,60,,,,,,,,,,,,,,,,,,,,,1,0,340,298,1,339,ratio43_8_14_14.png,,,,,,,,,,,,
,,,,,,,,,,,,More than half,Most,All,Half,Some,Few,Many,Less than half,None,0.579027778,0.357078993,1,0,0,QQQ1,,,,,,,,English,2020-07-02_11h01.41.311,Experiment_English,3.2.4,MacIntel,60,,,,,,,,,,,,,,,,,,,,,1,0,340,292,1,339,ratio43_8_14_6.png,,,,,,,,,,,,
,,,,,,,,,,,,Some,Half,Few,More than half,None,Less than half,All,Many,Most,0.434388021,-0.292521701,1,0,0,QQQ3,,,,,,,,English,2020-07-02_11h01.41.311,Experiment_English,3.2.4,MacIntel,60,,,,,,,,,,,,,,,,,,,,,1,0,340,101,1,339,ratio14_1_5_7.png,,,,,,,,,,,,
,,,,,,,,,,,,More than half,Some,Few,None,Most,Many,All,Less than half,Half,-0.391158854,0.011423611,1,0,0,QQQ8,,,,,,,,English,2020-07-02_11h01.41.311,Experiment_English,3.2.4,MacIntel,60,,,,,,,,,,,,,,,,,,,,,1,0,340,25,1,339,ratio11_4_8_10.png,,,,,,,,,,,,
,,,,,,,,,,,,More than half,Most,None,Less than half,Some,Many,All,Half,Few,0.000264757,-0.288919271,1,0,0,QQQ6,,,,,,,,English,2020-07-02_11h01.41.311,Experiment_English,3.2.4,MacIntel,60,,,,,,,,,,,,,,,,,,,,,1,0,340,219,1,339,ratio31_15_20_10.png,,,,,,,,,,,,
,,,,,,,,,,,,Some,Half,Few,Many,Less than half,None,More than half,All,Most,-0.035972222,0.227526042,1,0,0,QQQ4,,,,,,,,English,2020-07-02_11h01.41.311,Experiment_English,3.2.4,MacIntel,60,,,,,,,,,,,,,,,,,,,,,1,0,340,171,1,339,ratio21_8_12_4.png,,,,,,,,,,,,
,,,,,,,,,,,,Half,Many,Most,Less than half,Few,None,All,Some,More than half,-0.397070313,-0.264956597,1,0,0,QQQ9,,,,,,,,English,2020-07-02_11h01.41.311,Experiment_English,3.2.4,MacIntel,60,,,,,,,,,,,,,,,,,,,,,1,0,340,234,1,339,ratio32_9_15_10.png,,,,,,,,,,,,
,,,,,,,,,,,,All,Many,Most,None,Few,Less than half,More than half,Some,Half,-0.403871528,0.256462674,1,0,0,QQQ7,,,,,,,,English,2020-07-02_11h01.41.311,Experiment_English,3.2.4,MacIntel,60,,,,,,,,,,,,,,,,,,,,,1,0,340,288,1,339,ratio43_4_7_18.png,,,,,,,,,,,,
,,,,,,,,,,,,All,More than half,Few,Half,None,Many,Most,Some,Less than half,-0.093962674,-0.271015625,1,0,0,QQQ6,,,,,,,,English,2020-07-02_11h01.41.311,Experiment_English,3.2.4,MacIntel,60,,,,,,,,,,,,,,,,,,,,,1,0,340,291,1,339,ratio43_8_14_5.png,,,,,,,,,,,,
,,,,,,,,,,,,More than half,Half,Many,Some,All,None,Most,Few,Less than half,0.029175347,0.308676215,1,0,0,QQQ4,,,,,,,,English,2020-07-02_11h01.41.311,Experiment_English,3.2.4,MacIntel,60,,,,,,,,,,,,,,,,,,,,,1,0,340,138,1,339,ratio15_3_18_17.png,,,,,,,,,,,,
,,,,,,,,,,,,All,Few,Many,None,Less than half,Half,Most,Some,More than half,0.411501736,-0.045195313,1,0,0,QQQ2,,,,,,,,English,2020-07-02_11h01.41.311,Experiment_English,3.2.4,MacIntel,60,,,,,,,,,,,,,,,,,,,,,1,0,340,200,1,339,ratio31_3_4_4.png,,,,,,,,,,,,
,,,,,,,,,,,,Few,Some,All,Most,More than half,Half,Many,Less than half,None,-0.008155382,-0.318263889,1,0,0,QQQ6,,,,,,,,English,2020-07-02_11h01.41.311,Experiment_English,3.2.4,MacIntel,60,,,,,,,,,,,,,,,,,,,,,1,0,340,226,1,339,ratio32_6_10_5.png,,,,,,,,,,,,
,,,,,,,,,,,,More than half,Few,Half,Less than half,Some,Most,Many,All,None,0.479414063,0.219084201,1,0,0,QQQ1,,,,,,,,English,2020-07-02_11h01.41.311,Experiment_English,3.2.4,MacIntel,60,,,,,,,,,,,,,,,,,,,,,1,0,340,26,1,339,ratio11_5_10_4.png,,,,,,,,,,,,
,,,,,,,,,,,,Most,Less than half,Half,Some,More than half,Few,All,Many,None,-0.007105035,0.243619792,1,0,0,QQQ4,,,,,,,,English,2020-07-02_11h01.41.311,Experiment_English,3.2.4,MacIntel,60,,,,,,,,,,,,,,,,,,,,,1,0,340,203,1,339,ratio31_3_4_9.png,,,,,,,,,,,,
,,,,,,,,,,,,More than half,Some,Many,Less than half,Most,Few,All,None,Half,0.357634549,-0.287586806,1,0,0,QQQ3,,,,,,,,English,2020-07-02_11h01.41.311,Experiment_English,3.2.4,MacIntel,60,,,,,,,,,,,,,,,,,,,,,1,0,340,209,1,339,ratio31_9_12_6.png,,,,,,,,,,,,
,,,,,,,,,,,,Few,Less than half,Some,None,Half,All,More than half,Most,Many,0.424474826,0.255603299,1,0,0,QQQ1,,,,,,,,English,2020-07-02_11h01.41.311,Experiment_English,3.2.4,MacIntel,60,,,,,,,,,,,,,,,,,,,,,1,0,340,91,1,339,ratio13_3_12_10.png,,,,,,,,,,,,
,,,,,,,,,,,,More than half,All,Less than half,None,Few,Half,Many,Most,Some,-0.454427083,-0.083489583,1,0,0,QQQ8,,,,,,,,English,2020-07-02_11h01.41.311,Experiment_English,3.2.4,MacIntel,60,,,,,,,,,,,,,,,,,,,,,1,0,340,262,1,339,ratio41_4_5_4.png,,,,,,,,,,,,
,,,,,,,,,,,,Less than half,Most,All,Half,Few,Some,None,More than half,Many,0.454752604,0.021054687,1,0,0,QQQ2,,,,,,,,English,2020-07-02_11h01.41.311,Experiment_English,3.2.4,MacIntel,60,,,,,,,,,,,,,,,,,,,,,1,0,340,333,1,339,ratio91_18_20_6.png,0.443663194,-0.413068576,1,0,0,continue_button_pause,1,0,1,0,1,0
,,,,,,,,,,,,,,,,,,,,,,,,,,,,,,,,,,English,2020-07-02_11h01.41.311,Experiment_English,3.2.4,MacIntel,60,,,,,,,,,,,,,,,,,,,,,1,0,340,333,1,339,ratio91_18_20_6.png,,,,,,,,,,,,
,,,,,,,,,,,,Many,Few,More than half,Some,Half,All,Less than half,Most,None,-0.438263889,-0.03562066,1,0,0,QQQ8,,,,,,,,English,2020-07-02_11h01.41.311,Experiment_English,3.2.4,MacIntel,60,,,,,,,,,,,,,,,,,,,,,1,0,340,273,1,339,ratio41_12_15_8.png,,,,,,,,,,,,
,,,,,,,,,,,,Some,None,Few,Many,Most,All,Less than half,Half,More than half,-0.074765625,0.000989583,1,0,0,QQQ5,,,,,,,,English,2020-07-02_11h01.41.311,Experiment_English,3.2.4,MacIntel,60,,,,,,,,,,,,,,,,,,,,,1,0,340,277,1,339,ratio41_16_20_8.png,,,,,,,,,,,,
,,,,,,,,,,,,Many,Few,Less than half,Most,None,Some,All,Half,More than half,0.058320312,0.284144965,1,0,0,QQQ4,,,,,,,,English,2020-07-02_11h01.41.311,Experiment_English,3.2.4,MacIntel,60,,,,,,,,,,,,,,,,,,,,,1,0,340,322,1,339,ratio91_9_10_3.png,,,,,,,,,,,,
,,,,,,,,,,,,None,Few,All,Some,Most,Less than half,Half,Many,More than half,-0.454717882,-0.046779514,1,0,0,QQQ8,,,,,,,,English,2020-07-02_11h01.41.311,Experiment_English,3.2.4,MacIntel,60,,,,,,,,,,,,,,,,,,,,,1,0,340,271,1,339,ratio41_12_15_6.png,,,,,,,,,,,,
,,,,,,,,,,,,None,Most,Half,Some,Less than half,Few,Many,More than half,All,-0.080108507,0.266310764,1,0,0,QQQ4,,,,,,,,English,2020-07-02_11h01.41.311,Experiment_English,3.2.4,MacIntel,60,,,,,,,,,,,,,,,,,,,,,1,0,340,99,1,339,ratio13_5_20_4.png,,,,,,,,,,,,
,,,,,,,,,,,,Few,Some,More than half,Many,Less than half,All,None,Most,Half,0.409874132,-0.019440104,1,0,0,QQQ2,,,,,,,,English,2020-07-02_11h01.41.311,Experiment_English,3.2.4,MacIntel,60,,,,,,,,,,,,,,,,,,,,,1,0,340,136,1,339,ratio15_3_18_8.png,,,,,,,,,,,,
,,,,,,,,,,,,Few,Most,None,Many,Some,Less than half,All,Half,More than half,0.055959201,0.306792535,1,0,0,QQQ4,,,,,,,,English,2020-07-02_11h01.41.311,Experiment_English,3.2.4,MacIntel,60,,,,,,,,,,,,,,,,,,,,,1,0,340,332,1,339,ratio91_18_20_4.png,,,,,,,,,,,,
,,,,,,,,,,,,Half,Few,All,None,Most,Less than half,Many,More than half,Some,0.427751736,0.328563368,1,0,0,QQQ1,,,,,,,,English,2020-07-02_11h01.41.311,Experiment_English,3.2.4,MacIntel,60,,,,,,,,,,,,,,,,,,,,,1,0,340,245,1,339,ratio34_3_7_10.png,,,,,,,,,,,,
,,,,,,,,,,,,All,Less than half,More than half,Most,Some,None,Half,Few,Many,-0.040655382,-0.006623264,1,0,0,QQQ5,,,,,,,,English,2020-07-02_11h01.41.311,Experiment_English,3.2.4,MacIntel,60,,,,,,,,,,,,,,,,,,,,,1,0,340,134,1,339,ratio15_3_18_5.png,,,,,,,,,,,,
,,,,,,,,,,,,More than half,Few,All,Some,Many,None,Most,Half,Less than half,-0.353116319,-0.299045139,1,0,0,QQQ9,,,,,,,,English,2020-07-02_11h01.41.311,Experiment_English,3.2.4,MacIntel,60,,,,,,,,,,,,,,,,,,,,,1,0,340,3,1,339,ratio12_2_6_3.png,,,,,,,,,,,,
,,,,,,,,,,,,Few,Some,Most,None,More than half,All,Many,Half,Less than half,-0.450772569,-0.278025174,1,0,0,QQQ9,,,,,,,,English,2020-07-02_11h01.41.311,Experiment_English,3.2.4,MacIntel,60,,,,,,,,,,,,,,,,,,,,,1,0,340,284,1,339,ratio43_4_7_11.png,,,,,,,,,,,,
,,,,,,,,,,,,Few,Most,None,Some,Half,All,More than half,Many,Less than half,0.084479167,-0.274309896,1,0,0,QQQ6,,,,,,,,English,2020-07-02_11h01.41.311,Experiment_English,3.2.4,MacIntel,60,,,,,,,,,,,,,,,,,,,,,1,0,340,46,1,339,ratioX0_9_9_3.png,,,,,,,,,,,,
,,,,,,,,,,,,All,Few,Less than half,More than half,Half,Most,Many,Some,None,-0.019826389,-0.311241319,1,0,0,QQQ6,,,,,,,,English,2020-07-02_11h01.41.311,Experiment_English,3.2.4,MacIntel,60,,,,,,,,,,,,,,,,,,,,,1,0,340,326,1,339,ratio91_9_10_10.png,,,,,,,,,,,,
,,,,,,,,,,,,Many,Some,All,More than half,Less than half,None,Half,Most,Few,-0.035130208,0.226458333,1,0,0,QQQ4,,,,,,,,English,2020-07-02_11h01.41.311,Experiment_English,3.2.4,MacIntel,60,,,,,,,,,,,,,,,,,,,,,1,0,340,283,1,339,ratio43_4_7_8.png,,,,,,,,,,,,
,,,,,,,,,,,,Many,Some,Half,Most,Few,Less than half,More than half,All,None,0.422165799,0.264197049,1,0,0,QQQ1,,,,,,,,English,2020-07-02_11h01.41.311,Experiment_English,3.2.4,MacIntel,60,,,,,,,,,,,,,,,,,,,,,1,0,340,310,1,339,ratio51_10_12_12.png,,,,,,,,,,,,
,,,,,,,,,,,,All,Most,Some,More than half,Less than half,None,Many,Half,Few,-0.034492188,0.261536458,1,0,0,QQQ4,,,,,,,,English,2020-07-02_11h01.41.311,Experiment_English,3.2.4,MacIntel,60,,,,,,,,,,,,,,,,,,,,,1,0,340,170,1,339,ratio21_6_9_8.png,,,,,,,,,,,,
,,,,,,,,,,,,Some,Few,All,More than half,None,Most,Less than half,Half,Many,-0.391905382,-0.041553819,1,0,0,QQQ8,,,,,,,,English,2020-07-02_11h01.41.311,Experiment_English,3.2.4,MacIntel,60,,,,,,,,,,,,,,,,,,,,,1,0,340,255,1,339,ratio34_6_14_10.png,,,,,,,,,,,,
,,,,,,,,,,,,Half,Many,All,More than half,Less than half,Few,Most,Some,None,0.430516493,-0.017756076,1,0,0,QQQ2,,,,,,,,English,2020-07-02_11h01.41.311,Experiment_English,3.2.4,MacIntel,60,,,,,,,,,,,,,,,,,,,,,1,0,340,212,1,339,ratio31_12_16_1.png,,,,,,,,,,,,
,,,,,,,,,,,,Most,None,More than half,Less than half,Few,Some,Half,All,Many,-0.385490451,-0.042860243,1,0,0,QQQ8,,,,,,,,English,2020-07-02_11h01.41.311,Experiment_English,3.2.4,MacIntel,60,,,,,,,,,,,,,,,,,,,,,1,0,340,52,1,339,ratioX0_13_13_10.png,,,,,,,,,,,,
,,,,,,,,,,,,Many,Most,Half,More than half,None,Few,Some,All,Less than half,0.531684028,0.235711806,1,0,0,QQQ1,,,,,,,,English,2020-07-02_11h01.41.311,Experiment_English,3.2.4,MacIntel,60,,,,,,,,,,,,,,,,,,,,,1,0,340,216,1,339,ratio31_15_20_3.png,,,,,,,,,,,,
,,,,,,,,,,,,More than half,Many,Half,Most,All,Some,None,Less than half,Few,0.413884549,0.235056424,1,0,0,QQQ1,,,,,,,,English,2020-07-02_11h01.41.311,Experiment_English,3.2.4,MacIntel,60,,,,,,,,,,,,,,,,,,,,,1,0,340,281,1,339,ratio43_4_7_4.png,,,,,,,,,,,,
,,,,,,,,,,,,All,Less than half,Most,None,Half,Many,Some,More than half,Few,0.025746528,0.229045139,1,0,0,QQQ4,,,,,,,,English,2020-07-02_11h01.41.311,Experiment_English,3.2.4,MacIntel,60,,,,,,,,,,,,,,,,,,,,,1,0,340,63,1,339,ratio0Y_0_6_8.png,,,,,,,,,,,,
,,,,,,,,,,,,Most,Some,More than half,Many,Few,None,Half,All,Less than half,0.067947049,8.24653E-05,1,0,0,QQQ5,,,,,,,,English,2020-07-02_11h01.41.311,Experiment_English,3.2.4,MacIntel,60,,,,,,,,,,,,,,,,,,,,,1,0,340,148,1,339,ratio19_1_10_19.png,,,,,,,,,,,,
,,,,,,,,,,,,All,Half,Many,Some,Few,More than half,Most,Less than half,None,-0.42546875,-0.008723958,1,0,0,QQQ8,,,,,,,,English,2020-07-02_11h01.41.311,Experiment_English,3.2.4,MacIntel,60,,,,,,,,,,,,,,,,,,,,,1,0,340,16,1,339,ratio12_5_15_6.png,,,,,,,,,,,,
,,,,,,,,,,,,Some,Many,Most,All,Few,More than half,Less than half,Half,None,0.091909722,-0.264678819,1,0,0,QQQ6,,,,,,,,English,2020-07-02_11h01.41.311,Experiment_English,3.2.4,MacIntel,60,,,,,,,,,,,,,,,,,,,,,1,0,340,205,1,339,ratio31_6_8_2.png,,,,,,,,,,,,
,,,,,,,,,,,,None,Some,More than half,Less than half,Many,All,Few,Half,Most,-0.422508681,-0.297907986,1,0,0,QQQ9,,,,,,,,English,2020-07-02_11h01.41.311,Experiment_English,3.2.4,MacIntel,60,,,,,,,,,,,,,,,,,,,,,1,0,340,318,1,339,ratio51_15_18_18.png,,,,,,,,,,,,
,,,,,,,,,,,,Less than half,Some,All,More than half,Half,Few,Most,None,Many,-0.416297743,-0.070520833,1,0,0,QQQ8,,,,,,,,English,2020-07-02_11h01.41.311,Experiment_English,3.2.4,MacIntel,60,,,,,,,,,,,,,,,,,,,,,1,0,340,60,1,339,ratio0Y_0_3_5.png,,,,,,,,,,,,
,,,,,,,,,,,,Most,All,Some,Few,More than half,Half,Less than half,None,Many,-0.063719618,-0.312595486,1,0,0,QQQ6,,,,,,,,English,2020-07-02_11h01.41.311,Experiment_English,3.2.4,MacIntel,60,,,,,,,,,,,,,,,,,,,,,1,0,340,252,1,339,ratio34_6_14_3.png,,,,,,,,,,,,
,,,,,,,,,,,,Many,More than half,Some,Most,None,Less than half,All,Half,Few,-0.015338542,-0.273802083,1,0,0,QQQ6,,,,,,,,English,2020-07-02_11h01.41.311,Experiment_English,3.2.4,MacIntel,60,,,,,,,,,,,,,,,,,,,,,1,0,340,180,1,339,ratio23_2_5_4.png,,,,,,,,,,,,
,,,,,,,,,,,,Most,More than half,Less than half,Some,Many,Half,All,None,Few,-0.031875,-0.285742188,1,0,0,QQQ6,,,,,,,,English,2020-07-02_11h01.41.311,Experiment_English,3.2.4,MacIntel,60,,,,,,,,,,,,,,,,,,,,,1,0,340,24,1,339,ratio11_4_8_3.png,,,,,,,,,,,,
,,,,,,,,,,,,Less than half,Few,Half,All,Many,None,Some,Most,More than half,0.043776042,0.274275174,1,0,0,QQQ4,,,,,,,,English,2020-07-02_11h01.41.311,Experiment_English,3.2.4,MacIntel,60,,,,,,,,,,,,,,,,,,,,,1,0,340,42,1,339,ratioX0_5_5_5.png,,,,,,,,,,,,
,,,,,,,,,,,,Few,Most,Many,All,More than half,Less than half,Half,Some,None,0.393216146,0.261861979,1,0,0,QQQ1,,,,,,,,English,2020-07-02_11h01.41.311,Experiment_English,3.2.4,MacIntel,60,,,,,,,,,,,,,,,,,,,,,1,0,340,159,1,339,ratio19_2_20_20.png,,,,,,,,,,,,
,,,,,,,,,,,,None,Less than half,All,Some,More than half,Many,Half,Most,Few,-0.419913194,0.242426215,1,0,0,QQQ7,,,,,,,,English,2020-07-02_11h01.41.311,Experiment_English,3.2.4,MacIntel,60,,,,,,,,,,,,,,,,,,,,,1,0,340,21,1,339,ratio11_2_4_10.png,,,,,,,,,,,,
,,,,,,,,,,,,More than half,Most,All,Half,Few,None,Many,Less than half,Some,-0.099444444,0.257005208,1,0,0,QQQ4,,,,,,,,English,2020-07-02_11h01.41.311,Experiment_English,3.2.4,MacIntel,60,,,,,,,,,,,,,,,,,,,,,1,0,340,28,1,339,ratio11_5_10_9.png,0.297942708,-0.400039062,1,0,0,continue_button_pause,1,0,1,0,1,0
,,,,,,,,,,,,,,,,,,,,,,,,,,,,,,,,,,English,2020-07-02_11h01.41.311,Experiment_English,3.2.4,MacIntel,60,,,,,,,,,,,,,,,,,,,,,1,0,340,28,1,339,ratio11_5_10_9.png,,,,,,,,,,,,
,,,,,,,,,,,,Many,Half,Less than half,More than half,Some,None,Few,All,Most,0.041480035,0.279466146,1,0,0,QQQ4,,,,,,,,English,2020-07-02_11h01.41.311,Experiment_English,3.2.4,MacIntel,60,,,,,,,,,,,,,,,,,,,,,1,0,340,172,1,339,ratio21_8_12_6.png,,,,,,,,,,,,
,,,,,,,,,,,,Most,Some,More than half,Many,Less than half,None,Few,All,Half,0.516671007,-0.050642361,1,0,0,QQQ2,,,,,,,,English,2020-07-02_11h01.41.311,Experiment_English,3.2.4,MacIntel,60,,,,,,,,,,,,,,,,,,,,,1,0,340,118,1,339,ratio14_4_20_8.png,,,,,,,,,,,,
,,,,,,,,,,,,Half,Less than half,More than half,Some,Most,All,Many,None,Few,-0.406011285,0.276827257,1,0,0,QQQ7,,,,,,,,English,2020-07-02_11h01.41.311,Experiment_English,3.2.4,MacIntel,60,,,,,,,,,,,,,,,,,,,,,1,0,340,278,1,339,ratio41_16_20_9.png,,,,,,,,,,,,
,,,,,,,,,,,,Few,Most,Many,None,All,Less than half,More than half,Half,Some,0.377052951,0.254639757,1,0,0,QQQ1,,,,,,,,English,2020-07-02_11h01.41.311,Experiment_English,3.2.4,MacIntel,60,,,,,,,,,,,,,,,,,,,,,1,0,340,123,1,339,ratio15_1_6_12.png,,,,,,,,,,,,
,,,,,,,,,,,,Less than half,More than half,Many,Most,Half,None,All,Some,Few,-0.37265625,0.272122396,1,0,0,QQQ7,,,,,,,,English,2020-07-02_11h01.41.311,Experiment_English,3.2.4,MacIntel,60,,,,,,,,,,,,,,,,,,,,,1,0,340,41,1,339,ratioX0_4_4_9.png,,,,,,,,,,,,
,,,,,,,,,,,,None,All,Few,Half,Most,More than half,Some,Less than half,Many,-0.04077691,-0.038780382,1,0,0,QQQ5,,,,,,,,English,2020-07-02_11h01.41.311,Experiment_English,3.2.4,MacIntel,60,,,,,,,,,,,,,,,,,,,,,1,0,340,269,1,339,ratio41_8_10_6.png,,,,,,,,,,,,
,,,,,,,,,,,,Many,Few,Less than half,Some,All,More than half,Half,Most,None,-0.54968316,-0.045108507,1,0,0,QQQ8,,,,,,,,English,2020-07-02_11h01.41.311,Experiment_English,3.2.4,MacIntel,60,,,,,,,,,,,,,,,,,,,,,1,0,340,338,1,339,ratio91_18_20_18.png,,,,,,,,,,,,
,,,,,,,,,,,,Some,Most,More than half,Half,All,Less than half,None,Few,Many,0.395898437,-0.27483941,1,0,0,QQQ3,,,,,,,,English,2020-07-02_11h01.41.311,Experiment_English,3.2.4,MacIntel,60,,,,,,,,,,,,,,,,,,,,,1,0,340,225,1,339,ratio32_6_10_4.png,,,,,,,,,,,,
,,,,,,,,,,,,More than half,Many,None,Some,All,Most,Less than half,Half,Few,-0.519366319,0.234765625,1,0,0,QQQ7,,,,,,,,English,2020-07-02_11h01.41.311,Experiment_English,3.2.4,MacIntel,60,,,,,,,,,,,,,,,,,,,,,1,0,340,1,1,339,ratio12_1_3_7.png,,,,,,,,,,,,
,,,,,,,,,,,,Most,None,Some,More than half,Many,Few,Half,Less than half,All,-0.406462674,-0.021701389,1,0,0,QQQ8,,,,,,,,English,2020-07-02_11h01.41.311,Experiment_English,3.2.4,MacIntel,60,,,,,,,,,,,,,,,,,,,,,1,0,340,0,1,339,ratio12_1_3_3.png,,,,,,,,,,,,
,,,,,,,,,,,,Few,Many,Most,All,Some,Half,More than half,Less than half,None,-0.041449653,0.267630208,1,0,0,QQQ4,,,,,,,,English,2020-07-02_11h01.41.311,Experiment_English,3.2.4,MacIntel,60,,,,,,,,,,,,,,,,,,,,,1,0,340,45,1,339,ratioX0_8_8_3.png,,,,,,,,,,,,
,,,,,,,,,,,,Most,None,Less than half,All,Some,Half,Many,Few,More than half,0.512881944,0.30999566,1,0,0,QQQ1,,,,,,,,English,2020-07-02_11h01.41.311,Experiment_English,3.2.4,MacIntel,60,,,,,,,,,,,,,,,,,,,,,1,0,340,327,1,339,ratio91_9_10_11.png,,,,,,,,,,,,
,,,,,,,,,,,,More than half,Most,Many,Less than half,All,Few,Some,None,Half,0.070047743,0.318572049,1,0,0,QQQ4,,,,,,,,English,2020-07-02_11h01.41.311,Experiment_English,3.2.4,MacIntel,60,,,,,,,,,,,,,,,,,,,,,1,0,340,187,1,339,ratio23_4_10_5.png,,,,,,,,,,,,
,,,,,,,,,,,,Few,None,Most,Less than half,All,Many,More than half,Half,Some,0.00453125,0.296171875,1,0,0,QQQ4,,,,,,,,English,2020-07-02_11h01.41.311,Experiment_English,3.2.4,MacIntel,60,,,,,,,,,,,,,,,,,,,,,1,0,340,242,1,339,ratio34_3_7_6.png,,,,,,,,,,,,
,,,,,,,,,,,,All,Less than half,Many,None,Half,Few,More than half,Some,Most,-0.048519965,-0.282395833,1,0,0,QQQ6,,,,,,,,English,2020-07-02_11h01.41.311,Experiment_English,3.2.4,MacIntel,60,,,,,,,,,,,,,,,,,,,,,1,0,340,149,1,339,ratio19_1_10_20.png,,,,,,,,,,,,
,,,,,,,,,,,,Few,Some,All,Most,None,Half,Less than half,More than half,Many,0.448116319,-0.052625868,1,0,0,QQQ2,,,,,,,,English,2020-07-02_11h01.41.311,Experiment_English,3.2.4,MacIntel,60,,,,,,,,,,,,,,,,,,,,,1,0,340,90,1,339,ratio13_3_12_7.png,,,,,,,,,,,,
,,,,,,,,,,,,None,Most,Half,All,Some,Many,Few,More than half,Less than half,-0.418381076,-0.021046007,1,0,0,QQQ8,,,,,,,,English,2020-07-02_11h01.41.311,Experiment_English,3.2.4,MacIntel,60,,,,,,,,,,,,,,,,,,,,,1,0,340,39,1,339,ratio11_10_20_6.png,,,,,,,,,,,,
,,,,,,,,,,,,Few,Half,All,Less than half,Many,None,Most,More than half,Some,0.410577257,-0.303576389,1,0,0,QQQ3,,,,,,,,English,2020-07-02_11h01.41.311,Experiment_English,3.2.4,MacIntel,60,,,,,,,,,,,,,,,,,,,,,1,0,340,13,1,339,ratio12_5_15_3.png,,,,,,,,,,,,
,,,,,,,,,,,,Many,Half,More than half,All,None,Some,Few,Less than half,Most,-0.450477431,-0.369292535,1,0,0,QQQ9,,,,,,,,English,2020-07-02_11h01.41.311,Experiment_English,3.2.4,MacIntel,60,,,,,,,,,,,,,,,,,,,,,1,0,340,279,1,339,ratio41_16_20_10.png,,,,,,,,,,,,
,,,,,,,,,,,,More than half,Few,Some,Less than half,None,Half,Many,All,Most,0.383793403,-0.046493056,1,0,0,QQQ2,,,,,,,,English,2020-07-02_11h01.41.311,Experiment_English,3.2.4,MacIntel,60,,,,,,,,,,,,,,,,,,,,,1,0,340,113,1,339,ratio14_3_15_8.png,,,,,,,,,,,,
,,,,,,,,,,,,All,Half,Most,More than half,Less than half,Many,None,Few,Some,-0.583350694,-0.347999132,1,0,0,QQQ9,,,,,,,,English,2020-07-02_11h01.41.311,Experiment_English,3.2.4,MacIntel,60,,,,,,,,,,,,,,,,,,,,,1,0,340,115,1,339,ratio14_4_20_1.png,,,,,,,,,,,,
,,,,,,,,,,,,All,Some,None,More than half,Half,Less than half,Few,Many,Most,0.010889757,-0.033641493,1,0,0,QQQ5,,,,,,,,English,2020-07-02_11h01.41.311,Experiment_English,3.2.4,MacIntel,60,,,,,,,,,,,,,,,,,,,,,1,0,340,191,1,339,ratio23_6_15_7.png,,,,,,,,,,,,
,,,,,,,,,,,,More than half,Most,Many,Few,Less than half,None,Some,All,Half,-0.408867188,-0.300034722,1,0,0,QQQ9,,,,,,,,English,2020-07-02_11h01.41.311,Experiment_English,3.2.4,MacIntel,60,,,,,,,,,,,,,,,,,,,,,1,0,340,23,1,339,ratio11_3_6_9.png,,,,,,,,,,,,
,,,,,,,,,,,,Some,Few,More than half,Half,Less than half,Most,All,None,Many,-0.028836806,-0.005594618,1,0,0,QQQ5,,,,,,,,English,2020-07-02_11h01.41.311,Experiment_English,3.2.4,MacIntel,60,,,,,,,,,,,,,,,,,,,,,1,0,340,29,1,339,ratio11_6_12_1.png,,,,,,,,,,,,
,,,,,,,,,,,,None,Many,Half,Most,More than half,Less than half,Some,All,Few,0.463493924,0.261375868,1,0,0,QQQ1,,,,,,,,English,2020-07-02_11h01.41.311,Experiment_English,3.2.4,MacIntel,60,,,,,,,,,,,,,,,,,,,,,1,0,340,75,1,339,ratio0Y_0_16_10.png,,,,,,,,,,,,
,,,,,,,,,,,,Less than half,More than half,None,Some,All,Half,Many,Few,Most,0.438741319,0.312378472,1,0,0,QQQ1,,,,,,,,English,2020-07-02_11h01.41.311,Experiment_English,3.2.4,MacIntel,60,,,,,,,,,,,,,,,,,,,,,1,0,340,17,1,339,ratio12_6_18_5.png,,,,,,,,,,,,
,,,,,,,,,,,,Less than half,None,More than half,Half,Most,Some,Few,Many,All,0.426006944,-0.335434028,1,0,0,QQQ3,,,,,,,,English,2020-07-02_11h01.41.311,Experiment_English,3.2.4,MacIntel,60,,,,,,,,,,,,,,,,,,,,,1,0,340,176,1,339,ratio21_10_15_3.png,,,,,,,,,,,,
,,,,,,,,,,,,None,Most,Less than half,All,Half,Many,Some,More than half,Few,-0.412113715,-0.032929687,1,0,0,QQQ8,,,,,,,,English,2020-07-02_11h01.41.311,Experiment_English,3.2.4,MacIntel,60,,,,,,,,,,,,,,,,,,,,,1,0,340,166,1,339,ratio21_6_9_1.png,,,,,,,,,,,,
,,,,,,,,,,,,All,Less than half,More than half,Many,Most,Few,None,Half,Some,0.43343316,-0.305859375,1,0,0,QQQ3,,,,,,,,English,2020-07-02_11h01.41.311,Experiment_English,3.2.4,MacIntel,60,,,,,,,,,,,,,,,,,,,,,1,0,340,282,1,339,ratio43_4_7_7.png,,,,,,,,,,,,
,,,,,,,,,,,,None,Half,Less than half,Most,Many,All,Few,More than half,Some,0.477673611,0.276384549,1,0,0,QQQ1,,,,,,,,English,2020-07-02_11h01.41.311,Experiment_English,3.2.4,MacIntel,60,,,,,,,,,,,,,,,,,,,,,1,0,340,70,1,339,ratio0Y_0_12_5.png,,,,,,,,,,,,
,,,,,,,,,,,,More than half,Many,None,Few,Some,Less than half,Most,Half,All,0.017912326,0.318537326,1,0,0,QQQ4,,,,,,,,English,2020-07-02_11h01.41.311,Experiment_English,3.2.4,MacIntel,60,,,,,,,,,,,,,,,,,,,,,1,0,340,122,1,339,ratio15_1_6_7.png,,,,,,,,,,,,
,,,,,,,,,,,,All,Many,Less than half,Some,Most,None,More than half,Half,Few,-0.005520833,-0.014678819,1,0,0,QQQ5,,,,,,,,English,2020-07-02_11h01.41.311,Experiment_English,3.2.4,MacIntel,60,,,,,,,,,,,,,,,,,,,,,1,0,340,263,1,339,ratio41_4_5_5.png,,,,,,,,,,,,
,,,,,,,,,,,,Many,Less than half,None,Some,More than half,All,Few,Most,Half,-0.060989583,-0.265386285,1,0,0,QQQ6,,,,,,,,English,2020-07-02_11h01.41.311,Experiment_English,3.2.4,MacIntel,60,,,,,,,,,,,,,,,,,,,,,1,0,340,59,1,339,ratioX0_20_20_9.png,,,,,,,,,,,,
,,,,,,,,,,,,Less than half,Few,Many,None,Half,All,Some,Most,More than half,-0.373684896,0.230451389,1,0,0,QQQ7,,,,,,,,English,2020-07-02_11h01.41.311,Experiment_English,3.2.4,MacIntel,60,,,,,,,,,,,,,,,,,,,,,1,0,340,93,1,339,ratio13_4_16_7.png,0.276323785,-0.384396701,1,0,0,continue_button_pause,1,0,1,0,1,0
,,,,,,,,,,,,,,,,,,,,,,,,,,,,,,,,,,English,2020-07-02_11h01.41.311,Experiment_English,3.2.4,MacIntel,60,,,,,,,,,,,,,,,,,,,,,1,0,340,93,1,339,ratio13_4_16_7.png,,,,,,,,,,,,
,,,,,,,,,,,,None,Less than half,Few,Most,Many,Some,Half,More than half,All,0.033585069,0.254908854,1,0,0,QQQ4,,,,,,,,English,2020-07-02_11h01.41.311,Experiment_English,3.2.4,MacIntel,60,,,,,,,,,,,,,,,,,,,,,1,0,340,308,1,339,ratio51_10_12_9.png,,,,,,,,,,,,
,,,,,,,,,,,,Few,Most,Less than half,None,Many,More than half,Some,Half,All,0.395672743,0.270946181,1,0,0,QQQ1,,,,,,,,English,2020-07-02_11h01.41.311,Experiment_English,3.2.4,MacIntel,60,,,,,,,,,,,,,,,,,,,,,1,0,340,83,1,339,ratio13_1_4_10.png,,,,,,,,,,,,
,,,,,,,,,,,,Some,Many,Most,None,More than half,All,Few,Half,Less than half,0.45108941,0.001223958,1,0,0,QQQ2,,,,,,,,English,2020-07-02_11h01.41.311,Experiment_English,3.2.4,MacIntel,60,,,,,,,,,,,,,,,,,,,,,1,0,340,272,1,339,ratio41_12_15_7.png,,,,,,,,,,,,
,,,,,,,,,,,,Few,Most,Some,More than half,None,Many,Half,All,Less than half,0.380251736,-0.066935764,1,0,0,QQQ2,,,,,,,,English,2020-07-02_11h01.41.311,Experiment_English,3.2.4,MacIntel,60,,,,,,,,,,,,,,,,,,,,,1,0,340,301,1,339,ratio51_5_6_4.png,,,,,,,,,,,,
,,,,,,,,,,,,More than half,Half,Most,Few,Less than half,Many,Some,None,All,0.460056424,-0.358897569,1,0,0,QQQ3,,,,,,,,English,2020-07-02_11h01.41.311,Experiment_English,3.2.4,MacIntel,60,,,,,,,,,,,,,,,,,,,,,1,0,340,300,1,339,ratio51_5_6_1.png,,,,,,,,,,,,
,,,,,,,,,,,,Half,Many,Most,None,Some,All,Less than half,More than half,Few,0.069166667,-0.357556424,1,0,0,QQQ6,,,,,,,,English,2020-07-02_11h01.41.311,Experiment_English,3.2.4,MacIntel,60,,,,,,,,,,,,,,,,,,,,,1,0,340,58,1,339,ratioX0_19_19_4.png,,,,,,,,,,,,
,,,,,,,,,,,,More than half,None,Half,Most,Many,All,Some,Few,Less than half,-0.408020833,-0.296436632,1,0,0,QQQ9,,,,,,,,English,2020-07-02_11h01.41.311,Experiment_English,3.2.4,MacIntel,60,,,,,,,,,,,,,,,,,,,,,1,0,340,199,1,339,ratio23_8_20_8.png,,,,,,,,,,,,
,,,,,,,,,,,,Half,Less than half,Some,Many,None,Few,Most,More than half,All,-0.372921007,0.265572917,1,0,0,QQQ7,,,,,,,,English,2020-07-02_11h01.41.311,Experiment_English,3.2.4,MacIntel,60,,,,,,,,,,,,,,,,,,,,,1,0,340,331,1,339,ratio91_18_20_3.png,,,,,,,,,,,,
,,,,,,,,,,,,Half,All,Less than half,Many,More than half,Few,None,Some,Most,-0.461744792,-0.29015191,1,0,0,QQQ9,,,,,,,,English,2020-07-02_11h01.41.311,Experiment_English,3.2.4,MacIntel,60,,,,,,,,,,,,,,,,,,,,,1,0,340,330,1,339,ratio91_18_20_2.png,,,,,,,,,,,,
,,,,,,,,,,,,Few,Many,All,Most,Some,More than half,Half,None,Less than half,-0.385173611,-0.015989583,1,0,0,QQQ8,,,,,,,,English,2020-07-02_11h01.41.311,Experiment_English,3.2.4,MacIntel,60,,,,,,,,,,,,,,,,,,,,,1,0,340,79,1,339,ratio0Y_0_20_4.png,,,,,,,,,,,,
,,,,,,,,,,,,Half,More than half,Less than half,None,All,Most,Few,Many,Some,0.445842014,0.257942708,1,0,0,QQQ1,,,,,,,,English,2020-07-02_11h01.41.311,Experiment_English,3.2.4,MacIntel,60,,,,,,,,,,,,,,,,,,,,,1,0,340,30,1,339,ratio11_6_12_6.png,,,,,,,,,,,,
,,,,,,,,,,,,Less than half,All,Few,Many,Half,More than half,Most,None,Some,0.381458333,0.268819444,1,0,0,QQQ1,,,,,,,,English,2020-07-02_11h01.41.311,Experiment_English,3.2.4,MacIntel,60,,,,,,,,,,,,,,,,,,,,,1,0,340,257,1,339,ratio34_6_14_12.png,,,,,,,,,,,,
,,,,,,,,,,,,Half,Most,More than half,All,None,Many,Less than half,Some,Few,0.442708333,-0.29155816,1,0,0,QQQ3,,,,,,,,English,2020-07-02_11h01.41.311,Experiment_English,3.2.4,MacIntel,60,,,,,,,,,,,,,,,,,,,,,1,0,340,275,1,339,ratio41_16_20_2.png,,,,,,,,,,,,
,,,,,,,,,,,,Many,Less than half,Some,Half,All,More than half,Few,Most,None,0.361579861,-0.041336806,1,0,0,QQQ2,,,,,,,,English,2020-07-02_11h01.41.311,Experiment_English,3.2.4,MacIntel,60,,,,,,,,,,,,,,,,,,,,,1,0,340,190,1,339,ratio23_6_15_3.png,,,,,,,,,,,,
,,,,,,,,,,,,Most,Half,Few,Some,Many,None,All,Less than half,More than half,-0.492152778,0.275173611,1,0,0,QQQ7,,,,,,,,English,2020-07-02_11h01.41.311,Experiment_English,3.2.4,MacIntel,60,,,,,,,,,,,,,,,,,,,,,1,0,340,57,1,339,ratioX0_18_18_1.png,,,,,,,,,,,,
,,,,,,,,,,,,None,All,Half,Many,More than half,Some,Most,Less than half,Few,-0.102209201,-0.296744792,1,0,0,QQQ6,,,,,,,,English,2020-07-02_11h01.41.311,Experiment_English,3.2.4,MacIntel,60,,,,,,,,,,,,,,,,,,,,,1,0,340,18,1,339,ratio12_6_18_7.png,,,,,,,,,,,,
,,,,,,,,,,,,Many,Most,Few,More than half,All,Less than half,Half,Some,None,0.609275174,0.02280816,1,0,0,QQQ2,,,,,,,,English,2020-07-02_11h01.41.311,Experiment_English,3.2.4,MacIntel,60,,,,,,,,,,,,,,,,,,,,,1,0,340,325,1,339,ratio91_9_10_8.png,,,,,,,,,,,,
,,,,,,,,,,,,Some,None,Many,Less than half,Few,Half,All,More than half,Most,-0.355533854,0.223307292,1,0,0,QQQ7,,,,,,,,English,2020-07-02_11h01.41.311,Experiment_English,3.2.4,MacIntel,60,,,,,,,,,,,,,,,,,,,,,1,0,340,50,1,339,ratioX0_12_12_3.png,,,,,,,,,,,,
,,,,,,,,,,,,All,Many,Less than half,None,Half,Few,Most,More than half,Some,-0.482352431,0.005876736,1,0,0,QQQ8,,,,,,,,English,2020-07-02_11h01.41.311,Experiment_English,3.2.4,MacIntel,60,,,,,,,,,,,,,,,,,,,,,1,0,340,290,1,339,ratio43_8_14_3.png,,,,,,,,,,,,
,,,,,,,,,,,,Many,All,None,Half,Less than half,Some,Most,More than half,Few,-0.402643229,-0.299613715,1,0,0,QQQ9,,,,,,,,English,2020-07-02_11h01.41.311,Experiment_English,3.2.4,MacIntel,60,,,,,,,,,,,,,,,,,,,,,1,0,340,87,1,339,ratio13_2_8_8.png,,,,,,,,,,,,
,,,,,,,,,,,,All,Few,Half,Some,Most,Less than half,Many,More than half,None,-0.041987847,-0.268732639,1,0,0,QQQ6,,,,,,,,English,2020-07-02_11h01.41.311,Experiment_English,3.2.4,MacIntel,60,,,,,,,,,,,,,,,,,,,,,1,0,340,96,1,339,ratio13_5_20_1.png,,,,,,,,,,,,
,,,,,,,,,,,,All,Most,Many,More than half,Half,Less than half,Few,None,Some,0.083632813,0.27609375,1,0,0,QQQ4,,,,,,,,English,2020-07-02_11h01.41.311,Experiment_English,3.2.4,MacIntel,60,,,,,,,,,,,,,,,,,,,,,1,0,340,294,1,339,ratio43_8_14_9.png,,,,,,,,,,,,
,,,,,,,,,,,,All,Most,None,Half,Few,Less than half,Some,More than half,Many,0.406662326,0.008229167,1,0,0,QQQ2,,,,,,,,English,2020-07-02_11h01.41.311,Experiment_English,3.2.4,MacIntel,60,,,,,,,,,,,,,,,,,,,,,1,0,340,337,1,339,ratio91_18_20_16.png,,,,,,,,,,,,
,,,,,,,,,,,,All,None,Half,Most,Less than half,Many,Some,Few,More than half,0.486931424,0.327539062,1,0,0,QQQ1,,,,,,,,English,2020-07-02_11h01.41.311,Experiment_English,3.2.4,MacIntel,60,,,,,,,,,,,,,,,,,,,,,1,0,340,56,1,339,ratioX0_17_17_10.png,,,,,,,,,,,,
,,,,,,,,,,,,Some,Half,All,Few,Less than half,More than half,Most,None,Many,0.007265625,-0.049539931,1,0,0,QQQ5,,,,,,,,English,2020-07-02_11h01.41.311,Experiment_English,3.2.4,MacIntel,60,,,,,,,,,,,,,,,,,,,,,1,0,340,8,1,339,ratio12_3_9_4.png,,,,,,,,,,,,
,,,,,,,,,,,,None,Many,Some,Most,More than half,Few,Less than half,Half,All,-0.379631076,0.307365451,1,0,0,QQQ7,,,,,,,,English,2020-07-02_11h01.41.311,Experiment_English,3.2.4,MacIntel,60,,,,,,,,,,,,,,,,,,,,,1,0,340,194,1,339,ratio23_6_15_10.png,,,,,,,,,,,,
,,,,,,,,,,,,More than half,Some,Few,Half,Many,Most,Less than half,All,None,-0.099184028,0.230095486,1,0,0,QQQ4,,,,,,,,English,2020-07-02_11h01.41.311,Experiment_English,3.2.4,MacIntel,60,,,,,,,,,,,,,,,,,,,,,1,0,340,27,1,339,ratio11_5_10_7.png,,,,,,,,,,,,
,,,,,,,,,,,,Some,Few,None,All,More than half,Many,Most,Half,Less than half,-0.09125,-0.265585937,1,0,0,QQQ6,,,,,,,,English,2020-07-02_11h01.41.311,Experiment_English,3.2.4,MacIntel,60,,,,,,,,,,,,,,,,,,,,,1,0,340,211,1,339,ratio31_9_12_10.png,,,,,,,,,,,,
,,,,,,,,,,,,Half,Few,Some,All,Less than half,More than half,None,Most,Many,0.421059028,-0.301267361,1,0,0,QQQ3,,,,,,,,English,2020-07-02_11h01.41.311,Experiment_English,3.2.4,MacIntel,60,,,,,,,,,,,,,,,,,,,,,1,0,340,116,1,339,ratio14_4_20_3.png,,,,,,,,,,,,
,,,,,,,,,,,,Some,Few,More than half,Less than half,Many,All,Most,Half,None,0.378919271,0.239032118,1,0,0,QQQ1,,,,,,,,English,2020-07-02_11h01.41.311,Experiment_English,3.2.4,MacIntel,60,,,,,,,,,,,,,,,,,,,,,1,0,340,197,1,339,ratio23_8_20_6.png,,,,,,,,,,,,
,,,,,,,,,,,,Many,Few,Less than half,More than half,Some,None,All,Half,Most,-0.064331597,-0.284301215,1,0,0,QQQ6,,,,,,,,English,2020-07-02_11h01.41.311,Experiment_English,3.2.4,MacIntel,60,,,,,,,,,,,,,,,,,,,,,1,0,340,67,1,339,ratio0Y_0_10_10.png,,,,,,,,,,,,
,,,,,,,,,,,,Most,None,Less than half,Few,Many,All,Some,More than half,Half,-0.399965278,-0.037925347,1,0,0,QQQ8,,,,,,,,English,2020-07-02_11h01.41.311,Experiment_English,3.2.4,MacIntel,60,,,,,,,,,,,,,,,,,,,,,1,0,340,293,1,339,ratio43_8_14_7.png,,,,,,,,,,,,
,,,,,,,,,,,,Most,Half,Less than half,Some,Many,All,Few,More than half,None,-0.4671875,-0.283428819,1,0,0,QQQ9,,,,,,,,English,2020-07-02_11h01.41.311,Experiment_English,3.2.4,MacIntel,60,,,,,,,,,,,,,,,,,,,,,1,0,340,64,1,339,ratio0Y_0_7_1.png,,,,,,,,,,,,
,,,,,,,,,,,,Few,All,Less than half,Half,None,More than half,Some,Many,Most,0.39109375,0.237881944,1,0,0,QQQ1,,,,,,,,English,2020-07-02_11h01.41.311,Experiment_English,3.2.4,MacIntel,60,,,,,,,,,,,,,,,,,,,,,1,0,340,124,1,339,ratio15_1_6_16.png,0.274631076,-0.405039062,1,0,0,continue_button_pause,1,0,1,0,1,0
,,,,,,,,,,,,,,,,,,,,,,,,,,,,,,,,,,English,2020-07-02_11h01.41.311,Experiment_English,3.2.4,MacIntel,60,,,,,,,,,,,,,,,,,,,,,1,0,340,124,1,339,ratio15_1_6_16.png,,,,,,,,,,,,
,,,,,,,,,,,,Less than half,Most,All,Many,More than half,Half,None,Some,Few,0.418763021,-0.052638889,1,0,0,QQQ2,,,,,,,,English,2020-07-02_11h01.41.311,Experiment_English,3.2.4,MacIntel,60,,,,,,,,,,,,,,,,,,,,,1,0,340,315,1,339,ratio51_15_18_10.png,,,,,,,,,,,,
,,,,,,,,,,,,Some,All,None,More than half,Most,Many,Few,Half,Less than half,0.537942708,0.012126736,1,0,0,QQQ2,,,,,,,,English,2020-07-02_11h01.41.311,Experiment_English,3.2.4,MacIntel,60,,,,,,,,,,,,,,,,,,,,,1,0,340,51,1,339,ratioX0_12_12_9.png,,,,,,,,,,,,
,,,,,,,,,,,,Less than half,Some,Few,Half,None,Many,Most,All,More than half,0.369431424,-0.274539931,1,0,0,QQQ3,,,,,,,,English,2020-07-02_11h01.41.311,Experiment_English,3.2.4,MacIntel,60,,,,,,,,,,,,,,,,,,,,,1,0,340,150,1,339,ratio19_2_20_1.png,,,,,,,,,,,,
,,,,,,,,,,,,Less than half,Half,Many,None,All,More than half,Some,Most,Few,0.467643229,0.287300347,1,0,0,QQQ1,,,,,,,,English,2020-07-02_11h01.41.311,Experiment_English,3.2.4,MacIntel,60,,,,,,,,,,,,,,,,,,,,,1,0,340,35,1,339,ratio11_8_16_10.png,,,,,,,,,,,,
,,,,,,,,,,,,Many,Less than half,More than half,None,Few,Some,All,Half,Most,0.411388889,-0.286757812,1,0,0,QQQ3,,,,,,,,English,2020-07-02_11h01.41.311,Experiment_English,3.2.4,MacIntel,60,,,,,,,,,,,,,,,,,,,,,1,0,340,32,1,339,ratio11_7_14_5.png,,,,,,,,,,,,
,,,,,,,,,,,,All,Most,More than half,Many,Some,Less than half,Few,None,Half,0.390685764,0.035529514,1,0,0,QQQ2,,,,,,,,English,2020-07-02_11h01.41.311,Experiment_English,3.2.4,MacIntel,60,,,,,,,,,,,,,,,,,,,,,1,0,340,268,1,339,ratio41_8_10_5.png,,,,,,,,,,,,
,,,,,,,,,,,,None,Some,Half,Many,Few,More than half,Less than half,Most,All,0.399405382,-0.061996528,1,0,0,QQQ2,,,,,,,,English,2020-07-02_11h01.41.311,Experiment_English,3.2.4,MacIntel,60,,,,,,,,,,,,,,,,,,,,,1,0,340,12,1,339,ratio12_4_12_10.png,,,,,,,,,,,,
,,,,,,,,,,,,None,More than half,Less than half,Some,Few,Many,Most,Half,All,0.100030382,0.316948785,1,0,0,QQQ4,,,,,,,,English,2020-07-02_11h01.41.311,Experiment_English,3.2.4,MacIntel,60,,,,,,,,,,,,,,,,,,,,,1,0,340,112,1,339,ratio14_3_15_4.png,,,,,,,,,,,,
,,,,,,,,,,,,Less than half,Many,Some,Few,None,All,Most,Half,More than half,0.048181424,0.279709201,1,0,0,QQQ4,,,,,,,,English,2020-07-02_11h01.41.311,Experiment_English,3.2.4,MacIntel,60,,,,,,,,,,,,,,,,,,,,,1,0,340,81,1,339,ratio13_1_4_5.png,,,,,,,,,,,,
,,,,,,,,,,,,Few,More than half,Less than half,Most,Half,Some,All,None,Many,0.423324653,0.250889757,1,0,0,QQQ1,,,,,,,,English,2020-07-02_11h01.41.311,Experiment_English,3.2.4,MacIntel,60,,,,,,,,,,,,,,,,,,,,,1,0,340,15,1,339,ratio12_5_15_5.png,,,,,,,,,,,,
,,,,,,,,,,,,Many,All,Most,Less than half,Some,Half,More than half,Few,None,0.537552083,-0.054960938,1,0,0,QQQ2,,,,,,,,English,2020-07-02_11h01.41.311,Experiment_English,3.2.4,MacIntel,60,,,,,,,,,,,,,,,,,,,,,1,0,340,43,1,339,ratioX0_6_6_9.png,,,,,,,,,,,,
,,,,,,,,,,,,Few,None,Less than half,Many,More than half,All,Half,Some,Most,0.428823785,-0.314756944,1,0,0,QQQ3,,,,,,,,English,2020-07-02_11h01.41.311,Experiment_English,3.2.4,MacIntel,60,,,,,,,,,,,,,,,,,,,,,1,0,340,189,1,339,ratio23_4_10_8.png,,,,,,,,,,,,
,,,,,,,,,,,,None,Most,Some,All,Many,Half,Less than half,More than half,Few,-0.016927083,-0.034943576,1,0,0,QQQ5,,,,,,,,English,2020-07-02_11h01.41.311,Experiment_English,3.2.4,MacIntel,60,,,,,,,,,,,,,,,,,,,,,1,0,340,233,1,339,ratio32_9_15_9.png,,,,,,,,,,,,
,,,,,,,,,,,,Half,Most,Few,None,Many,Some,Less than half,More than half,All,-0.407178819,-0.316128472,1,0,0,QQQ9,,,,,,,,English,2020-07-02_11h01.41.311,Experiment_English,3.2.4,MacIntel,60,,,,,,,,,,,,,,,,,,,,,1,0,340,47,1,339,ratioX0_9_9_4.png,,,,,,,,,,,,
,,,,,,,,,,,,More than half,Some,Many,Most,Half,Less than half,None,All,Few,-0.407404514,0.27218316,1,0,0,QQQ7,,,,,,,,English,2020-07-02_11h01.41.311,Experiment_English,3.2.4,MacIntel,60,,,,,,,,,,,,,,,,,,,,,1,0,340,71,1,339,ratio0Y_0_12_10.png,,,,,,,,,,,,
,,,,,,,,,,,,Most,Half,Few,Many,All,Some,None,More than half,Less than half,-0.38499566,-0.268398437,1,0,0,QQQ9,,,,,,,,English,2020-07-02_11h01.41.311,Experiment_English,3.2.4,MacIntel,60,,,,,,,,,,,,,,,,,,,,,1,0,340,31,1,339,ratio11_6_12_9.png,,,,,,,,,,,,
,,,,,,,,,,,,More than half,Few,Most,Half,None,Less than half,Many,All,Some,-0.40781684,-0.329375,1,0,0,QQQ9,,,,,,,,English,2020-07-02_11h01.41.311,Experiment_English,3.2.4,MacIntel,60,,,,,,,,,,,,,,,,,,,,,1,0,340,188,1,339,ratio23_4_10_6.png,,,,,,,,,,,,
,,,,,,,,,,,,None,More than half,Less than half,Some,Most,Half,Few,Many,All,-0.457209201,0.30952691,1,0,0,QQQ7,,,,,,,,English,2020-07-02_11h01.41.311,Experiment_English,3.2.4,MacIntel,60,,,,,,,,,,,,,,,,,,,,,1,0,340,129,1,339,ratio15_2_12_9.png,,,,,,,,,,,,
,,,,,,,,,,,,Few,All,Most,More than half,Many,Less than half,Some,None,Half,-0.437799479,0.316223958,1,0,0,QQQ7,,,,,,,,English,2020-07-02_11h01.41.311,Experiment_English,3.2.4,MacIntel,60,,,,,,,,,,,,,,,,,,,,,1,0,340,97,1,339,ratio13_5_20_2.png,,,,,,,,,,,,
,,,,,,,,,,,,Most,None,Less than half,Half,More than half,Many,Some,Few,All,0.472625868,-0.300685764,1,0,0,QQQ3,,,,,,,,English,2020-07-02_11h01.41.311,Experiment_English,3.2.4,MacIntel,60,,,,,,,,,,,,,,,,,,,,,1,0,340,256,1,339,ratio34_6_14_11.png,,,,,,,,,,,,
,,,,,,,,,,,,Few,Less than half,All,None,Many,More than half,Some,Most,Half,0.430225694,-0.041835938,1,0,0,QQQ2,,,,,,,,English,2020-07-02_11h01.41.311,Experiment_English,3.2.4,MacIntel,60,,,,,,,,,,,,,,,,,,,,,1,0,340,250,1,339,ratio34_6_14_1.png,,,,,,,,,,,,
,,,,,,,,,,,,All,Few,Many,More than half,Half,Most,Some,Less than half,None,0.351814236,-0.290355903,1,0,0,QQQ3,,,,,,,,English,2020-07-02_11h01.41.311,Experiment_English,3.2.4,MacIntel,60,,,,,,,,,,,,,,,,,,,,,1,0,340,178,1,339,ratio21_12_18_2.png,,,,,,,,,,,,
,,,,,,,,,,,,Some,Many,Less than half,None,Few,More than half,All,Half,Most,-0.388402778,-0.278723958,1,0,0,QQQ9,,,,,,,,English,2020-07-02_11h01.41.311,Experiment_English,3.2.4,MacIntel,60,,,,,,,,,,,,,,,,,,,,,1,0,340,264,1,339,ratio41_4_5_6.png,,,,,,,,,,,,
,,,,,,,,,,,,Few,Many,Half,None,Some,Most,More than half,All,Less than half,-0.47109809,0.303064236,1,0,0,QQQ7,,,,,,,,English,2020-07-02_11h01.41.311,Experiment_English,3.2.4,MacIntel,60,,,,,,,,,,,,,,,,,,,,,1,0,340,223,1,339,ratio32_3_5_5.png,,,,,,,,,,,,
,,,,,,,,,,,,Less than half,More than half,Many,All,None,Half,Most,Some,Few,0.462955729,0.2721875,1,0,0,QQQ1,,,,,,,,English,2020-07-02_11h01.41.311,Experiment_English,3.2.4,MacIntel,60,,,,,,,,,,,,,,,,,,,,,1,0,340,182,1,339,ratio23_2_5_7.png,,,,,,,,,,,,
,,,,,,,,,,,,Most,None,Many,Less than half,Half,Few,All,Some,More than half,0.488541667,-0.345230035,1,0,0,QQQ3,,,,,,,,English,2020-07-02_11h01.41.311,Experiment_English,3.2.4,MacIntel,60,,,,,,,,,,,,,,,,,,,,,1,0,340,239,1,339,ratio32_12_20_10.png,,,,,,,,,,,,
,,,,,,,,,,,,More than half,All,None,Half,Most,Few,Many,Less than half,Some,0.461697049,0.26577691,1,0,0,QQQ1,,,,,,,,English,2020-07-02_11h01.41.311,Experiment_English,3.2.4,MacIntel,60,,,,,,,,,,,,,,,,,,,,,1,0,340,220,1,339,ratio32_3_5_1.png,,,,,,,,,,,,
,,,,,,,,,,,,Few,All,Half,Many,Less than half,None,More than half,Most,Some,-0.443828125,-0.034361979,1,0,0,QQQ8,,,,,,,,English,2020-07-02_11h01.41.311,Experiment_English,3.2.4,MacIntel,60,,,,,,,,,,,,,,,,,,,,,1,0,340,304,1,339,ratio51_5_6_13.png,,,,,,,,,,,,
,,,,,,,,,,,,Few,All,None,Most,Some,More than half,Many,Half,Less than half,-0.402643229,0.010351562,1,0,0,QQQ8,,,,,,,,English,2020-07-02_11h01.41.311,Experiment_English,3.2.4,MacIntel,60,,,,,,,,,,,,,,,,,,,,,1,0,340,287,1,339,ratio43_4_7_17.png,,,,,,,,,,,,
,,,,,,,,,,,,Most,More than half,Less than half,All,Half,Some,Few,None,Many,0.437586806,0.288315972,1,0,0,QQQ1,,,,,,,,English,2020-07-02_11h01.41.311,Experiment_English,3.2.4,MacIntel,60,,,,,,,,,,,,,,,,,,,,,1,0,340,266,1,339,ratio41_8_10_2.png,,,,,,,,,,,,
,,,,,,,,,,,,More than half,Less than half,Many,All,Few,Most,Some,Half,None,0.41734809,0.24875,1,0,0,QQQ1,,,,,,,,English,2020-07-02_11h01.41.311,Experiment_English,3.2.4,MacIntel,60,,,,,,,,,,,,,,,,,,,,,1,0,340,161,1,339,ratio21_2_3_8.png,,,,,,,,,,,,
,,,,,,,,,,,,Less than half,All,Few,Many,More than half,Some,Half,Most,None,-0.485490451,-0.297009549,1,0,0,QQQ9,,,,,,,,English,2020-07-02_11h01.41.311,Experiment_English,3.2.4,MacIntel,60,,,,,,,,,,,,,,,,,,,,,1,0,340,65,1,339,ratio0Y_0_8_4.png,,,,,,,,,,,,
,,,,,,,,,,,,All,Many,None,Some,More than half,Few,Most,Less than half,Half,-0.088289931,-0.056597222,1,0,0,QQQ5,,,,,,,,English,2020-07-02_11h01.41.311,Experiment_English,3.2.4,MacIntel,60,,,,,,,,,,,,,,,,,,,,,1,0,340,224,1,339,ratio32_3_5_10.png,,,,,,,,,,,,
,,,,,,,,,,,,Many,More than half,Less than half,None,Few,Some,All,Most,Half,-0.582400174,-0.061258681,1,0,0,QQQ8,,,,,,,,English,2020-07-02_11h01.41.311,Experiment_English,3.2.4,MacIntel,60,,,,,,,,,,,,,,,,,,,,,1,0,340,329,1,339,ratio91_9_10_20.png,0.362087674,-0.364874132,1,0,0,continue_button_pause,1,0,1,0,1,0
,,,,,,,,,,,,,,,,,,,,,,,,,,,,,,,,,,English,2020-07-02_11h01.41.311,Experiment_English,3.2.4,MacIntel,60,,,,,,,,,,,,,,,,,,,,,1,0,340,329,1,339,ratio91_9_10_20.png,,,,,,,,,,,,
,,,,,,,,,,,,All,None,Half,Few,More than half,Some,Most,Many,Less than half,-0.423203125,-0.006970486,1,0,0,QQQ8,,,,,,,,English,2020-07-02_11h01.41.311,Experiment_English,3.2.4,MacIntel,60,,,,,,,,,,,,,,,,,,,,,1,0,340,177,1,339,ratio21_12_18_1.png,,,,,,,,,,,,
,,,,,,,,,,,,Few,Many,Half,Some,More than half,Most,All,Less than half,None,0.438355035,0.326336806,1,0,0,QQQ1,,,,,,,,English,2020-07-02_11h01.41.311,Experiment_English,3.2.4,MacIntel,60,,,,,,,,,,,,,,,,,,,,,1,0,340,154,1,339,ratio19_2_20_11.png,,,,,,,,,,,,
,,,,,,,,,,,,Most,Many,Some,All,Few,More than half,Half,Less than half,None,-0.421783854,-0.24671441,1,0,0,QQQ9,,,,,,,,English,2020-07-02_11h01.41.311,Experiment_English,3.2.4,MacIntel,60,,,,,,,,,,,,,,,,,,,,,1,0,340,76,1,339,ratio0Y_0_17_10.png,,,,,,,,,,,,
,,,,,,,,,,,,Half,Few,Many,Some,All,More than half,Most,Less than half,None,-0.407907986,-0.002873264,1,0,0,QQQ8,,,,,,,,English,2020-07-02_11h01.41.311,Experiment_English,3.2.4,MacIntel,60,,,,,,,,,,,,,,,,,,,,,1,0,340,195,1,339,ratio23_8_20_1.png,,,,,,,,,,,,
,,,,,,,,,,,,All,Less than half,Few,Many,Half,Most,None,More than half,Some,0.591354167,-0.050529514,1,0,0,QQQ2,,,,,,,,English,2020-07-02_11h01.41.311,Experiment_English,3.2.4,MacIntel,60,,,,,,,,,,,,,,,,,,,,,1,0,340,240,1,339,ratio34_3_7_4.png,,,,,,,,,,,,
,,,,,,,,,,,,Many,Some,Half,Most,All,More than half,Few,Less than half,None,0.385039062,-0.319600694,1,0,0,QQQ3,,,,,,,,English,2020-07-02_11h01.41.311,Experiment_English,3.2.4,MacIntel,60,,,,,,,,,,,,,,,,,,,,,1,0,340,33,1,339,ratio11_7_14_8.png,,,,,,,,,,,,
,,,,,,,,,,,,Half,All,Many,Less than half,Most,More than half,Some,Few,None,-0.48421441,0.04218316,1,0,0,QQQ8,,,,,,,,English,2020-07-02_11h01.41.311,Experiment_English,3.2.4,MacIntel,60,,,,,,,,,,,,,,,,,,,,,1,0,340,110,1,339,ratio14_3_15_2.png,,,,,,,,,,,,
,,,,,,,,,,,,More than half,Some,Most,Half,Many,Few,None,Less than half,All,0.057313368,-0.290703125,1,0,0,QQQ6,,,,,,,,English,2020-07-02_11h01.41.311,Experiment_English,3.2.4,MacIntel,60,,,,,,,,,,,,,,,,,,,,,1,0,340,126,1,339,ratio15_2_12_1.png,,,,,,,,,,,,
,,,,,,,,,,,,Most,Less than half,Few,Half,More than half,Many,None,All,Some,-0.422886285,0.28343316,1,0,0,QQQ7,,,,,,,,English,2020-07-02_11h01.41.311,Experiment_English,3.2.4,MacIntel,60,,,,,,,,,,,,,,,,,,,,,1,0,340,69,1,339,ratio0Y_0_11_6.png,,,,,,,,,,,,
,,,,,,,,,,,,Few,Less than half,More than half,Most,Half,Some,Many,None,All,0.082986111,-0.264466146,1,0,0,QQQ6,,,,,,,,English,2020-07-02_11h01.41.311,Experiment_English,3.2.4,MacIntel,60,,,,,,,,,,,,,,,,,,,,,1,0,340,139,1,339,ratio15_3_18_20.png,,,,,,,,,,,,
,,,,,,,,,,,,None,Less than half,Many,Most,Few,All,Half,More than half,Some,-0.410598958,0.232951389,1,0,0,QQQ7,,,,,,,,English,2020-07-02_11h01.41.311,Experiment_English,3.2.4,MacIntel,60,,,,,,,,,,,,,,,,,,,,,1,0,340,297,1,339,ratio43_8_14_13.png,,,,,,,,,,,,
,,,,,,,,,,,,More than half,Some,Half,Most,None,Many,All,Less than half,Few,0.41515191,0.291341146,1,0,0,QQQ1,,,,,,,,English,2020-07-02_11h01.41.311,Experiment_English,3.2.4,MacIntel,60,,,,,,,,,,,,,,,,,,,,,1,0,340,229,1,339,ratio32_6_10_9.png,,,,,,,,,,,,
,,,,,,,,,,,,Half,Some,Many,All,Few,More than half,None,Less than half,Most,0.392773437,0.282144097,1,0,0,QQQ1,,,,,,,,English,2020-07-02_11h01.41.311,Experiment_English,3.2.4,MacIntel,60,,,,,,,,,,,,,,,,,,,,,1,0,340,193,1,339,ratio23_6_15_9.png,,,,,,,,,,,,
,,,,,,,,,,,,Most,All,Many,Few,None,Some,More than half,Less than half,Half,-0.027313368,-0.07108941,1,0,0,QQQ5,,,,,,,,English,2020-07-02_11h01.41.311,Experiment_English,3.2.4,MacIntel,60,,,,,,,,,,,,,,,,,,,,,1,0,340,74,1,339,ratio0Y_0_15_10.png,,,,,,,,,,,,
,,,,,,,,,,,,More than half,Less than half,Some,All,Most,Many,Few,Half,None,0.394674479,0.230568576,1,0,0,QQQ1,,,,,,,,English,2020-07-02_11h01.41.311,Experiment_English,3.2.4,MacIntel,60,,,,,,,,,,,,,,,,,,,,,1,0,340,236,1,339,ratio32_12_20_2.png,,,,,,,,,,,,
,,,,,,,,,,,,None,Few,Some,More than half,Many,All,Half,Less than half,Most,-0.058806424,-0.300112847,1,0,0,QQQ6,,,,,,,,English,2020-07-02_11h01.41.311,Experiment_English,3.2.4,MacIntel,60,,,,,,,,,,,,,,,,,,,,,1,0,340,48,1,339,ratioX0_10_10_1.png,,,,,,,,,,,,
,,,,,,,,,,,,Some,Half,None,Less than half,More than half,Most,Few,Many,All,-0.442065972,-0.032725694,1,0,0,QQQ8,,,,,,,,English,2020-07-02_11h01.41.311,Experiment_English,3.2.4,MacIntel,60,,,,,,,,,,,,,,,,,,,,,1,0,340,179,1,339,ratio21_12_18_8.png,,,,,,,,,,,,
,,,,,,,,,,,,Many,Most,Some,Half,Few,None,Less than half,All,More than half,-0.03609809,0.274231771,1,0,0,QQQ4,,,,,,,,English,2020-07-02_11h01.41.311,Experiment_English,3.2.4,MacIntel,60,,,,,,,,,,,,,,,,,,,,,1,0,340,254,1,339,ratio34_6_14_9.png,,,,,,,,,,,,
,,,,,,,,,,,,Most,Few,Half,More than half,All,Many,None,Less than half,Some,-0.082178819,0.265186632,1,0,0,QQQ4,,,,,,,,English,2020-07-02_11h01.41.311,Experiment_English,3.2.4,MacIntel,60,,,,,,,,,,,,,,,,,,,,,1,0,340,34,1,339,ratio11_8_16_8.png,,,,,,,,,,,,
,,,,,,,,,,,,Many,Most,Some,Less than half,None,More than half,All,Half,Few,0.489344618,0.017491319,1,0,0,QQQ2,,,,,,,,English,2020-07-02_11h01.41.311,Experiment_English,3.2.4,MacIntel,60,,,,,,,,,,,,,,,,,,,,,1,0,340,336,1,339,ratio91_18_20_12.png,,,,,,,,,,,,
,,,,,,,,,,,,More than half,None,Many,Most,All,Less than half,Few,Half,Some,0.467052951,-0.301210937,1,0,0,QQQ3,,,,,,,,English,2020-07-02_11h01.41.311,Experiment_English,3.2.4,MacIntel,60,,,,,,,,,,,,,,,,,,,,,1,0,340,316,1,339,ratio51_15_18_11.png,,,,,,,,,,,,
,,,,,,,,,,,,Some,Half,Few,All,Most,More than half,Many,Less than half,None,-0.47140191,0.253715278,1,0,0,QQQ7,,,,,,,,English,2020-07-02_11h01.41.311,Experiment_English,3.2.4,MacIntel,60,,,,,,,,,,,,,,,,,,,,,1,0,340,313,1,339,ratio51_15_18_2.png,,,,,,,,,,,,
,,,,,,,,,,,,More than half,Many,Less than half,Half,All,Most,Some,None,Few,-0.030299479,-0.259105903,1,0,0,QQQ6,,,,,,,,English,2020-07-02_11h01.41.311,Experiment_English,3.2.4,MacIntel,60,,,,,,,,,,,,,,,,,,,,,1,0,340,321,1,339,ratio91_9_10_2.png,,,,,,,,,,,,
,,,,,,,,,,,,Most,Some,Less than half,More than half,Few,Many,None,Half,All,-0.045811632,-0.033502604,1,0,0,QQQ5,,,,,,,,English,2020-07-02_11h01.41.311,Experiment_English,3.2.4,MacIntel,60,,,,,,,,,,,,,,,,,,,,,1,0,340,103,1,339,ratio14_1_5_9.png,,,,,,,,,,,,
,,,,,,,,,,,,All,More than half,Less than half,Most,Half,Few,Some,Many,None,-0.442296007,-0.062009549,1,0,0,QQQ8,,,,,,,,English,2020-07-02_11h01.41.311,Experiment_English,3.2.4,MacIntel,60,,,,,,,,,,,,,,,,,,,,,1,0,340,168,1,339,ratio21_6_9_3.png,,,,,,,,,,,,
,,,,,,,,,,,,Half,Some,Most,None,More than half,Less than half,All,Many,Few,-0.434561632,-0.004822049,1,0,0,QQQ8,,,,,,,,English,2020-07-02_11h01.41.311,Experiment_English,3.2.4,MacIntel,60,,,,,,,,,,,,,,,,,,,,,1,0,340,270,1,339,ratio41_12_15_3.png,,,,,,,,,,,,
,,,,,,,,,,,,Many,Some,Less than half,Few,Most,Half,More than half,None,All,0.371927083,-0.299778646,1,0,0,QQQ3,,,,,,,,English,2020-07-02_11h01.41.311,Experiment_English,3.2.4,MacIntel,60,,,,,,,,,,,,,,,,,,,,,1,0,340,243,1,339,ratio34_3_7_8.png,,,,,,,,,,,,
,,,,,,,,,,,,Many,Most,None,Less than half,All,More than half,Few,Some,Half,-0.069908854,-0.078185764,1,0,0,QQQ5,,,,,,,,English,2020-07-02_11h01.41.311,Experiment_English,3.2.4,MacIntel,60,,,,,,,,,,,,,,,,,,,,,1,0,340,53,1,339,ratioX0_14_14_8.png,,,,,,,,,,,,
,,,,,,,,,,,,Most,All,Half,Less than half,Many,More than half,Few,Some,None,-0.000104167,-0.033346354,1,0,0,QQQ5,,,,,,,,English,2020-07-02_11h01.41.311,Experiment_English,3.2.4,MacIntel,60,,,,,,,,,,,,,,,,,,,,,1,0,340,174,1,339,ratio21_10_15_1.png,,,,,,,,,,,,
,,,,,,,,,,,,Few,Some,All,Less than half,More than half,Half,Many,Most,None,-0.014448785,-0.233723958,1,0,0,QQQ6,,,,,,,,English,2020-07-02_11h01.41.311,Experiment_English,3.2.4,MacIntel,60,,,,,,,,,,,,,,,,,,,,,1,0,340,246,1,339,ratio34_3_7_11.png,,,,,,,,,,,,
,,,,,,,,,,,,Less than half,None,More than half,Some,All,Few,Many,Half,Most,-0.095416667,0.241427951,1,0,0,QQQ4,,,,,,,,English,2020-07-02_11h01.41.311,Experiment_English,3.2.4,MacIntel,60,,,,,,,,,,,,,,,,,,,,,1,0,340,88,1,339,ratio13_3_12_5.png,,,,,,,,,,,,
,,,,,,,,,,,,More than half,None,All,Few,Most,Many,Half,Less than half,Some,-0.024279514,0.261271701,1,0,0,QQQ4,,,,,,,,English,2020-07-02_11h01.41.311,Experiment_English,3.2.4,MacIntel,60,,,,,,,,,,,,,,,,,,,,,1,0,340,107,1,339,ratio14_2_10_5.png,,,,,,,,,,,,
,,,,,,,,,,,,Few,All,Most,Half,Many,More than half,Some,Less than half,None,-0.036922743,0.260381944,1,0,0,QQQ4,,,,,,,,English,2020-07-02_11h01.41.311,Experiment_English,3.2.4,MacIntel,60,,,,,,,,,,,,,,,,,,,,,1,0,340,237,1,339,ratio32_12_20_5.png,,,,,,,,,,,,
,,,,,,,,,,,,All,Most,More than half,Many,Few,Less than half,Half,Some,None,-0.036922743,0.260381944,1,0,0,QQQ4,,,,,,,,English,2020-07-02_11h01.41.311,Experiment_English,3.2.4,MacIntel,60,,,,,,,,,,,,,,,,,,,,,1,0,340,312,1,339,ratio51_10_12_16.png,0.307513021,-0.409396701,1,0,0,continue_button_pause,1,0,1,0,1,0
,,,,,,,,,,,,,,,,,,,,,,,,,,,,,,,,,,English,2020-07-02_11h01.41.311,Experiment_English,3.2.4,MacIntel,60,,,,,,,,,,,,,,,,,,,,,1,0,340,312,1,339,ratio51_10_12_16.png,,,,,,,,,,,,
,,,,,,,,,,,,Half,Many,None,Some,Most,All,Few,More than half,Less than half,-0.394960937,-0.258337674,1,0,0,QQQ9,,,,,,,,English,2020-07-02_11h01.41.311,Experiment_English,3.2.4,MacIntel,60,,,,,,,,,,,,,,,,,,,,,1,0,340,247,1,339,ratio34_3_7_12.png,,,,,,,,,,,,
,,,,,,,,,,,,Half,Few,Less than half,More than half,Some,All,Most,None,Many,-0.126501736,-0.314335937,1,0,0,QQQ6,,,,,,,,English,2020-07-02_11h01.41.311,Experiment_English,3.2.4,MacIntel,60,,,,,,,,,,,,,,,,,,,,,1,0,340,77,1,339,ratio0Y_0_18_3.png,,,,,,,,,,,,
,,,,,,,,,,,,All,Few,Half,Most,More than half,None,Some,Many,Less than half,-0.012899306,0.018381076,1,0,0,QQQ5,,,,,,,,English,2020-07-02_11h01.41.311,Experiment_English,3.2.4,MacIntel,60,,,,,,,,,,,,,,,,,,,,,1,0,340,334,1,339,ratio91_18_20_9.png,,,,,,,,,,,,
,,,,,,,,,,,,Many,Some,Most,All,None,More than half,Less than half,Half,Few,0.392109375,-0.248151042,1,0,0,QQQ3,,,,,,,,English,2020-07-02_11h01.41.311,Experiment_English,3.2.4,MacIntel,60,,,,,,,,,,,,,,,,,,,,,1,0,340,339,1,339,ratio91_18_20_19.png,,,,,,,,,,,,
,,,,,,,,,,,,Some,Less than half,Few,Half,None,All,More than half,Most,Many,-0.435772569,0.25624566,1,0,0,QQQ7,,,,,,,,English,2020-07-02_11h01.41.311,Experiment_English,3.2.4,MacIntel,60,,,,,,,,,,,,,,,,,,,,,1,0,340,165,1,339,ratio21_4_6_10.png,,,,,,,,,,,,
,,,,,,,,,,,,All,Most,None,Few,Many,Half,Some,Less than half,More than half,-0.396987847,0.245173611,1,0,0,QQQ7,,,,,,,,English,2020-07-02_11h01.41.311,Experiment_English,3.2.4,MacIntel,60,,,,,,,,,,,,,,,,,,,,,1,0,340,95,1,339,ratio13_4_16_10.png,,,,,,,,,,,,
,,,,,,,,,,,,Few,None,Some,Less than half,Many,Most,Half,More than half,All,-0.009761285,-0.025703125,1,0,0,QQQ5,,,,,,,,English,2020-07-02_11h01.41.311,Experiment_English,3.2.4,MacIntel,60,,,,,,,,,,,,,,,,,,,,,1,0,340,276,1,339,ratio41_16_20_4.png,,,,,,,,,,,,
,,,,,,,,,,,,All,Most,Half,More than half,None,Some,Many,Less than half,Few,-0.070655382,-0.250668403,1,0,0,QQQ6,,,,,,,,English,2020-07-02_11h01.41.311,Experiment_English,3.2.4,MacIntel,60,,,,,,,,,,,,,,,,,,,,,1,0,340,7,1,339,ratio12_3_9_2.png,,,,,,,,,,,,
,,,,,,,,,,,,More than half,Most,Many,None,Few,Some,Less than half,Half,All,0.002469618,0.288029514,1,0,0,QQQ4,,,,,,,,English,2020-07-02_11h01.41.311,Experiment_English,3.2.4,MacIntel,60,,,,,,,,,,,,,,,,,,,,,1,0,340,62,1,339,ratio0Y_0_5_4.png,,,,,,,,,,,,
,,,,,,,,,,,,None,Few,Most,Some,All,Less than half,Many,Half,More than half,-0.363012153,-0.257287326,1,0,0,QQQ9,,,,,,,,English,2020-07-02_11h01.41.311,Experiment_English,3.2.4,MacIntel,60,,,,,,,,,,,,,,,,,,,,,1,0,340,22,1,339,ratio11_3_6_6.png,,,,,,,,,,,,
,,,,,,,,,,,,All,Few,Some,Less than half,More than half,Half,Most,None,Many,0.436545139,-0.28046441,1,0,0,QQQ3,,,,,,,,English,2020-07-02_11h01.41.311,Experiment_English,3.2.4,MacIntel,60,,,,,,,,,,,,,,,,,,,,,1,0,340,98,1,339,ratio13_5_20_3.png,,,,,,,,,,,,
,,,,,,,,,,,,Few,Many,Less than half,Half,More than half,Most,Some,None,All,0.432395833,0.211827257,1,0,0,QQQ1,,,,,,,,English,2020-07-02_11h01.41.311,Experiment_English,3.2.4,MacIntel,60,,,,,,,,,,,,,,,,,,,,,1,0,340,146,1,339,ratio19_1_10_17.png,,,,,,,,,,,,
,,,,,,,,,,,,More than half,None,Few,Most,All,Half,Some,Less than half,Many,-0.40687066,-0.002773437,1,0,0,QQQ8,,,,,,,,English,2020-07-02_11h01.41.311,Experiment_English,3.2.4,MacIntel,60,,,,,,,,,,,,,,,,,,,,,1,0,340,253,1,339,ratio34_6_14_5.png,,,,,,,,,,,,
,,,,,,,,,,,,None,Many,Less than half,Half,More than half,Few,All,Most,Some,-0.489904514,0.002456597,1,0,0,QQQ8,,,,,,,,English,2020-07-02_11h01.41.311,Experiment_English,3.2.4,MacIntel,60,,,,,,,,,,,,,,,,,,,,,1,0,340,335,1,339,ratio91_18_20_11.png,,,,,,,,,,,,
,,,,,,,,,,,,Most,Half,Few,Some,None,All,Less than half,More than half,Many,-0.422738715,-0.355056424,1,0,0,QQQ9,,,,,,,,English,2020-07-02_11h01.41.311,Experiment_English,3.2.4,MacIntel,60,,,,,,,,,,,,,,,,,,,,,1,0,340,319,1,339,ratio51_15_18_20.png,,,,,,,,,,,,
,,,,,,,,,,,,Most,Some,Few,All,More than half,Less than half,Half,Many,None,-0.052916667,-0.238741319,1,0,0,QQQ6,,,,,,,,English,2020-07-02_11h01.41.311,Experiment_English,3.2.4,MacIntel,60,,,,,,,,,,,,,,,,,,,,,1,0,340,241,1,339,ratio34_3_7_5.png,,,,,,,,,,,,
,,,,,,,,,,,,Many,Most,More than half,Half,None,Some,Few,All,Less than half,0.405898437,-0.259952257,1,0,0,QQQ3,,,,,,,,English,2020-07-02_11h01.41.311,Experiment_English,3.2.4,MacIntel,60,,,,,,,,,,,,,,,,,,,,,1,0,340,235,1,339,ratio32_12_20_1.png,,,,,,,,,,,,
,,,,,,,,,,,,Half,Many,Less than half,All,Few,Some,None,More than half,Most,-0.423003472,-0.236484375,1,0,0,QQQ9,,,,,,,,English,2020-07-02_11h01.41.311,Experiment_English,3.2.4,MacIntel,60,,,,,,,,,,,,,,,,,,,,,1,0,340,303,1,339,ratio51_5_6_6.png,,,,,,,,,,,,
,,,,,,,,,,,,Many,Half,Most,None,Less than half,All,Some,More than half,Few,0.455638021,0.288689236,1,0,0,QQQ1,,,,,,,,English,2020-07-02_11h01.41.311,Experiment_English,3.2.4,MacIntel,60,,,,,,,,,,,,,,,,,,,,,1,0,340,167,1,339,ratio21_6_9_2.png,,,,,,,,,,,,
,,,,,,,,,,,,Some,More than half,Many,Half,Few,Less than half,None,All,Most,0.462990451,-0.058042535,1,0,0,QQQ2,,,,,,,,English,2020-07-02_11h01.41.311,Experiment_English,3.2.4,MacIntel,60,,,,,,,,,,,,,,,,,,,,,1,0,340,217,1,339,ratio31_15_20_5.png,,,,,,,,,,,,
,,,,,,,,,,,,None,Many,Few,Less than half,Most,All,Some,Half,More than half,-0.022022569,0.240290799,1,0,0,QQQ4,,,,,,,,English,2020-07-02_11h01.41.311,Experiment_English,3.2.4,MacIntel,60,,,,,,,,,,,,,,,,,,,,,1,0,340,94,1,339,ratio13_4_16_8.png,,,,,,,,,,,,
,,,,,,,,,,,,Half,Less than half,All,None,Few,Some,More than half,Many,Most,-0.372673611,-0.270429688,1,0,0,QQQ9,,,,,,,,English,2020-07-02_11h01.41.311,Experiment_English,3.2.4,MacIntel,60,,,,,,,,,,,,,,,,,,,,,1,0,340,260,1,339,ratio41_4_5_2.png,,,,,,,,,,,,
,,,,,,,,,,,,More than half,All,Few,Less than half,Half,Some,Many,Most,None,0.07202691,-0.244878472,1,0,0,QQQ6,,,,,,,,English,2020-07-02_11h01.41.311,Experiment_English,3.2.4,MacIntel,60,,,,,,,,,,,,,,,,,,,,,1,0,340,119,1,339,ratio14_4_20_10.png,,,,,,,,,,,,
,,,,,,,,,,,,Half,All,Less than half,Few,Most,Many,Some,More than half,None,0.506171875,0.332730035,1,0,0,QQQ1,,,,,,,,English,2020-07-02_11h01.41.311,Experiment_English,3.2.4,MacIntel,60,,,,,,,,,,,,,,,,,,,,,1,0,340,20,1,339,ratio11_2_4_3.png,,,,,,,,,,,,
,,,,,,,,,,,,Less than half,Most,Half,None,All,More than half,Few,Many,Some,-0.393806424,0.237439236,1,0,0,QQQ7,,,,,,,,English,2020-07-02_11h01.41.311,Experiment_English,3.2.4,MacIntel,60,,,,,,,,,,,,,,,,,,,,,1,0,340,106,1,339,ratio14_2_10_2.png,,,,,,,,,,,,
,,,,,,,,,,,,Less than half,Few,Some,Many,None,Half,All,Most,More than half,-0.030538194,0.286419271,1,0,0,QQQ4,,,,,,,,English,2020-07-02_11h01.41.311,Experiment_English,3.2.4,MacIntel,60,,,,,,,,,,,,,,,,,,,,,1,0,340,295,1,339,ratio43_8_14_11.png,,,,,,,,,,,,
,,,,,,,,,,,,More than half,Few,None,Many,Some,Less than half,Half,Most,All,0.567243924,0.349600694,1,0,0,QQQ1,,,,,,,,English,2020-07-02_11h01.41.311,Experiment_English,3.2.4,MacIntel,60,,,,,,,,,,,,,,,,,,,,,1,0,340,221,1,339,ratio32_3_5_3.png,,,,,,,,,,,,
,,,,,,,,,,,,Some,Half,Few,More than half,Most,All,Many,Less than half,None,0.060329861,-0.003628472,1,0,0,QQQ5,,,,,,,,English,2020-07-02_11h01.41.311,Experiment_English,3.2.4,MacIntel,60,,,,,,,,,,,,,,,,,,,,,1,0,340,320,1,339,ratio91_9_10_1.png,,,,,,,,,,,,
,,,,,,,,,,,,More than half,Less than half,Some,Many,Few,None,All,Most,Half,-0.450516493,0.282690972,1,0,0,QQQ7,,,,,,,,English,2020-07-02_11h01.41.311,Experiment_English,3.2.4,MacIntel,60,,,,,,,,,,,,,,,,,,,,,1,0,340,40,1,339,ratioX0_3_3_5.png,,,,,,,,,,,,
,,,,,,,,,,,,Most,All,More than half,Many,Less than half,None,Half,Few,Some,0.422118056,-0.266488715,1,0,0,QQQ3,,,,,,,,English,2020-07-02_11h01.41.311,Experiment_English,3.2.4,MacIntel,60,,,,,,,,,,,,,,,,,,,,,1,0,340,164,1,339,ratio21_4_6_6.png,,,,,,,,,,,,
,,,,,,,,,,,,All,Many,Some,Most,Half,Few,Less than half,None,More than half,-0.112860243,0.216753472,1,0,0,QQQ4,,,,,,,,English,2020-07-02_11h01.41.311,Experiment_English,3.2.4,MacIntel,60,,,,,,,,,,,,,,,,,,,,,1,0,340,160,1,339,ratio21_2_3_2.png,,,,,,,,,,,,
,,,,,,,,,,,,More than half,Half,Many,Some,None,All,Most,Less than half,Few,-0.400329861,0.280295139,1,0,0,QQQ7,,,,,,,,English,2020-07-02_11h01.41.311,Experiment_English,3.2.4,MacIntel,60,,,,,,,,,,,,,,,,,,,,,1,0,340,302,1,339,ratio51_5_6_5.png,,,,,,,,,,,,
,,,,,,,,,,,,Few,Half,Most,Some,Many,More than half,None,Less than half,All,-0.101618924,-0.272942708,1,0,0,QQQ6,,,,,,,,English,2020-07-02_11h01.41.311,Experiment_English,3.2.4,MacIntel,60,,,,,,,,,,,,,,,,,,,,,1,0,340,228,1,339,ratio32_6_10_7.png,,,,,,,,,,,,
,,,,,,,,,,,,None,Some,More than half,Half,Many,All,Less than half,Few,Most,-0.373342014,-0.287730035,1,0,0,QQQ9,,,,,,,,English,2020-07-02_11h01.41.311,Experiment_English,3.2.4,MacIntel,60,,,,,,,,,,,,,,,,,,,,,1,0,340,202,1,339,ratio31_3_4_8.png,0.24391059,-0.399917535,1,0,0,continue_button_pause,1,0,1,0,1,0
,,,,,,,,,,,,,,,,,,,,,,,,,,,,,,,,,,English,2020-07-02_11h01.41.311,Experiment_English,3.2.4,MacIntel,60,,,,,,,,,,,,,,,,,,,,,1,0,340,202,1,339,ratio31_3_4_8.png,,,,,,,,,,,,
,,,,,,,,,,,,Some,Most,Many,None,Half,Less than half,Few,All,More than half,0.377578125,-0.289157986,1,0,0,QQQ3,,,,,,,,English,2020-07-02_11h01.41.311,Experiment_English,3.2.4,MacIntel,60,,,,,,,,,,,,,,,,,,,,,1,0,340,218,1,339,ratio31_15_20_7.png,,,,,,,,,,,,
,,,,,,,,,,,,None,Half,Few,Many,Most,Less than half,Some,More than half,All,-0.045108507,0.319778646,1,0,0,QQQ4,,,,,,,,English,2020-07-02_11h01.41.311,Experiment_English,3.2.4,MacIntel,60,,,,,,,,,,,,,,,,,,,,,1,0,340,213,1,339,ratio31_12_16_2.png,,,,,,,,,,,,
,,,,,,,,,,,,More than half,Many,Most,All,Few,Half,Some,Less than half,None,-0.066831597,0.040013021,1,0,0,QQQ5,,,,,,,,English,2020-07-02_11h01.41.311,Experiment_English,3.2.4,MacIntel,60,,,,,,,,,,,,,,,,,,,,,1,0,340,125,1,339,ratio15_1_6_19.png,,,,,,,,,,,,
,,,,,,,,,,,,Few,Most,Less than half,Half,None,Many,More than half,Some,All,-0.376315104,-0.246263021,1,0,0,QQQ9,,,,,,,,English,2020-07-02_11h01.41.311,Experiment_English,3.2.4,MacIntel,60,,,,,,,,,,,,,,,,,,,,,1,0,340,49,1,339,ratioX0_11_11_2.png,,,,,,,,,,,,
,,,,,,,,,,,,Less than half,None,Most,Many,Few,Half,More than half,Some,All,-0.071219618,-0.017226563,1,0,0,QQQ5,,,,,,,,English,2020-07-02_11h01.41.311,Experiment_English,3.2.4,MacIntel,60,,,,,,,,,,,,,,,,,,,,,1,0,340,86,1,339,ratio13_2_8_6.png,,,,,,,,,,,,
,,,,,,,,,,,,Few,Less than half,All,Some,Many,Most,More than half,Half,None,0.411831597,0.212556424,1,0,0,QQQ1,,,,,,,,English,2020-07-02_11h01.41.311,Experiment_English,3.2.4,MacIntel,60,,,,,,,,,,,,,,,,,,,,,1,0,340,140,1,339,ratio19_1_10_1.png,,,,,,,,,,,,
,,,,,,,,,,,,Few,Some,More than half,None,Less than half,All,Most,Many,Half,0.357929687,0.280872396,1,0,0,QQQ1,,,,,,,,English,2020-07-02_11h01.41.311,Experiment_English,3.2.4,MacIntel,60,,,,,,,,,,,,,,,,,,,,,1,0,340,105,1,339,ratio14_2_10_1.png,,,,,,,,,,,,
,,,,,,,,,,,,Half,Many,Less than half,Most,All,None,Few,More than half,Some,-0.372925347,0.295729167,1,0,0,QQQ7,,,,,,,,English,2020-07-02_11h01.41.311,Experiment_English,3.2.4,MacIntel,60,,,,,,,,,,,,,,,,,,,,,1,0,340,120,1,339,ratio15_1_6_1.png,,,,,,,,,,,,
,,,,,,,,,,,,Few,None,Half,Most,Some,Many,All,Less than half,More than half,0.400286458,0.308476562,1,0,0,QQQ1,,,,,,,,English,2020-07-02_11h01.41.311,Experiment_English,3.2.4,MacIntel,60,,,,,,,,,,,,,,,,,,,,,1,0,340,151,1,339,ratio19_2_20_4.png,,,,,,,,,,,,
,,,,,,,,,,,,Some,Half,Many,Less than half,Few,Most,None,More than half,All,-0.421124132,-0.040742187,1,0,0,QQQ8,,,,,,,,English,2020-07-02_11h01.41.311,Experiment_English,3.2.4,MacIntel,60,,,,,,,,,,,,,,,,,,,,,1,0,340,162,1,339,ratio21_2_3_9.png,,,,,,,,,,,,
,,,,,,,,,,,,Many,Some,More than half,Most,Half,Less than half,Few,All,None,-0.392951389,-0.262456597,1,0,0,QQQ9,,,,,,,,English,2020-07-02_11h01.41.311,Experiment_English,3.2.4,MacIntel,60,,,,,,,,,,,,,,,,,,,,,1,0,340,66,1,339,ratio0Y_0_9_8.png,,,,,,,,,,,,
,,,,,,,,,,,,None,More than half,Many,Half,All,Some,Few,Most,Less than half,0.025716146,-0.255616319,1,0,0,QQQ6,,,,,,,,English,2020-07-02_11h01.41.311,Experiment_English,3.2.4,MacIntel,60,,,,,,,,,,,,,,,,,,,,,1,0,340,114,1,339,ratio14_3_15_10.png,,,,,,,,,,,,
,,,,,,,,,,,,None,All,Many,Most,Half,Few,More than half,Less than half,Some,0.077756076,0.300507813,1,0,0,QQQ4,,,,,,,,English,2020-07-02_11h01.41.311,Experiment_English,3.2.4,MacIntel,60,,,,,,,,,,,,,,,,,,,,,1,0,340,267,1,339,ratio41_8_10_4.png,,,,,,,,,,,,
,,,,,,,,,,,,None,Many,Few,More than half,Some,Half,Less than half,Most,All,0.452096354,-0.326072049,1,0,0,QQQ3,,,,,,,,English,2020-07-02_11h01.41.311,Experiment_English,3.2.4,MacIntel,60,,,,,,,,,,,,,,,,,,,,,1,0,340,144,1,339,ratio19_1_10_11.png,,,,,,,,,,,,
,,,,,,,,,,,,All,Few,Half,More than half,Most,None,Some,Less than half,Many,0.389110243,-0.265095486,1,0,0,QQQ3,,,,,,,,English,2020-07-02_11h01.41.311,Experiment_English,3.2.4,MacIntel,60,,,,,,,,,,,,,,,,,,,,,1,0,340,185,1,339,ratio23_4_10_1.png,,,,,,,,,,,,
,,,,,,,,,,,,Most,All,Some,Few,More than half,None,Half,Many,Less than half,0.390568576,-0.294131944,1,0,0,QQQ3,,,,,,,,English,2020-07-02_11h01.41.311,Experiment_English,3.2.4,MacIntel,60,,,,,,,,,,,,,,,,,,,,,1,0,340,137,1,339,ratio15_3_18_16.png,,,,,,,,,,,,
,,,,,,,,,,,,Few,All,Most,More than half,Less than half,Many,Some,Half,None,-0.034201389,-0.052790799,1,0,0,QQQ5,,,,,,,,English,2020-07-02_11h01.41.311,Experiment_English,3.2.4,MacIntel,60,,,,,,,,,,,,,,,,,,,,,1,0,340,92,1,339,ratio13_4_16_3.png,,,,,,,,,,,,
,,,,,,,,,,,,Few,More than half,Some,All,Most,Half,Less than half,Many,None,0.409040799,0.002664931,1,0,0,QQQ2,,,,,,,,English,2020-07-02_11h01.41.311,Experiment_English,3.2.4,MacIntel,60,,,,,,,,,,,,,,,,,,,,,1,0,340,286,1,339,ratio43_4_7_15.png,,,,,,,,,,,,
,,,,,,,,,,,,Some,Half,Most,Less than half,All,Few,Many,More than half,None,-0.064479167,-0.319383681,1,0,0,QQQ6,,,,,,,,English,2020-07-02_11h01.41.311,Experiment_English,3.2.4,MacIntel,60,,,,,,,,,,,,,,,,,,,,,1,0,340,108,1,339,ratio14_2_10_6.png,,,,,,,,,,,,
,,,,,,,,,,,,Half,None,Most,More than half,Some,All,Less than half,Few,Many,-0.427126736,0.248559028,1,0,0,QQQ7,,,,,,,,English,2020-07-02_11h01.41.311,Experiment_English,3.2.4,MacIntel,60,,,,,,,,,,,,,,,,,,,,,1,0,340,186,1,339,ratio23_4_10_2.png,,,,,,,,,,,,
,,,,,,,,,,,,Some,All,Half,Many,None,Few,Less than half,More than half,Most,-0.067213542,-0.027226562,1,0,0,QQQ5,,,,,,,,English,2020-07-02_11h01.41.311,Experiment_English,3.2.4,MacIntel,60,,,,,,,,,,,,,,,,,,,,,1,0,340,72,1,339,ratio0Y_0_13_4.png,,,,,,,,,,,,
,,,,,,,,,,,,Few,Less than half,Many,Half,More than half,Some,None,Most,All,-0.38296875,-0.024904514,1,0,0,QQQ8,,,,,,,,English,2020-07-02_11h01.41.311,Experiment_English,3.2.4,MacIntel,60,,,,,,,,,,,,,,,,,,,,,1,0,340,208,1,339,ratio31_9_12_3.png,,,,,,,,,,,,
,,,,,,,,,,,,Some,Less than half,Few,All,None,More than half,Many,Half,Most,-0.479375,-0.333493924,1,0,0,QQQ9,,,,,,,,English,2020-07-02_11h01.41.311,Experiment_English,3.2.4,MacIntel,60,,,,,,,,,,,,,,,,,,,,,1,0,340,311,1,339,ratio51_10_12_14.png,,,,,,,,,,,,
,,,,,,,,,,,,Most,Half,Many,Less than half,More than half,Some,Few,All,None,-0.402621528,0.287825521,1,0,0,QQQ7,,,,,,,,English,2020-07-02_11h01.41.311,Experiment_English,3.2.4,MacIntel,60,,,,,,,,,,,,,,,,,,,,,1,0,340,2,1,339,ratio12_1_3_10.png,,,,,,,,,,,,
,,,,,,,,,,,,Few,More than half,Some,Less than half,Many,None,All,Half,Most,0.373637153,0.276232639,1,0,0,QQQ1,,,,,,,,English,2020-07-02_11h01.41.311,Experiment_English,3.2.4,MacIntel,60,,,,,,,,,,,,,,,,,,,,,1,0,340,155,1,339,ratio19_2_20_13.png,,,,,,,,,,,,
,,,,,,,,,,,,All,Many,More than half,Less than half,None,Half,Some,Few,Most,-0.405807292,-0.012226562,1,0,0,QQQ8,,,,,,,,English,2020-07-02_11h01.41.311,Experiment_English,3.2.4,MacIntel,60,,,,,,,,,,,,,,,,,,,,,1,0,340,184,1,339,ratio23_2_5_10.png,,,,,,,,,,,,
,,,,,,,,,,,,None,Half,Less than half,Few,Some,More than half,Many,Most,All,0.360503472,-0.324444444,1,0,0,QQQ3,,,,,,,,English,2020-07-02_11h01.41.311,Experiment_English,3.2.4,MacIntel,60,,,,,,,,,,,,,,,,,,,,,1,0,340,296,1,339,ratio43_8_14_12.png,,,,,,,,,,,,
,,,,,,,,,,,,All,Half,Some,Few,Less than half,Most,More than half,Many,None,0.041736111,0.237460937,1,0,0,QQQ4,,,,,,,,English,2020-07-02_11h01.41.311,Experiment_English,3.2.4,MacIntel,60,,,,,,,,,,,,,,,,,,,,,1,0,340,121,1,339,ratio15_1_6_4.png,,,,,,,,,,,,
,,,,,,,,,,,,More than half,Less than half,Few,None,Some,Most,Half,All,Many,-0.029079861,-0.347296007,1,0,0,QQQ6,,,,,,,,English,2020-07-02_11h01.41.311,Experiment_English,3.2.4,MacIntel,60,,,,,,,,,,,,,,,,,,,,,1,0,340,265,1,339,ratio41_8_10_1.png,,,,,,,,,,,,
,,,,,,,,,,,,None,Few,Some,More than half,Many,All,Most,Less than half,Half,-0.423519965,-0.326909722,1,0,0,QQQ9,,,,,,,,English,2020-07-02_11h01.41.311,Experiment_English,3.2.4,MacIntel,60,,,,,,,,,,,,,,,,,,,,,1,0,340,251,1,339,ratio34_6_14_2.png,,,,,,,,,,,,
,,,,,,,,,,,,Most,Few,Less than half,Half,Many,Some,None,All,More than half,-0.401701389,0.23140625,1,0,0,QQQ7,,,,,,,,English,2020-07-02_11h01.41.311,Experiment_English,3.2.4,MacIntel,60,,,,,,,,,,,,,,,,,,,,,1,0,340,78,1,339,ratio0Y_0_19_1.png,,,,,,,,,,,,
,,,,,,,,,,,,All,Less than half,Half,Few,Most,Many,None,More than half,Some,0.051614583,0.285868056,1,0,0,QQQ4,,,,,,,,English,2020-07-02_11h01.41.311,Experiment_English,3.2.4,MacIntel,60,,,,,,,,,,,,,,,,,,,,,1,0,340,143,1,339,ratio19_1_10_9.png,,,,,,,,,,,,
,,,,,,,,,,,,All,None,Few,Many,More than half,Less than half,Some,Half,Most,-0.02046441,-0.297760417,1,0,0,QQQ6,,,,,,,,English,2020-07-02_11h01.41.311,Experiment_English,3.2.4,MacIntel,60,,,,,,,,,,,,,,,,,,,,,1,0,340,117,1,339,ratio14_4_20_6.png,,,,,,,,,,,,
,,,,,,,,,,,,None,Few,All,More than half,Less than half,Most,Half,Many,Some,0.027803819,0.038116319,1,0,0,QQQ5,,,,,,,,English,2020-07-02_11h01.41.311,Experiment_English,3.2.4,MacIntel,60,,,,,,,,,,,,,,,,,,,,,1,0,340,244,1,339,ratio34_3_7_9.png,,,,,,,,,,,,
