continue_mouse.x,continue_mouse.y,continue_mouse.leftButton,continue_mouse.midButton,continue_mouse.rightButton,continue_mouse.clicked_name,continue_mouse_2.x,continue_mouse_2.y,continue_mouse_2.leftButton,continue_mouse_2.midButton,continue_mouse_2.rightButton,continue_mouse_2.clicked_name,Q1,Q2,Q3,Q4,Q5,Q6,Q7,Q8,Q9,select_answer.x,select_answer.y,select_answer.leftButton,select_answer.midButton,select_answer.rightButton,select_answer.clicked_name,trial.thisRepN,trial.thisTrialN,trial.thisN,trial.thisIndex,trial.ran,trial.order,trials,Native tongue*,date,expName,psychopyVersion,OS,frameRate,key_resp.keys,key_resp.rt,Actual_Experiment.thisRepN,Actual_Experiment.thisTrialN,Actual_Experiment.thisN,Actual_Experiment.thisIndex,Actual_Experiment.ran,Actual_Experiment.order,Pic,mouse_pause.x,mouse_pause.y,mouse_pause.leftButton,mouse_pause.midButton,mouse_pause.rightButton,mouse_pause.clicked_name,pause.thisRepN,pause.thisTrialN,pause.thisN,pause.thisIndex,pause.ran,pause.order
0.348888889,-0.437777778,1,0,0,continue_button,0.348888889,-0.435555556,1,0,0,continue_button_2,Few,None,All,Most,Some,Many,Less than half,More than half,Half,-0.45,-0.007777778,1,0,0,QQQ8,1,0,16,0,1,15,ratio91_9_10_19.png,english,2020-07-02_11h03.47.593,Experiment_English,3.2.4,Win32,60,,,,,,,,,,,,,,,,,,,,,
,,,,,,,,,,,,Few,None,Most,Many,Some,Half,All,More than half,Less than half,0.013333333,0.227777778,1,0,0,QQQ4,1,0,16,12,1,15,ratio13_3_12_3.png,english,2020-07-02_11h03.47.593,Experiment_English,3.2.4,Win32,60,,,,,,,,,,,,,,,,,,,,,
,,,,,,,,,,,,More than half,Less than half,All,None,Few,Many,Some,Half,Most,0.05,-0.027777778,1,0,0,QQQ5,1,0,16,14,1,15,ratio11_5_10_6.png,english,2020-07-02_11h03.47.593,Experiment_English,3.2.4,Win32,60,,,,,,,,,,,,,,,,,,,,,
,,,,,,,,,,,,Most,Less than half,None,All,Few,Some,Many,Half,More than half,0.373333333,-0.016666667,1,0,0,QQQ2,1,0,16,2,1,15,ratio43_8_14_19.png,english,2020-07-02_11h03.47.593,Experiment_English,3.2.4,Win32,60,,,,,,,,,,,,,,,,,,,,,
,,,,,,,,,,,,All,More than half,Half,Some,Less than half,None,Few,Many,Most,-0.398888889,-0.02,1,0,0,QQQ8,1,0,16,6,1,15,ratio31_12_16_7.png,english,2020-07-02_11h03.47.593,Experiment_English,3.2.4,Win32,60,,,,,,,,,,,,,,,,,,,,,
,,,,,,,,,,,,Most,Less than half,Many,Few,All,None,Half,More than half,Some,0.578888889,0.312222222,1,0,0,QQQ1,,,,,,,,english,2020-07-02_11h03.47.593,Experiment_English,3.2.4,Win32,60,b,18.42400002,1,0,340,319,1,339,ratio51_15_18_20.png,,,,,,,,,,,,
,,,,,,,,,,,,All,Half,Less than half,Many,Some,None,Most,Few,More than half,-0.425555556,0.246666667,1,0,0,QQQ7,,,,,,,,english,2020-07-02_11h03.47.593,Experiment_English,3.2.4,Win32,60,,,1,0,340,310,1,339,ratio51_10_12_12.png,,,,,,,,,,,,
,,,,,,,,,,,,All,None,Many,Half,Most,More than half,Few,Less than half,Some,-0.014444444,-0.306666667,1,0,0,QQQ6,,,,,,,,english,2020-07-02_11h03.47.593,Experiment_English,3.2.4,Win32,60,,,1,0,340,161,1,339,ratio21_2_3_8.png,,,,,,,,,,,,
,,,,,,,,,,,,Most,None,Half,Few,All,Less than half,More than half,Some,Many,0.062222222,0.31,1,0,0,QQQ4,,,,,,,,english,2020-07-02_11h03.47.593,Experiment_English,3.2.4,Win32,60,,,1,0,340,89,1,339,ratio13_3_12_6.png,,,,,,,,,,,,
,,,,,,,,,,,,Many,Less than half,Most,Half,None,More than half,All,Few,Some,-0.373333333,0.063333333,1,0,0,QQQ8,,,,,,,,english,2020-07-02_11h03.47.593,Experiment_English,3.2.4,Win32,60,,,1,0,340,317,1,339,ratio51_15_18_13.png,,,,,,,,,,,,
,,,,,,,,,,,,Less than half,Many,Most,All,Half,Few,None,Some,More than half,0.123333333,-0.245555556,1,0,0,QQQ6,,,,,,,,english,2020-07-02_11h03.47.593,Experiment_English,3.2.4,Win32,60,,,1,0,340,12,1,339,ratio12_4_12_10.png,,,,,,,,,,,,
,,,,,,,,,,,,All,Many,Half,Few,Less than half,More than half,Some,None,Most,0.066666667,0.25,1,0,0,QQQ4,,,,,,,,english,2020-07-02_11h03.47.593,Experiment_English,3.2.4,Win32,60,,,1,0,340,2,1,339,ratio12_1_3_10.png,,,,,,,,,,,,
,,,,,,,,,,,,Most,Less than half,More than half,Many,All,Some,None,Half,Few,-0.563333333,-0.351111111,1,0,0,QQQ9,,,,,,,,english,2020-07-02_11h03.47.593,Experiment_English,3.2.4,Win32,60,,,1,0,340,18,1,339,ratio12_6_18_7.png,,,,,,,,,,,,
,,,,,,,,,,,,More than half,All,Half,Many,Some,Most,Few,None,Less than half,-0.471111111,0.248888889,1,0,0,QQQ7,,,,,,,,english,2020-07-02_11h03.47.593,Experiment_English,3.2.4,Win32,60,,,1,0,340,152,1,339,ratio19_2_20_6.png,,,,,,,,,,,,
,,,,,,,,,,,,Less than half,Most,None,Half,Some,Few,All,More than half,Many,0.457777778,-0.284444444,1,0,0,QQQ3,,,,,,,,english,2020-07-02_11h03.47.593,Experiment_English,3.2.4,Win32,60,,,1,0,340,65,1,339,ratio0Y_0_8_4.png,,,,,,,,,,,,
,,,,,,,,,,,,All,Half,None,Less than half,Few,Some,Most,Many,More than half,-0.393333333,0.022222222,1,0,0,QQQ8,,,,,,,,english,2020-07-02_11h03.47.593,Experiment_English,3.2.4,Win32,60,,,1,0,340,265,1,339,ratio41_8_10_1.png,,,,,,,,,,,,
,,,,,,,,,,,,All,Less than half,None,More than half,Most,Some,Half,Many,Few,-0.391111111,0.022222222,1,0,0,QQQ8,,,,,,,,english,2020-07-02_11h03.47.593,Experiment_English,3.2.4,Win32,60,,,1,0,340,261,1,339,ratio41_4_5_3.png,,,,,,,,,,,,
,,,,,,,,,,,,More than half,Half,Few,Some,Most,All,Many,None,Less than half,0.05,0.274444444,1,0,0,QQQ4,,,,,,,,english,2020-07-02_11h03.47.593,Experiment_English,3.2.4,Win32,60,,,1,0,340,13,1,339,ratio12_5_15_3.png,,,,,,,,,,,,
,,,,,,,,,,,,None,Many,Few,More than half,All,Some,Half,Most,Less than half,0.465555556,-0.256666667,1,0,0,QQQ3,,,,,,,,english,2020-07-02_11h03.47.593,Experiment_English,3.2.4,Win32,60,,,1,0,340,87,1,339,ratio13_2_8_8.png,,,,,,,,,,,,
,,,,,,,,,,,,Some,More than half,Less than half,None,Few,All,Many,Most,Half,0.113333333,-0.033333333,1,0,0,QQQ5,,,,,,,,english,2020-07-02_11h03.47.593,Experiment_English,3.2.4,Win32,60,,,1,0,340,180,1,339,ratio23_2_5_4.png,,,,,,,,,,,,
,,,,,,,,,,,,Less than half,None,All,Most,Half,Many,Few,More than half,Some,0.434444444,0.294444444,1,0,0,QQQ1,,,,,,,,english,2020-07-02_11h03.47.593,Experiment_English,3.2.4,Win32,60,,,1,0,340,195,1,339,ratio23_8_20_1.png,,,,,,,,,,,,
,,,,,,,,,,,,Half,Few,Less than half,None,Some,Most,More than half,All,Many,0.516666667,-0.372222222,1,0,0,QQQ3,,,,,,,,english,2020-07-02_11h03.47.593,Experiment_English,3.2.4,Win32,60,,,1,0,340,189,1,339,ratio23_4_10_8.png,,,,,,,,,,,,
,,,,,,,,,,,,Many,Less than half,Few,Some,None,Most,All,Half,More than half,-0.053333333,0.306666667,1,0,0,QQQ4,,,,,,,,english,2020-07-02_11h03.47.593,Experiment_English,3.2.4,Win32,60,,,1,0,340,285,1,339,ratio43_4_7_14.png,,,,,,,,,,,,
,,,,,,,,,,,,Most,All,Half,Some,Less than half,None,More than half,Many,Few,-0.493333333,0.345555556,1,0,0,QQQ7,,,,,,,,english,2020-07-02_11h03.47.593,Experiment_English,3.2.4,Win32,60,,,1,0,340,224,1,339,ratio32_3_5_10.png,,,,,,,,,,,,
,,,,,,,,,,,,Few,All,Half,None,Many,More than half,Most,Some,Less than half,-0.375555556,0.278888889,1,0,0,QQQ7,,,,,,,,english,2020-07-02_11h03.47.593,Experiment_English,3.2.4,Win32,60,,,1,0,340,215,1,339,ratio31_12_16_8.png,,,,,,,,,,,,
,,,,,,,,,,,,Most,Few,None,Half,All,Many,Some,More than half,Less than half,0.421111111,-0.038888889,1,0,0,QQQ2,,,,,,,,english,2020-07-02_11h03.47.593,Experiment_English,3.2.4,Win32,60,,,1,0,340,132,1,339,ratio15_2_12_16.png,,,,,,,,,,,,
,,,,,,,,,,,,Few,Half,Most,Less than half,Some,Many,None,More than half,All,0.376666667,0.34,1,0,0,QQQ1,,,,,,,,english,2020-07-02_11h03.47.593,Experiment_English,3.2.4,Win32,60,,,1,0,340,106,1,339,ratio14_2_10_2.png,,,,,,,,,,,,
,,,,,,,,,,,,Few,All,Many,Less than half,Half,Some,Most,More than half,None,0.414444444,0.335555556,1,0,0,QQQ1,,,,,,,,english,2020-07-02_11h03.47.593,Experiment_English,3.2.4,Win32,60,,,1,0,340,88,1,339,ratio13_3_12_5.png,,,,,,,,,,,,
,,,,,,,,,,,,Most,All,More than half,Few,None,Half,Some,Less than half,Many,0.414444444,0.335555556,1,0,0,QQQ1,,,,,,,,english,2020-07-02_11h03.47.593,Experiment_English,3.2.4,Win32,60,,,1,0,340,139,1,339,ratio15_3_18_20.png,,,,,,,,,,,,
,,,,,,,,,,,,Half,Some,Most,All,More than half,Many,Few,Less than half,None,0.025555556,0.317777778,1,0,0,QQQ4,,,,,,,,english,2020-07-02_11h03.47.593,Experiment_English,3.2.4,Win32,60,,,1,0,340,40,1,339,ratioX0_3_3_5.png,,,,,,,,,,,,
,,,,,,,,,,,,Half,Some,Most,Many,None,All,Less than half,More than half,Few,0.51,-0.298888889,1,0,0,QQQ3,,,,,,,,english,2020-07-02_11h03.47.593,Experiment_English,3.2.4,Win32,60,,,1,0,340,313,1,339,ratio51_15_18_2.png,,,,,,,,,,,,
,,,,,,,,,,,,Few,All,Most,None,Many,Half,More than half,Some,Less than half,0.48,-0.29,1,0,0,QQQ3,,,,,,,,english,2020-07-02_11h03.47.593,Experiment_English,3.2.4,Win32,60,,,1,0,340,316,1,339,ratio51_15_18_11.png,,,,,,,,,,,,
,,,,,,,,,,,,All,Half,Few,Some,None,Most,Less than half,Many,More than half,0.515555556,-0.064444444,1,0,0,QQQ2,,,,,,,,english,2020-07-02_11h03.47.593,Experiment_English,3.2.4,Win32,60,,,1,0,340,35,1,339,ratio11_8_16_10.png,,,,,,,,,,,,
,,,,,,,,,,,,Half,Few,All,None,More than half,Most,Some,Many,Less than half,-0.445555556,-0.31,1,0,0,QQQ9,,,,,,,,english,2020-07-02_11h03.47.593,Experiment_English,3.2.4,Win32,60,,,1,0,340,244,1,339,ratio34_3_7_9.png,,,,,,,,,,,,
,,,,,,,,,,,,Few,Some,Many,More than half,Less than half,All,Half,Most,None,-0.086666667,0.012222222,1,0,0,QQQ5,,,,,,,,english,2020-07-02_11h03.47.593,Experiment_English,3.2.4,Win32,60,,,1,0,340,292,1,339,ratio43_8_14_6.png,,,,,,,,,,,,
,,,,,,,,,,,,Some,Less than half,Most,None,Half,All,Many,More than half,Few,-0.406666667,-0.311111111,1,0,0,QQQ9,,,,,,,,english,2020-07-02_11h03.47.593,Experiment_English,3.2.4,Win32,60,,,1,0,340,16,1,339,ratio12_5_15_6.png,,,,,,,,,,,,
,,,,,,,,,,,,Many,Few,All,Some,Half,Most,Less than half,More than half,None,0.432222222,-0.044444444,1,0,0,QQQ2,,,,,,,,english,2020-07-02_11h03.47.593,Experiment_English,3.2.4,Win32,60,,,1,0,340,143,1,339,ratio19_1_10_9.png,,,,,,,,,,,,
,,,,,,,,,,,,Many,Half,Few,Most,More than half,Some,Less than half,All,None,0.115555556,0.227777778,1,0,0,QQQ4,,,,,,,,english,2020-07-02_11h03.47.593,Experiment_English,3.2.4,Win32,60,,,1,0,340,320,1,339,ratio91_9_10_1.png,,,,,,,,,,,,
,,,,,,,,,,,,Most,Some,Half,Many,Few,More than half,None,All,Less than half,0.511111111,-0.268888889,1,0,0,QQQ3,,,,,,,,english,2020-07-02_11h03.47.593,Experiment_English,3.2.4,Win32,60,,,1,0,340,22,1,339,ratio11_3_6_6.png,0.377777778,-0.358888889,1,0,0,continue_button_pause,1,0,1,0,1,0
,,,,,,,,,,,,,,,,,,,,,,,,,,,,,,,,,,english,2020-07-02_11h03.47.593,Experiment_English,3.2.4,Win32,60,,,1,0,340,22,1,339,ratio11_3_6_6.png,,,,,,,,,,,,
,,,,,,,,,,,,Few,None,Half,Most,Many,All,Less than half,Some,More than half,-0.077777778,0.322222222,1,0,0,QQQ4,,,,,,,,english,2020-07-02_11h03.47.593,Experiment_English,3.2.4,Win32,60,,,1,0,340,295,1,339,ratio43_8_14_11.png,,,,,,,,,,,,
,,,,,,,,,,,,All,Most,None,Half,More than half,Many,Some,Less than half,Few,0.357777778,-0.233333333,1,0,0,QQQ3,,,,,,,,english,2020-07-02_11h03.47.593,Experiment_English,3.2.4,Win32,60,,,1,0,340,78,1,339,ratio0Y_0_19_1.png,,,,,,,,,,,,
,,,,,,,,,,,,Some,Many,Half,All,Few,None,Most,More than half,Less than half,-0.033333333,-0.001111111,1,0,0,QQQ5,,,,,,,,english,2020-07-02_11h03.47.593,Experiment_English,3.2.4,Win32,60,,,1,0,340,91,1,339,ratio13_3_12_10.png,,,,,,,,,,,,
,,,,,,,,,,,,Most,Many,None,All,Less than half,Few,Half,Some,More than half,0.036666667,-0.248888889,1,0,0,QQQ6,,,,,,,,english,2020-07-02_11h03.47.593,Experiment_English,3.2.4,Win32,60,,,1,0,340,97,1,339,ratio13_5_20_2.png,,,,,,,,,,,,
,,,,,,,,,,,,Most,All,Few,Many,None,More than half,Some,Half,Less than half,0.397777778,-0.371111111,1,0,0,QQQ3,,,,,,,,english,2020-07-02_11h03.47.593,Experiment_English,3.2.4,Win32,60,,,1,0,340,120,1,339,ratio15_1_6_1.png,,,,,,,,,,,,
,,,,,,,,,,,,More than half,Half,Some,All,Few,Most,Less than half,None,Many,0.062222222,0.252222222,1,0,0,QQQ4,,,,,,,,english,2020-07-02_11h03.47.593,Experiment_English,3.2.4,Win32,60,,,1,0,340,55,1,339,ratioX0_16_16_3.png,,,,,,,,,,,,
,,,,,,,,,,,,None,Some,Few,More than half,Most,Half,Many,Less than half,All,0.077777778,0.262222222,1,0,0,QQQ4,,,,,,,,english,2020-07-02_11h03.47.593,Experiment_English,3.2.4,Win32,60,,,1,0,340,275,1,339,ratio41_16_20_2.png,,,,,,,,,,,,
,,,,,,,,,,,,Half,Many,More than half,Most,All,Few,Some,Less than half,None,0.028888889,0.291111111,1,0,0,QQQ4,,,,,,,,english,2020-07-02_11h03.47.593,Experiment_English,3.2.4,Win32,60,,,1,0,340,333,1,339,ratio91_18_20_6.png,,,,,,,,,,,,
,,,,,,,,,,,,None,Some,Less than half,All,Most,More than half,Many,Half,Few,-0.487777778,-0.322222222,1,0,0,QQQ9,,,,,,,,english,2020-07-02_11h03.47.593,Experiment_English,3.2.4,Win32,60,,,1,0,340,8,1,339,ratio12_3_9_4.png,,,,,,,,,,,,
,,,,,,,,,,,,Less than half,All,Some,Half,Few,More than half,Most,None,Many,-0.43,0.332222222,1,0,0,QQQ7,,,,,,,,english,2020-07-02_11h03.47.593,Experiment_English,3.2.4,Win32,60,,,1,0,340,306,1,339,ratio51_5_6_18.png,,,,,,,,,,,,
,,,,,,,,,,,,Few,Some,None,Less than half,Many,More than half,Most,All,Half,0.015555556,-0.212222222,1,0,0,QQQ6,,,,,,,,english,2020-07-02_11h03.47.593,Experiment_English,3.2.4,Win32,60,,,1,0,340,167,1,339,ratio21_6_9_2.png,,,,,,,,,,,,
,,,,,,,,,,,,Less than half,More than half,Many,All,Some,Half,Few,Most,None,0.033333333,-0.237777778,1,0,0,QQQ6,,,,,,,,english,2020-07-02_11h03.47.593,Experiment_English,3.2.4,Win32,60,,,1,0,340,27,1,339,ratio11_5_10_7.png,,,,,,,,,,,,
,,,,,,,,,,,,Some,Less than half,Few,None,All,Most,Many,Half,More than half,0.543333333,0.24,1,0,0,QQQ1,,,,,,,,english,2020-07-02_11h03.47.593,Experiment_English,3.2.4,Win32,60,,,1,0,340,186,1,339,ratio23_4_10_2.png,,,,,,,,,,,,
,,,,,,,,,,,,None,Less than half,All,More than half,Some,Half,Most,Few,Many,-0.355555556,0.29,1,0,0,QQQ7,,,,,,,,english,2020-07-02_11h03.47.593,Experiment_English,3.2.4,Win32,60,,,1,0,340,125,1,339,ratio15_1_6_19.png,,,,,,,,,,,,
,,,,,,,,,,,,Some,Less than half,Half,Many,Most,Few,All,None,More than half,0.054444444,0.246666667,1,0,0,QQQ4,,,,,,,,english,2020-07-02_11h03.47.593,Experiment_English,3.2.4,Win32,60,,,1,0,340,312,1,339,ratio51_10_12_16.png,,,,,,,,,,,,
,,,,,,,,,,,,Half,Less than half,Most,None,Few,Some,Many,More than half,All,-0.004444444,0.008888889,1,0,0,QQQ5,,,,,,,,english,2020-07-02_11h03.47.593,Experiment_English,3.2.4,Win32,60,,,1,0,340,138,1,339,ratio15_3_18_17.png,,,,,,,,,,,,
,,,,,,,,,,,,Less than half,Some,Many,Few,Half,Most,None,More than half,All,0.454444444,-0.053333333,1,0,0,QQQ2,,,,,,,,english,2020-07-02_11h03.47.593,Experiment_English,3.2.4,Win32,60,,,1,0,340,150,1,339,ratio19_2_20_1.png,,,,,,,,,,,,
,,,,,,,,,,,,Some,All,Many,Less than half,None,More than half,Few,Half,Most,-0.397777778,0.04,1,0,0,QQQ8,,,,,,,,english,2020-07-02_11h03.47.593,Experiment_English,3.2.4,Win32,60,,,1,0,340,30,1,339,ratio11_6_12_6.png,,,,,,,,,,,,
,,,,,,,,,,,,Most,Half,More than half,Some,All,Many,None,Few,Less than half,0.377777778,-0.376666667,1,0,0,QQQ3,,,,,,,,english,2020-07-02_11h03.47.593,Experiment_English,3.2.4,Win32,60,,,1,0,340,223,1,339,ratio32_3_5_5.png,,,,,,,,,,,,
,,,,,,,,,,,,Less than half,Few,Many,Most,Half,All,Some,None,More than half,0.517777778,-0.044444444,1,0,0,QQQ2,,,,,,,,english,2020-07-02_11h03.47.593,Experiment_English,3.2.4,Win32,60,,,1,0,340,82,1,339,ratio13_1_4_7.png,,,,,,,,,,,,
,,,,,,,,,,,,None,Most,More than half,Half,All,Less than half,Many,Few,Some,0.475555556,-0.28,1,0,0,QQQ3,,,,,,,,english,2020-07-02_11h03.47.593,Experiment_English,3.2.4,Win32,60,,,1,0,340,251,1,339,ratio34_6_14_2.png,,,,,,,,,,,,
,,,,,,,,,,,,None,Some,Most,Less than half,Many,Half,More than half,Few,All,-0.442222222,-0.293333333,1,0,0,QQQ9,,,,,,,,english,2020-07-02_11h03.47.593,Experiment_English,3.2.4,Win32,60,,,1,0,340,41,1,339,ratioX0_4_4_9.png,,,,,,,,,,,,
,,,,,,,,,,,,All,Less than half,Half,More than half,Few,None,Most,Many,Some,-0.023333333,-0.321111111,1,0,0,QQQ6,,,,,,,,english,2020-07-02_11h03.47.593,Experiment_English,3.2.4,Win32,60,,,1,0,340,74,1,339,ratio0Y_0_15_10.png,,,,,,,,,,,,
,,,,,,,,,,,,Many,None,Half,Less than half,Some,All,More than half,Few,Most,-0.062222222,0.278888889,1,0,0,QQQ4,,,,,,,,english,2020-07-02_11h03.47.593,Experiment_English,3.2.4,Win32,60,,,1,0,340,10,1,339,ratio12_4_12_4.png,,,,,,,,,,,,
,,,,,,,,,,,,Less than half,Few,None,Many,Most,Some,Half,All,More than half,0.001111111,0.053333333,1,0,0,QQQ5,,,,,,,,english,2020-07-02_11h03.47.593,Experiment_English,3.2.4,Win32,60,,,1,0,340,218,1,339,ratio31_15_20_7.png,,,,,,,,,,,,
,,,,,,,,,,,,All,Half,Less than half,Many,None,Few,Most,Some,More than half,-0.427777778,0.238888889,1,0,0,QQQ7,,,,,,,,english,2020-07-02_11h03.47.593,Experiment_English,3.2.4,Win32,60,,,1,0,340,262,1,339,ratio41_4_5_4.png,,,,,,,,,,,,
,,,,,,,,,,,,Few,Less than half,Many,Some,More than half,Most,All,Half,None,0.508888889,0.381111111,1,0,0,QQQ1,,,,,,,,english,2020-07-02_11h03.47.593,Experiment_English,3.2.4,Win32,60,,,1,0,340,144,1,339,ratio19_1_10_11.png,,,,,,,,,,,,
,,,,,,,,,,,,All,Few,None,Less than half,Some,Half,Many,Most,More than half,0.553333333,0.044444444,1,0,0,QQQ2,,,,,,,,english,2020-07-02_11h03.47.593,Experiment_English,3.2.4,Win32,60,,,1,0,340,158,1,339,ratio19_2_20_17.png,,,,,,,,,,,,
,,,,,,,,,,,,Many,Most,Less than half,All,Few,Half,None,Some,More than half,0.421111111,0.001111111,1,0,0,QQQ2,,,,,,,,english,2020-07-02_11h03.47.593,Experiment_English,3.2.4,Win32,60,,,1,0,340,177,1,339,ratio21_12_18_1.png,,,,,,,,,,,,
,,,,,,,,,,,,Few,More than half,None,All,Some,Less than half,Half,Many,Most,0.401111111,0.327777778,1,0,0,QQQ1,,,,,,,,english,2020-07-02_11h03.47.593,Experiment_English,3.2.4,Win32,60,,,1,0,340,157,1,339,ratio19_2_20_16.png,,,,,,,,,,,,
,,,,,,,,,,,,Half,Many,None,Most,Few,More than half,All,Less than half,Some,0.066666667,0.054444444,1,0,0,QQQ5,,,,,,,,english,2020-07-02_11h03.47.593,Experiment_English,3.2.4,Win32,60,,,1,0,340,61,1,339,ratio0Y_0_4_7.png,,,,,,,,,,,,
,,,,,,,,,,,,All,More than half,Less than half,Few,Some,Most,Half,None,Many,-0.474444444,-0.017777778,1,0,0,QQQ8,,,,,,,,english,2020-07-02_11h03.47.593,Experiment_English,3.2.4,Win32,60,,,1,0,340,69,1,339,ratio0Y_0_11_6.png,,,,,,,,,,,,
,,,,,,,,,,,,Few,Most,More than half,Many,Less than half,All,None,Half,Some,0.38,-0.025555556,1,0,0,QQQ2,,,,,,,,english,2020-07-02_11h03.47.593,Experiment_English,3.2.4,Win32,60,,,1,0,340,337,1,339,ratio91_18_20_16.png,,,,,,,,,,,,
,,,,,,,,,,,,More than half,Most,Less than half,Half,All,Many,Some,Few,None,0.38,-0.025555556,1,0,0,QQQ2,,,,,,,,english,2020-07-02_11h03.47.593,Experiment_English,3.2.4,Win32,60,,,1,0,340,29,1,339,ratio11_6_12_1.png,0.278888889,-0.355555556,1,0,0,continue_button_pause,1,0,1,0,1,0
,,,,,,,,,,,,,,,,,,,,,,,,,,,,,,,,,,english,2020-07-02_11h03.47.593,Experiment_English,3.2.4,Win32,60,,,1,0,340,29,1,339,ratio11_6_12_1.png,,,,,,,,,,,,
,,,,,,,,,,,,Many,Most,None,More than half,Half,Less than half,Few,All,Some,0.416666667,-0.283333333,1,0,0,QQQ3,,,,,,,,english,2020-07-02_11h03.47.593,Experiment_English,3.2.4,Win32,60,,,1,0,340,70,1,339,ratio0Y_0_12_5.png,,,,,,,,,,,,
,,,,,,,,,,,,None,Most,More than half,Many,Less than half,Some,Few,Half,All,0.087777778,-0.026666667,1,0,0,QQQ5,,,,,,,,english,2020-07-02_11h03.47.593,Experiment_English,3.2.4,Win32,60,,,1,0,340,183,1,339,ratio23_2_5_9.png,,,,,,,,,,,,
,,,,,,,,,,,,Less than half,Some,Many,Most,All,Half,Few,More than half,None,-0.374444444,0.252222222,1,0,0,QQQ7,,,,,,,,english,2020-07-02_11h03.47.593,Experiment_English,3.2.4,Win32,60,,,1,0,340,142,1,339,ratio19_1_10_6.png,,,,,,,,,,,,
,,,,,,,,,,,,Many,Most,Less than half,Some,All,Few,None,More than half,Half,0.044444444,0.344444444,1,0,0,QQQ4,,,,,,,,english,2020-07-02_11h03.47.593,Experiment_English,3.2.4,Win32,60,,,1,0,340,228,1,339,ratio32_6_10_7.png,,,,,,,,,,,,
,,,,,,,,,,,,Some,More than half,Half,Many,Less than half,Most,Few,None,All,-0.528888889,0.362222222,1,0,0,QQQ7,,,,,,,,english,2020-07-02_11h03.47.593,Experiment_English,3.2.4,Win32,60,,,1,0,340,103,1,339,ratio14_1_5_9.png,,,,,,,,,,,,
,,,,,,,,,,,,Some,Most,None,Less than half,Many,Few,More than half,All,Half,-0.018888889,-0.246666667,1,0,0,QQQ6,,,,,,,,english,2020-07-02_11h03.47.593,Experiment_English,3.2.4,Win32,60,,,1,0,340,252,1,339,ratio34_6_14_3.png,,,,,,,,,,,,
,,,,,,,,,,,,None,Half,Some,All,Many,Most,Few,Less than half,More than half,0.528888889,0.282222222,1,0,0,QQQ1,,,,,,,,english,2020-07-02_11h03.47.593,Experiment_English,3.2.4,Win32,60,,,1,0,340,67,1,339,ratio0Y_0_10_10.png,,,,,,,,,,,,
,,,,,,,,,,,,Most,Half,All,Many,Few,Some,Less than half,More than half,None,-0.053333333,0.297777778,1,0,0,QQQ4,,,,,,,,english,2020-07-02_11h03.47.593,Experiment_English,3.2.4,Win32,60,,,1,0,340,174,1,339,ratio21_10_15_1.png,,,,,,,,,,,,
,,,,,,,,,,,,Less than half,Few,None,Some,More than half,Many,Half,All,Most,0.404444444,0.267777778,1,0,0,QQQ1,,,,,,,,english,2020-07-02_11h03.47.593,Experiment_English,3.2.4,Win32,60,,,1,0,340,190,1,339,ratio23_6_15_3.png,,,,,,,,,,,,
,,,,,,,,,,,,Less than half,Some,Many,All,More than half,None,Few,Half,Most,-0.543333333,0.298888889,1,0,0,QQQ7,,,,,,,,english,2020-07-02_11h03.47.593,Experiment_English,3.2.4,Win32,60,,,1,0,340,122,1,339,ratio15_1_6_7.png,,,,,,,,,,,,
,,,,,,,,,,,,Some,Half,Less than half,Most,All,Few,Many,More than half,None,-0.086666667,0.342222222,1,0,0,QQQ4,,,,,,,,english,2020-07-02_11h03.47.593,Experiment_English,3.2.4,Win32,60,,,1,0,340,168,1,339,ratio21_6_9_3.png,,,,,,,,,,,,
,,,,,,,,,,,,Most,None,Some,Few,Half,Many,All,Less than half,More than half,0.354444444,-0.274444444,1,0,0,QQQ3,,,,,,,,english,2020-07-02_11h03.47.593,Experiment_English,3.2.4,Win32,60,,,1,0,340,192,1,339,ratio23_6_15_8.png,,,,,,,,,,,,
,,,,,,,,,,,,Less than half,Some,Few,Most,None,Half,More than half,All,Many,0.018888889,0.305555556,1,0,0,QQQ4,,,,,,,,english,2020-07-02_11h03.47.593,Experiment_English,3.2.4,Win32,60,,,1,0,340,326,1,339,ratio91_9_10_10.png,,,,,,,,,,,,
,,,,,,,,,,,,Half,Few,None,Some,Less than half,Most,Many,All,More than half,-0.08,0.006666667,1,0,0,QQQ5,,,,,,,,english,2020-07-02_11h03.47.593,Experiment_English,3.2.4,Win32,60,,,1,0,340,238,1,339,ratio32_12_20_9.png,,,,,,,,,,,,
,,,,,,,,,,,,All,None,More than half,Few,Less than half,Many,Half,Most,Some,-0.387777778,0.253333333,1,0,0,QQQ7,,,,,,,,english,2020-07-02_11h03.47.593,Experiment_English,3.2.4,Win32,60,,,1,0,340,28,1,339,ratio11_5_10_9.png,,,,,,,,,,,,
,,,,,,,,,,,,None,Few,Some,More than half,Half,All,Many,Most,Less than half,0.393333333,-0.024444444,1,0,0,QQQ2,,,,,,,,english,2020-07-02_11h03.47.593,Experiment_English,3.2.4,Win32,60,,,1,0,340,127,1,339,ratio15_2_12_2.png,,,,,,,,,,,,
,,,,,,,,,,,,Some,All,More than half,Few,Less than half,Most,Half,None,Many,-0.033333333,-0.223333333,1,0,0,QQQ6,,,,,,,,english,2020-07-02_11h03.47.593,Experiment_English,3.2.4,Win32,60,,,1,0,340,277,1,339,ratio41_16_20_8.png,,,,,,,,,,,,
,,,,,,,,,,,,Most,Less than half,All,Many,None,Some,More than half,Few,Half,0.442222222,0.261111111,1,0,0,QQQ1,,,,,,,,english,2020-07-02_11h03.47.593,Experiment_English,3.2.4,Win32,60,,,1,0,340,274,1,339,ratio41_12_15_9.png,,,,,,,,,,,,
,,,,,,,,,,,,Less than half,All,Half,Few,Many,More than half,Some,Most,None,0.055555556,0.264444444,1,0,0,QQQ4,,,,,,,,english,2020-07-02_11h03.47.593,Experiment_English,3.2.4,Win32,60,,,1,0,340,101,1,339,ratio14_1_5_7.png,,,,,,,,,,,,
,,,,,,,,,,,,Many,All,Most,Less than half,Some,Few,None,More than half,Half,0.453333333,0.23,1,0,0,QQQ1,,,,,,,,english,2020-07-02_11h03.47.593,Experiment_English,3.2.4,Win32,60,,,1,0,340,176,1,339,ratio21_10_15_3.png,,,,,,,,,,,,
,,,,,,,,,,,,Half,Some,More than half,All,Many,Few,Less than half,Most,None,0.095555556,0.012222222,1,0,0,QQQ5,,,,,,,,english,2020-07-02_11h03.47.593,Experiment_English,3.2.4,Win32,60,,,1,0,340,204,1,339,ratio31_6_8_1.png,,,,,,,,,,,,
,,,,,,,,,,,,Less than half,Few,Most,Some,Half,Many,All,None,More than half,0.101111111,0.012222222,1,0,0,QQQ5,,,,,,,,english,2020-07-02_11h03.47.593,Experiment_English,3.2.4,Win32,60,,,1,0,340,237,1,339,ratio32_12_20_5.png,,,,,,,,,,,,
,,,,,,,,,,,,Half,More than half,Less than half,Most,None,Some,All,Few,Many,-0.398888889,-0.034444444,1,0,0,QQQ8,,,,,,,,english,2020-07-02_11h03.47.593,Experiment_English,3.2.4,Win32,60,,,1,0,340,267,1,339,ratio41_8_10_4.png,,,,,,,,,,,,
,,,,,,,,,,,,All,Few,Most,Some,Half,More than half,Less than half,Many,None,0.507777778,-0.252222222,1,0,0,QQQ3,,,,,,,,english,2020-07-02_11h03.47.593,Experiment_English,3.2.4,Win32,60,,,1,0,340,266,1,339,ratio41_8_10_2.png,,,,,,,,,,,,
,,,,,,,,,,,,Many,Half,Most,None,Some,All,Less than half,More than half,Few,0.468888889,-0.01,1,0,0,QQQ2,,,,,,,,english,2020-07-02_11h03.47.593,Experiment_English,3.2.4,Win32,60,,,1,0,340,23,1,339,ratio11_3_6_9.png,,,,,,,,,,,,
,,,,,,,,,,,,All,None,Less than half,Few,Most,More than half,Half,Many,Some,-0.443333333,-0.01,1,0,0,QQQ8,,,,,,,,english,2020-07-02_11h03.47.593,Experiment_English,3.2.4,Win32,60,,,1,0,340,294,1,339,ratio43_8_14_9.png,,,,,,,,,,,,
,,,,,,,,,,,,None,Most,Few,All,Half,Many,More than half,Some,Less than half,-0.434444444,-0.01,1,0,0,QQQ8,,,,,,,,english,2020-07-02_11h03.47.593,Experiment_English,3.2.4,Win32,60,,,1,0,340,230,1,339,ratio32_9_15_1.png,,,,,,,,,,,,
,,,,,,,,,,,,More than half,Few,Half,All,Most,Less than half,None,Many,Some,0.493333333,-0.035555556,1,0,0,QQQ2,,,,,,,,english,2020-07-02_11h03.47.593,Experiment_English,3.2.4,Win32,60,,,1,0,340,140,1,339,ratio19_1_10_1.png,,,,,,,,,,,,
,,,,,,,,,,,,Some,Few,Most,All,Half,None,Many,Less than half,More than half,0.005555556,-0.266666667,1,0,0,QQQ6,,,,,,,,english,2020-07-02_11h03.47.593,Experiment_English,3.2.4,Win32,60,,,1,0,340,66,1,339,ratio0Y_0_9_8.png,,,,,,,,,,,,
,,,,,,,,,,,,Few,More than half,Most,Less than half,None,Some,Half,Many,All,0.462222222,0.255555556,1,0,0,QQQ1,,,,,,,,english,2020-07-02_11h03.47.593,Experiment_English,3.2.4,Win32,60,,,1,0,340,136,1,339,ratio15_3_18_8.png,,,,,,,,,,,,
,,,,,,,,,,,,Most,Some,Many,None,More than half,Half,All,Less than half,Few,0.045555556,-0.313333333,1,0,0,QQQ6,,,,,,,,english,2020-07-02_11h03.47.593,Experiment_English,3.2.4,Win32,60,,,1,0,340,198,1,339,ratio23_8_20_7.png,,,,,,,,,,,,
,,,,,,,,,,,,Half,Most,Less than half,More than half,None,Many,All,Few,Some,-0.567777778,-0.306666667,1,0,0,QQQ9,,,,,,,,english,2020-07-02_11h03.47.593,Experiment_English,3.2.4,Win32,60,,,1,0,340,39,1,339,ratio11_10_20_6.png,,,,,,,,,,,,
,,,,,,,,,,,,More than half,Many,Most,None,Half,Few,All,Some,Less than half,-0.122222222,-0.241111111,1,0,0,QQQ6,,,,,,,,english,2020-07-02_11h03.47.593,Experiment_English,3.2.4,Win32,60,,,1,0,340,154,1,339,ratio19_2_20_11.png,,,,,,,,,,,,
,,,,,,,,,,,,Most,Few,Half,Some,None,Many,Less than half,More than half,All,-0.413333333,0.286666667,1,0,0,QQQ7,,,,,,,,english,2020-07-02_11h03.47.593,Experiment_English,3.2.4,Win32,60,,,1,0,340,255,1,339,ratio34_6_14_10.png,0.341111111,-0.416666667,1,0,0,continue_button_pause,1,0,1,0,1,0
,,,,,,,,,,,,,,,,,,,,,,,,,,,,,,,,,,english,2020-07-02_11h03.47.593,Experiment_English,3.2.4,Win32,60,,,1,0,340,255,1,339,ratio34_6_14_10.png,,,,,,,,,,,,
,,,,,,,,,,,,Some,Most,Many,Few,Half,All,More than half,Less than half,None,0.127777778,0.29,1,0,0,QQQ4,,,,,,,,english,2020-07-02_11h03.47.593,Experiment_English,3.2.4,Win32,60,,,1,0,340,131,1,339,ratio15_2_12_14.png,,,,,,,,,,,,
,,,,,,,,,,,,Few,All,Many,Less than half,More than half,Most,None,Some,Half,0.545555556,0.312222222,1,0,0,QQQ1,,,,,,,,english,2020-07-02_11h03.47.593,Experiment_English,3.2.4,Win32,60,,,1,0,340,187,1,339,ratio23_4_10_5.png,,,,,,,,,,,,
,,,,,,,,,,,,Most,All,None,Less than half,Few,Many,More than half,Half,Some,-0.065555556,-0.038888889,1,0,0,QQQ5,,,,,,,,english,2020-07-02_11h03.47.593,Experiment_English,3.2.4,Win32,60,,,1,0,340,123,1,339,ratio15_1_6_12.png,,,,,,,,,,,,
,,,,,,,,,,,,Most,Few,None,Some,Less than half,All,Half,Many,More than half,-0.392222222,0.035555556,1,0,0,QQQ8,,,,,,,,english,2020-07-02_11h03.47.593,Experiment_English,3.2.4,Win32,60,,,1,0,340,169,1,339,ratio21_6_9_7.png,,,,,,,,,,,,
,,,,,,,,,,,,None,Many,Most,Some,Half,Less than half,More than half,All,Few,-0.067777778,-0.268888889,1,0,0,QQQ6,,,,,,,,english,2020-07-02_11h03.47.593,Experiment_English,3.2.4,Win32,60,,,1,0,340,98,1,339,ratio13_5_20_3.png,,,,,,,,,,,,
,,,,,,,,,,,,All,More than half,Half,None,Some,Most,Many,Few,Less than half,-0.354444444,-0.341111111,1,0,0,QQQ9,,,,,,,,english,2020-07-02_11h03.47.593,Experiment_English,3.2.4,Win32,60,,,1,0,340,37,1,339,ratio11_9_18_8.png,,,,,,,,,,,,
,,,,,,,,,,,,More than half,None,Less than half,Most,Many,Few,Some,All,Half,-0.355555556,0.243333333,1,0,0,QQQ7,,,,,,,,english,2020-07-02_11h03.47.593,Experiment_English,3.2.4,Win32,60,,,1,0,340,94,1,339,ratio13_4_16_8.png,,,,,,,,,,,,
,,,,,,,,,,,,Half,Many,Less than half,More than half,None,All,Most,Some,Few,0.022222222,0.28,1,0,0,QQQ4,,,,,,,,english,2020-07-02_11h03.47.593,Experiment_English,3.2.4,Win32,60,,,1,0,340,293,1,339,ratio43_8_14_7.png,,,,,,,,,,,,
,,,,,,,,,,,,Less than half,Some,None,All,Many,Half,Few,More than half,Most,-0.394444444,0.355555556,1,0,0,QQQ7,,,,,,,,english,2020-07-02_11h03.47.593,Experiment_English,3.2.4,Win32,60,,,1,0,340,182,1,339,ratio23_2_5_7.png,,,,,,,,,,,,
,,,,,,,,,,,,Some,More than half,None,Many,Most,Less than half,All,Few,Half,-0.114444444,-0.043333333,1,0,0,QQQ5,,,,,,,,english,2020-07-02_11h03.47.593,Experiment_English,3.2.4,Win32,60,,,1,0,340,339,1,339,ratio91_18_20_19.png,,,,,,,,,,,,
,,,,,,,,,,,,More than half,None,Few,Many,All,Half,Less than half,Some,Most,0.418888889,0.287777778,1,0,0,QQQ1,,,,,,,,english,2020-07-02_11h03.47.593,Experiment_English,3.2.4,Win32,60,,,1,0,340,222,1,339,ratio32_3_5_4.png,,,,,,,,,,,,
,,,,,,,,,,,,Some,Half,Many,Few,None,Less than half,More than half,Most,All,-0.387777778,0.235555556,1,0,0,QQQ7,,,,,,,,english,2020-07-02_11h03.47.593,Experiment_English,3.2.4,Win32,60,,,1,0,340,225,1,339,ratio32_6_10_4.png,,,,,,,,,,,,
,,,,,,,,,,,,Most,All,Many,Some,Less than half,Few,None,More than half,Half,-0.497777778,-0.207777778,1,0,0,QQQ9,,,,,,,,english,2020-07-02_11h03.47.593,Experiment_English,3.2.4,Win32,60,,,1,0,340,235,1,339,ratio32_12_20_1.png,,,,,,,,,,,,
,,,,,,,,,,,,Less than half,Few,More than half,Most,Many,None,All,Half,Some,-0.466666667,0.01,1,0,0,QQQ8,,,,,,,,english,2020-07-02_11h03.47.593,Experiment_English,3.2.4,Win32,60,,,1,0,340,231,1,339,ratio32_9_15_2.png,,,,,,,,,,,,
,,,,,,,,,,,,Less than half,More than half,Half,None,Few,Most,All,Some,Many,-0.35,0.026666667,1,0,0,QQQ8,,,,,,,,english,2020-07-02_11h03.47.593,Experiment_English,3.2.4,Win32,60,,,1,0,340,253,1,339,ratio34_6_14_5.png,,,,,,,,,,,,
,,,,,,,,,,,,Some,Most,Few,None,Many,Half,All,More than half,Less than half,0.372222222,-0.335555556,1,0,0,QQQ3,,,,,,,,english,2020-07-02_11h03.47.593,Experiment_English,3.2.4,Win32,60,,,1,0,340,81,1,339,ratio13_1_4_5.png,,,,,,,,,,,,
,,,,,,,,,,,,None,All,Most,Half,Less than half,Few,More than half,Some,Many,0.076666667,-0.301111111,1,0,0,QQQ6,,,,,,,,english,2020-07-02_11h03.47.593,Experiment_English,3.2.4,Win32,60,,,1,0,340,92,1,339,ratio13_4_16_3.png,,,,,,,,,,,,
,,,,,,,,,,,,Less than half,More than half,Most,Half,Some,All,Many,Few,None,-0.367777778,-0.066666667,1,0,0,QQQ8,,,,,,,,english,2020-07-02_11h03.47.593,Experiment_English,3.2.4,Win32,60,,,1,0,340,85,1,339,ratio13_2_8_5.png,,,,,,,,,,,,
,,,,,,,,,,,,All,Few,Most,Many,More than half,Half,None,Less than half,Some,-0.43,-0.012222222,1,0,0,QQQ8,,,,,,,,english,2020-07-02_11h03.47.593,Experiment_English,3.2.4,Win32,60,,,1,0,340,299,1,339,ratio43_8_14_17.png,,,,,,,,,,,,
,,,,,,,,,,,,Half,Few,Most,Some,Less than half,All,Many,None,More than half,-0.405555556,0.263333333,1,0,0,QQQ7,,,,,,,,english,2020-07-02_11h03.47.593,Experiment_English,3.2.4,Win32,60,,,1,0,340,300,1,339,ratio51_5_6_1.png,,,,,,,,,,,,
,,,,,,,,,,,,Less than half,Most,Many,Few,Half,None,More than half,All,Some,0.1,0.288888889,1,0,0,QQQ4,,,,,,,,english,2020-07-02_11h03.47.593,Experiment_English,3.2.4,Win32,60,,,1,0,340,145,1,339,ratio19_1_10_15.png,,,,,,,,,,,,
,,,,,,,,,,,,Most,None,Less than half,Many,Few,More than half,Some,All,Half,-0.05,0.022222222,1,0,0,QQQ5,,,,,,,,english,2020-07-02_11h03.47.593,Experiment_English,3.2.4,Win32,60,,,1,0,340,171,1,339,ratio21_8_12_4.png,,,,,,,,,,,,
,,,,,,,,,,,,Many,Few,All,Less than half,Some,More than half,Most,None,Half,0.531111111,0.041111111,1,0,0,QQQ2,,,,,,,,english,2020-07-02_11h03.47.593,Experiment_English,3.2.4,Win32,60,,,1,0,340,166,1,339,ratio21_6_9_1.png,,,,,,,,,,,,
,,,,,,,,,,,,Some,All,None,More than half,Less than half,Most,Half,Many,Few,0.115555556,-0.322222222,1,0,0,QQQ6,,,,,,,,english,2020-07-02_11h03.47.593,Experiment_English,3.2.4,Win32,60,,,1,0,340,9,1,339,ratio12_3_9_5.png,,,,,,,,,,,,
,,,,,,,,,,,,More than half,Some,Less than half,Most,None,Few,Half,Many,All,-0.378888889,-0.03,1,0,0,QQQ8,,,,,,,,english,2020-07-02_11h03.47.593,Experiment_English,3.2.4,Win32,60,,,1,0,340,216,1,339,ratio31_15_20_3.png,,,,,,,,,,,,
,,,,,,,,,,,,Few,None,Less than half,Some,All,Many,More than half,Half,Most,-0.476666667,-0.013333333,1,0,0,QQQ8,,,,,,,,english,2020-07-02_11h03.47.593,Experiment_English,3.2.4,Win32,60,,,1,0,340,259,1,339,ratio34_6_14_19.png,,,,,,,,,,,,
,,,,,,,,,,,,Many,Half,None,Less than half,Most,More than half,Some,All,Few,0.04,0.307777778,1,0,0,QQQ4,,,,,,,,english,2020-07-02_11h03.47.593,Experiment_English,3.2.4,Win32,60,,,1,0,340,95,1,339,ratio13_4_16_10.png,,,,,,,,,,,,
,,,,,,,,,,,,Few,Less than half,Most,More than half,Many,All,None,Some,Half,-0.435555556,0.262222222,1,0,0,QQQ7,,,,,,,,english,2020-07-02_11h03.47.593,Experiment_English,3.2.4,Win32,60,,,1,0,340,71,1,339,ratio0Y_0_12_10.png,,,,,,,,,,,,
,,,,,,,,,,,,Less than half,Many,More than half,All,Few,Some,Most,Half,None,-0.348888889,0.317777778,1,0,0,QQQ7,,,,,,,,english,2020-07-02_11h03.47.593,Experiment_English,3.2.4,Win32,60,,,1,0,340,213,1,339,ratio31_12_16_2.png,,,,,,,,,,,,
,,,,,,,,,,,,All,Half,Less than half,More than half,Many,None,Most,Few,Some,-0.01,-0.04,1,0,0,QQQ5,,,,,,,,english,2020-07-02_11h03.47.593,Experiment_English,3.2.4,Win32,60,,,1,0,340,314,1,339,ratio51_15_18_4.png,,,,,,,,,,,,
,,,,,,,,,,,,Some,Half,Less than half,More than half,Most,All,None,Few,Many,-0.01,-0.04,1,0,0,QQQ5,,,,,,,,english,2020-07-02_11h03.47.593,Experiment_English,3.2.4,Win32,60,,,1,0,340,296,1,339,ratio43_8_14_12.png,,,,,,,,,,,,
,,,,,,,,,,,,All,Most,Many,Few,Half,More than half,None,Some,Less than half,0.046666667,0.308888889,1,0,0,QQQ4,,,,,,,,english,2020-07-02_11h03.47.593,Experiment_English,3.2.4,Win32,60,,,1,0,340,141,1,339,ratio19_1_10_2.png,,,,,,,,,,,,
,,,,,,,,,,,,Less than half,Many,More than half,None,All,Some,Half,Few,Most,-0.422222222,0.271111111,1,0,0,QQQ7,,,,,,,,english,2020-07-02_11h03.47.593,Experiment_English,3.2.4,Win32,60,,,1,0,340,175,1,339,ratio21_10_15_2.png,,,,,,,,,,,,
,,,,,,,,,,,,More than half,None,Some,Few,Most,Half,All,Many,Less than half,0.106666667,0.336666667,1,0,0,QQQ4,,,,,,,,english,2020-07-02_11h03.47.593,Experiment_English,3.2.4,Win32,60,,,1,0,340,116,1,339,ratio14_4_20_3.png,0.28,-0.361111111,1,0,0,continue_button_pause,1,0,1,0,1,0
,,,,,,,,,,,,,,,,,,,,,,,,,,,,,,,,,,english,2020-07-02_11h03.47.593,Experiment_English,3.2.4,Win32,60,,,1,0,340,116,1,339,ratio14_4_20_3.png,,,,,,,,,,,,
,,,,,,,,,,,,Some,Less than half,None,Half,Most,All,More than half,Few,Many,0.072222222,0.032222222,1,0,0,QQQ5,,,,,,,,english,2020-07-02_11h03.47.593,Experiment_English,3.2.4,Win32,60,,,1,0,340,172,1,339,ratio21_8_12_6.png,,,,,,,,,,,,
,,,,,,,,,,,,Half,Some,More than half,Few,None,Many,All,Less than half,Most,-0.006666667,0.23,1,0,0,QQQ4,,,,,,,,english,2020-07-02_11h03.47.593,Experiment_English,3.2.4,Win32,60,,,1,0,340,239,1,339,ratio32_12_20_10.png,,,,,,,,,,,,
,,,,,,,,,,,,All,Some,Less than half,None,Most,Half,Many,Few,More than half,0.413333333,-0.004444444,1,0,0,QQQ2,,,,,,,,english,2020-07-02_11h03.47.593,Experiment_English,3.2.4,Win32,60,,,1,0,340,73,1,339,ratio0Y_0_14_7.png,,,,,,,,,,,,
,,,,,,,,,,,,Some,More than half,Less than half,Most,None,All,Few,Many,Half,-0.394444444,0.254444444,1,0,0,QQQ7,,,,,,,,english,2020-07-02_11h03.47.593,Experiment_English,3.2.4,Win32,60,,,1,0,340,245,1,339,ratio34_3_7_10.png,,,,,,,,,,,,
,,,,,,,,,,,,Less than half,Many,Half,More than half,Few,None,Some,Most,All,-0.031111111,0.258888889,1,0,0,QQQ4,,,,,,,,english,2020-07-02_11h03.47.593,Experiment_English,3.2.4,Win32,60,,,1,0,340,279,1,339,ratio41_16_20_10.png,,,,,,,,,,,,
,,,,,,,,,,,,Some,None,Many,Half,Less than half,More than half,Most,All,Few,0.061111111,0.265555556,1,0,0,QQQ4,,,,,,,,english,2020-07-02_11h03.47.593,Experiment_English,3.2.4,Win32,60,,,1,0,340,199,1,339,ratio23_8_20_8.png,,,,,,,,,,,,
,,,,,,,,,,,,All,Many,More than half,Less than half,Most,Few,None,Half,Some,-0.055555556,0.062222222,1,0,0,QQQ5,,,,,,,,english,2020-07-02_11h03.47.593,Experiment_English,3.2.4,Win32,60,,,1,0,340,309,1,339,ratio51_10_12_10.png,,,,,,,,,,,,
,,,,,,,,,,,,Half,None,Most,Few,More than half,All,Less than half,Many,Some,-0.383333333,0.023333333,1,0,0,QQQ8,,,,,,,,english,2020-07-02_11h03.47.593,Experiment_English,3.2.4,Win32,60,,,1,0,340,205,1,339,ratio31_6_8_2.png,,,,,,,,,,,,
,,,,,,,,,,,,Some,Less than half,Many,All,Few,Half,Most,More than half,None,-0.062222222,0.053333333,1,0,0,QQQ5,,,,,,,,english,2020-07-02_11h03.47.593,Experiment_English,3.2.4,Win32,60,,,1,0,340,130,1,339,ratio15_2_12_12.png,,,,,,,,,,,,
,,,,,,,,,,,,Few,Many,Most,All,Half,Some,Less than half,More than half,None,-0.061111111,0.045555556,1,0,0,QQQ5,,,,,,,,english,2020-07-02_11h03.47.593,Experiment_English,3.2.4,Win32,60,,,1,0,340,243,1,339,ratio34_3_7_8.png,,,,,,,,,,,,
,,,,,,,,,,,,Some,Less than half,Few,All,Many,None,Most,More than half,Half,-0.061111111,0.046666667,1,0,0,QQQ5,,,,,,,,english,2020-07-02_11h03.47.593,Experiment_English,3.2.4,Win32,60,,,1,0,340,256,1,339,ratio34_6_14_11.png,,,,,,,,,,,,
,,,,,,,,,,,,Some,Most,Half,All,None,Less than half,Few,More than half,Many,-0.417777778,0.013333333,1,0,0,QQQ8,,,,,,,,english,2020-07-02_11h03.47.593,Experiment_English,3.2.4,Win32,60,,,1,0,340,338,1,339,ratio91_18_20_18.png,,,,,,,,,,,,
,,,,,,,,,,,,Less than half,Half,Most,Some,Many,More than half,None,Few,All,-0.395555556,0.308888889,1,0,0,QQQ7,,,,,,,,english,2020-07-02_11h03.47.593,Experiment_English,3.2.4,Win32,60,,,1,0,340,79,1,339,ratio0Y_0_20_4.png,,,,,,,,,,,,
,,,,,,,,,,,,Many,Less than half,More than half,Half,Some,Few,Most,All,None,0.086666667,-0.078888889,1,0,0,QQQ5,,,,,,,,english,2020-07-02_11h03.47.593,Experiment_English,3.2.4,Win32,60,,,1,0,340,170,1,339,ratio21_6_9_8.png,,,,,,,,,,,,
,,,,,,,,,,,,Less than half,Half,Few,Many,More than half,None,All,Most,Some,0.393333333,-0.041111111,1,0,0,QQQ2,,,,,,,,english,2020-07-02_11h03.47.593,Experiment_English,3.2.4,Win32,60,,,1,0,340,233,1,339,ratio32_9_15_9.png,,,,,,,,,,,,
,,,,,,,,,,,,Many,All,Most,Less than half,More than half,Half,None,Few,Some,-0.426666667,0.035555556,1,0,0,QQQ8,,,,,,,,english,2020-07-02_11h03.47.593,Experiment_English,3.2.4,Win32,60,,,1,0,340,248,1,339,ratio34_3_7_19.png,,,,,,,,,,,,
,,,,,,,,,,,,Half,Few,Less than half,Many,Most,Some,More than half,All,None,-0.106666667,-0.288888889,1,0,0,QQQ6,,,,,,,,english,2020-07-02_11h03.47.593,Experiment_English,3.2.4,Win32,60,,,1,0,340,86,1,339,ratio13_2_8_6.png,,,,,,,,,,,,
,,,,,,,,,,,,Many,Most,Less than half,All,Half,Few,None,More than half,Some,-0.01,-0.048888889,1,0,0,QQQ5,,,,,,,,english,2020-07-02_11h03.47.593,Experiment_English,3.2.4,Win32,60,,,1,0,340,257,1,339,ratio34_6_14_12.png,,,,,,,,,,,,
,,,,,,,,,,,,Half,Few,Less than half,Most,Some,None,Many,All,More than half,0.407777778,-0.015555556,1,0,0,QQQ2,,,,,,,,english,2020-07-02_11h03.47.593,Experiment_English,3.2.4,Win32,60,,,1,0,340,117,1,339,ratio14_4_20_6.png,,,,,,,,,,,,
,,,,,,,,,,,,More than half,None,All,Most,Less than half,Few,Many,Some,Half,0.534444444,-0.306666667,1,0,0,QQQ3,,,,,,,,english,2020-07-02_11h03.47.593,Experiment_English,3.2.4,Win32,60,,,1,0,340,321,1,339,ratio91_9_10_2.png,,,,,,,,,,,,
,,,,,,,,,,,,Most,None,Half,Less than half,More than half,Few,Many,Some,All,0.111111111,0.201111111,1,0,0,QQQ4,,,,,,,,english,2020-07-02_11h03.47.593,Experiment_English,3.2.4,Win32,60,,,1,0,340,246,1,339,ratio34_3_7_11.png,,,,,,,,,,,,
,,,,,,,,,,,,Many,Less than half,All,None,More than half,Some,Few,Most,Half,0.033333333,0.052222222,1,0,0,QQQ5,,,,,,,,english,2020-07-02_11h03.47.593,Experiment_English,3.2.4,Win32,60,,,1,0,340,334,1,339,ratio91_18_20_9.png,,,,,,,,,,,,
,,,,,,,,,,,,Less than half,None,All,Half,More than half,Many,Few,Some,Most,0.386666667,-0.288888889,1,0,0,QQQ3,,,,,,,,english,2020-07-02_11h03.47.593,Experiment_English,3.2.4,Win32,60,,,1,0,340,46,1,339,ratioX0_9_9_3.png,,,,,,,,,,,,
,,,,,,,,,,,,None,Some,Most,More than half,Many,All,Less than half,Few,Half,0.052222222,-0.012222222,1,0,0,QQQ5,,,,,,,,english,2020-07-02_11h03.47.593,Experiment_English,3.2.4,Win32,60,,,1,0,340,272,1,339,ratio41_12_15_7.png,,,,,,,,,,,,
,,,,,,,,,,,,Few,All,More than half,Less than half,Half,Most,Many,None,Some,0.007777778,-0.278888889,1,0,0,QQQ6,,,,,,,,english,2020-07-02_11h03.47.593,Experiment_English,3.2.4,Win32,60,,,1,0,340,305,1,339,ratio51_5_6_14.png,,,,,,,,,,,,
,,,,,,,,,,,,None,Few,Many,More than half,Half,Some,Less than half,Most,All,0.007777778,-0.075555556,1,0,0,QQQ5,,,,,,,,english,2020-07-02_11h03.47.593,Experiment_English,3.2.4,Win32,60,,,1,0,340,236,1,339,ratio32_12_20_2.png,,,,,,,,,,,,
,,,,,,,,,,,,Most,Many,Few,Less than half,Half,More than half,Some,None,All,0.403333333,-0.207777778,1,0,0,QQQ3,,,,,,,,english,2020-07-02_11h03.47.593,Experiment_English,3.2.4,Win32,60,,,1,0,340,112,1,339,ratio14_3_15_4.png,,,,,,,,,,,,
,,,,,,,,,,,,Some,Many,None,Most,Less than half,Few,Half,More than half,All,0.046666667,-0.004444444,1,0,0,QQQ5,,,,,,,,english,2020-07-02_11h03.47.593,Experiment_English,3.2.4,Win32,60,,,1,0,340,282,1,339,ratio43_4_7_7.png,,,,,,,,,,,,
,,,,,,,,,,,,More than half,Half,Some,Less than half,Many,Most,Few,All,None,-0.121111111,-0.235555556,1,0,0,QQQ6,,,,,,,,english,2020-07-02_11h03.47.593,Experiment_English,3.2.4,Win32,60,,,1,0,340,209,1,339,ratio31_9_12_6.png,,,,,,,,,,,,
,,,,,,,,,,,,Many,Some,Few,None,Half,Less than half,Most,More than half,All,0.511111111,-0.234444444,1,0,0,QQQ3,,,,,,,,english,2020-07-02_11h03.47.593,Experiment_English,3.2.4,Win32,60,,,1,0,340,113,1,339,ratio14_3_15_8.png,,,,,,,,,,,,
,,,,,,,,,,,,All,Few,Some,Many,Half,None,Less than half,More than half,Most,0.472222222,-0.076666667,1,0,0,QQQ2,,,,,,,,english,2020-07-02_11h03.47.593,Experiment_English,3.2.4,Win32,60,,,1,0,340,286,1,339,ratio43_4_7_15.png,,,,,,,,,,,,
,,,,,,,,,,,,Half,Many,Some,Few,More than half,All,None,Most,Less than half,-0.411111111,-0.25,1,0,0,QQQ9,,,,,,,,english,2020-07-02_11h03.47.593,Experiment_English,3.2.4,Win32,60,,,1,0,340,17,1,339,ratio12_6_18_5.png,,,,,,,,,,,,
,,,,,,,,,,,,Less than half,Few,All,Many,Some,None,Half,Most,More than half,-0.463333333,0.002222222,1,0,0,QQQ8,,,,,,,,english,2020-07-02_11h03.47.593,Experiment_English,3.2.4,Win32,60,,,1,0,340,210,1,339,ratio31_9_12_9.png,,,,,,,,,,,,
,,,,,,,,,,,,Some,All,More than half,Few,Most,None,Half,Less than half,Many,-0.486666667,-0.394444444,1,0,0,QQQ9,,,,,,,,english,2020-07-02_11h03.47.593,Experiment_English,3.2.4,Win32,60,,,1,0,340,178,1,339,ratio21_12_18_2.png,0.213333333,-0.374444444,1,0,0,continue_button_pause,1,0,1,0,1,0
,,,,,,,,,,,,,,,,,,,,,,,,,,,,,,,,,,english,2020-07-02_11h03.47.593,Experiment_English,3.2.4,Win32,60,,,1,0,340,178,1,339,ratio21_12_18_2.png,,,,,,,,,,,,
,,,,,,,,,,,,More than half,Many,Half,Few,Some,None,Less than half,All,Most,0.112222222,0.326666667,1,0,0,QQQ4,,,,,,,,english,2020-07-02_11h03.47.593,Experiment_English,3.2.4,Win32,60,,,1,0,340,188,1,339,ratio23_4_10_6.png,,,,,,,,,,,,
,,,,,,,,,,,,Few,Most,Less than half,Half,None,Many,All,More than half,Some,0.108888889,0.307777778,1,0,0,QQQ4,,,,,,,,english,2020-07-02_11h03.47.593,Experiment_English,3.2.4,Win32,60,,,1,0,340,115,1,339,ratio14_4_20_1.png,,,,,,,,,,,,
,,,,,,,,,,,,More than half,Few,None,Most,All,Half,Some,Many,Less than half,0.033333333,-0.231111111,1,0,0,QQQ6,,,,,,,,english,2020-07-02_11h03.47.593,Experiment_English,3.2.4,Win32,60,,,1,0,340,297,1,339,ratio43_8_14_13.png,,,,,,,,,,,,
,,,,,,,,,,,,Less than half,Some,More than half,All,Many,Half,Most,None,Few,-0.475555556,0.274444444,1,0,0,QQQ7,,,,,,,,english,2020-07-02_11h03.47.593,Experiment_English,3.2.4,Win32,60,,,1,0,340,214,1,339,ratio31_12_16_5.png,,,,,,,,,,,,
,,,,,,,,,,,,Most,Some,Half,More than half,Less than half,All,Many,Few,None,-0.408888889,-0.287777778,1,0,0,QQQ9,,,,,,,,english,2020-07-02_11h03.47.593,Experiment_English,3.2.4,Win32,60,,,1,0,340,77,1,339,ratio0Y_0_18_3.png,,,,,,,,,,,,
,,,,,,,,,,,,More than half,Some,Half,Less than half,None,All,Most,Few,Many,0.016666667,-0.304444444,1,0,0,QQQ6,,,,,,,,english,2020-07-02_11h03.47.593,Experiment_English,3.2.4,Win32,60,,,1,0,340,45,1,339,ratioX0_8_8_3.png,,,,,,,,,,,,
,,,,,,,,,,,,More than half,Many,Half,Some,Most,Less than half,None,Few,All,-0.497777778,-0.222222222,1,0,0,QQQ9,,,,,,,,english,2020-07-02_11h03.47.593,Experiment_English,3.2.4,Win32,60,,,1,0,340,53,1,339,ratioX0_14_14_8.png,,,,,,,,,,,,
,,,,,,,,,,,,More than half,Less than half,Some,Few,Most,None,Many,Half,All,-0.467777778,-0.258888889,1,0,0,QQQ9,,,,,,,,english,2020-07-02_11h03.47.593,Experiment_English,3.2.4,Win32,60,,,1,0,340,54,1,339,ratioX0_15_15_5.png,,,,,,,,,,,,
,,,,,,,,,,,,Some,Less than half,Many,All,None,Half,More than half,Few,Most,-0.625555556,-0.314444444,1,0,0,QQQ9,,,,,,,,english,2020-07-02_11h03.47.593,Experiment_English,3.2.4,Win32,60,,,1,0,340,322,1,339,ratio91_9_10_3.png,,,,,,,,,,,,
,,,,,,,,,,,,Some,All,Less than half,Few,None,More than half,Half,Most,Many,0.093333333,-0.247777778,1,0,0,QQQ6,,,,,,,,english,2020-07-02_11h03.47.593,Experiment_English,3.2.4,Win32,60,,,1,0,340,280,1,339,ratio43_4_7_2.png,,,,,,,,,,,,
,,,,,,,,,,,,Some,Less than half,Half,None,All,Many,Few,Most,More than half,0.362222222,-0.045555556,1,0,0,QQQ2,,,,,,,,english,2020-07-02_11h03.47.593,Experiment_English,3.2.4,Win32,60,,,1,0,340,5,1,339,ratio12_2_6_9.png,,,,,,,,,,,,
,,,,,,,,,,,,Most,More than half,Half,Some,All,Few,Many,Less than half,None,0.412222222,0.268888889,1,0,0,QQQ1,,,,,,,,english,2020-07-02_11h03.47.593,Experiment_English,3.2.4,Win32,60,,,1,0,340,217,1,339,ratio31_15_20_5.png,,,,,,,,,,,,
,,,,,,,,,,,,Many,Half,More than half,Less than half,None,Most,Some,All,Few,0.532222222,0.295555556,1,0,0,QQQ1,,,,,,,,english,2020-07-02_11h03.47.593,Experiment_English,3.2.4,Win32,60,,,1,0,340,202,1,339,ratio31_3_4_8.png,,,,,,,,,,,,
,,,,,,,,,,,,None,Some,Most,Many,Half,Less than half,All,Few,More than half,-0.001111111,-0.003333333,1,0,0,QQQ5,,,,,,,,english,2020-07-02_11h03.47.593,Experiment_English,3.2.4,Win32,60,,,1,0,340,249,1,339,ratio34_3_7_20.png,,,,,,,,,,,,
,,,,,,,,,,,,Few,All,Half,More than half,Some,Many,Most,None,Less than half,0.643333333,0.247777778,1,0,0,QQQ1,,,,,,,,english,2020-07-02_11h03.47.593,Experiment_English,3.2.4,Win32,60,,,1,0,340,149,1,339,ratio19_1_10_20.png,,,,,,,,,,,,
,,,,,,,,,,,,Half,Less than half,None,Some,Most,All,More than half,Few,Many,0.036666667,-0.226666667,1,0,0,QQQ6,,,,,,,,english,2020-07-02_11h03.47.593,Experiment_English,3.2.4,Win32,60,,,1,0,340,50,1,339,ratioX0_12_12_3.png,,,,,,,,,,,,
,,,,,,,,,,,,Most,More than half,Many,None,All,Few,Less than half,Half,Some,-0.462222222,0.012222222,1,0,0,QQQ8,,,,,,,,english,2020-07-02_11h03.47.593,Experiment_English,3.2.4,Win32,60,,,1,0,340,329,1,339,ratio91_9_10_20.png,,,,,,,,,,,,
,,,,,,,,,,,,Many,Half,Few,Some,All,Most,None,More than half,Less than half,0.451111111,0.217777778,1,0,0,QQQ1,,,,,,,,english,2020-07-02_11h03.47.593,Experiment_English,3.2.4,Win32,60,,,1,0,340,179,1,339,ratio21_12_18_8.png,,,,,,,,,,,,
,,,,,,,,,,,,Few,Most,More than half,Some,All,Many,Less than half,Half,None,0.083333333,0.293333333,1,0,0,QQQ4,,,,,,,,english,2020-07-02_11h03.47.593,Experiment_English,3.2.4,Win32,60,,,1,0,340,129,1,339,ratio15_2_12_9.png,,,,,,,,,,,,
,,,,,,,,,,,,More than half,Some,Many,None,Most,Half,All,Few,Less than half,0.013333333,0.09,1,0,0,QQQ5,,,,,,,,english,2020-07-02_11h03.47.593,Experiment_English,3.2.4,Win32,60,,,1,0,340,290,1,339,ratio43_8_14_3.png,,,,,,,,,,,,
,,,,,,,,,,,,More than half,Less than half,Half,Some,Few,Most,Many,None,All,0.36,0.017777778,1,0,0,QQQ2,,,,,,,,english,2020-07-02_11h03.47.593,Experiment_English,3.2.4,Win32,60,,,1,0,340,164,1,339,ratio21_4_6_6.png,,,,,,,,,,,,
,,,,,,,,,,,,Most,Few,None,Less than half,Many,Some,More than half,All,Half,0.417777778,0.246666667,1,0,0,QQQ1,,,,,,,,english,2020-07-02_11h03.47.593,Experiment_English,3.2.4,Win32,60,,,1,0,340,325,1,339,ratio91_9_10_8.png,,,,,,,,,,,,
,,,,,,,,,,,,Some,Many,None,Less than half,More than half,Few,All,Half,Most,0.418888889,0.003333333,1,0,0,QQQ2,,,,,,,,english,2020-07-02_11h03.47.593,Experiment_English,3.2.4,Win32,60,,,1,0,340,298,1,339,ratio43_8_14_14.png,,,,,,,,,,,,
,,,,,,,,,,,,None,Half,Many,Less than half,All,Some,Few,More than half,Most,-0.045555556,-0.228888889,1,0,0,QQQ6,,,,,,,,english,2020-07-02_11h03.47.593,Experiment_English,3.2.4,Win32,60,,,1,0,340,134,1,339,ratio15_3_18_5.png,,,,,,,,,,,,
,,,,,,,,,,,,All,Few,Less than half,More than half,Some,None,Half,Many,Most,0.017777778,0.351111111,1,0,0,QQQ4,,,,,,,,english,2020-07-02_11h03.47.593,Experiment_English,3.2.4,Win32,60,,,1,0,340,232,1,339,ratio32_9_15_8.png,,,,,,,,,,,,
,,,,,,,,,,,,More than half,Less than half,None,Most,Many,Few,All,Some,Half,-0.488888889,0.051111111,1,0,0,QQQ8,,,,,,,,english,2020-07-02_11h03.47.593,Experiment_English,3.2.4,Win32,60,,,1,0,340,80,1,339,ratio13_1_4_3.png,,,,,,,,,,,,
,,,,,,,,,,,,Half,Many,Few,All,Less than half,Most,None,More than half,Some,-0.115555556,0.013333333,1,0,0,QQQ5,,,,,,,,english,2020-07-02_11h03.47.593,Experiment_English,3.2.4,Win32,60,,,1,0,340,19,1,339,ratio12_6_18_9.png,,,,,,,,,,,,
,,,,,,,,,,,,Many,All,Some,More than half,Most,None,Half,Less than half,Few,-0.051111111,0.305555556,1,0,0,QQQ4,,,,,,,,english,2020-07-02_11h03.47.593,Experiment_English,3.2.4,Win32,60,,,1,0,340,26,1,339,ratio11_5_10_4.png,,,,,,,,,,,,
,,,,,,,,,,,,None,Most,Half,Less than half,Some,Many,All,More than half,Few,0.393333333,-0.304444444,1,0,0,QQQ3,,,,,,,,english,2020-07-02_11h03.47.593,Experiment_English,3.2.4,Win32,60,,,1,0,340,258,1,339,ratio34_6_14_14.png,,,,,,,,,,,,
,,,,,,,,,,,,Many,Most,None,Less than half,Half,Some,More than half,All,Few,0.081111111,-0.243333333,1,0,0,QQQ6,,,,,,,,english,2020-07-02_11h03.47.593,Experiment_English,3.2.4,Win32,60,,,1,0,340,96,1,339,ratio13_5_20_1.png,,,,,,,,,,,,
,,,,,,,,,,,,All,Less than half,More than half,Some,Half,None,Few,Many,Most,0.462222222,-0.388888889,1,0,0,QQQ3,,,,,,,,english,2020-07-02_11h03.47.593,Experiment_English,3.2.4,Win32,60,,,1,0,340,301,1,339,ratio51_5_6_4.png,,,,,,,,,,,,
,,,,,,,,,,,,Half,Less than half,All,Many,Few,Most,None,More than half,Some,0.133333333,-0.08,1,0,0,QQQ5,,,,,,,,english,2020-07-02_11h03.47.593,Experiment_English,3.2.4,Win32,60,,,1,0,340,156,1,339,ratio19_2_20_14.png,,,,,,,,,,,,
,,,,,,,,,,,,Half,None,All,Many,Most,Some,More than half,Few,Less than half,0.113333333,-0.017777778,1,0,0,QQQ5,,,,,,,,english,2020-07-02_11h03.47.593,Experiment_English,3.2.4,Win32,60,,,1,0,340,273,1,339,ratio41_12_15_8.png,,,,,,,,,,,,
,,,,,,,,,,,,Half,Some,More than half,All,Most,Few,Many,None,Less than half,0.455555556,-0.273333333,1,0,0,QQQ3,,,,,,,,english,2020-07-02_11h03.47.593,Experiment_English,3.2.4,Win32,60,,,1,0,340,207,1,339,ratio31_6_8_9.png,0.38,-0.364444444,1,0,0,continue_button_pause,1,0,1,0,1,0
,,,,,,,,,,,,,,,,,,,,,,,,,,,,,,,,,,english,2020-07-02_11h03.47.593,Experiment_English,3.2.4,Win32,60,,,1,0,340,207,1,339,ratio31_6_8_9.png,,,,,,,,,,,,
,,,,,,,,,,,,Less than half,Many,Half,More than half,Few,All,Most,None,Some,0.457777778,-0.048888889,1,0,0,QQQ2,,,,,,,,english,2020-07-02_11h03.47.593,Experiment_English,3.2.4,Win32,60,,,1,0,340,315,1,339,ratio51_15_18_10.png,,,,,,,,,,,,
,,,,,,,,,,,,Most,Many,None,All,Few,Some,More than half,Less than half,Half,0.096666667,-0.228888889,1,0,0,QQQ6,,,,,,,,english,2020-07-02_11h03.47.593,Experiment_English,3.2.4,Win32,60,,,1,0,340,21,1,339,ratio11_2_4_10.png,,,,,,,,,,,,
,,,,,,,,,,,,All,Few,Some,More than half,Half,Most,Less than half,None,Many,0.011111111,0.255555556,1,0,0,QQQ4,,,,,,,,english,2020-07-02_11h03.47.593,Experiment_English,3.2.4,Win32,60,,,1,0,340,328,1,339,ratio91_9_10_15.png,,,,,,,,,,,,
,,,,,,,,,,,,Half,More than half,All,Most,Less than half,Many,Few,None,Some,-0.005555556,0.213333333,1,0,0,QQQ4,,,,,,,,english,2020-07-02_11h03.47.593,Experiment_English,3.2.4,Win32,60,,,1,0,340,108,1,339,ratio14_2_10_6.png,,,,,,,,,,,,
,,,,,,,,,,,,None,Half,Some,More than half,Many,Less than half,All,Most,Few,0.487777778,0.367777778,1,0,0,QQQ1,,,,,,,,english,2020-07-02_11h03.47.593,Experiment_English,3.2.4,Win32,60,,,1,0,340,72,1,339,ratio0Y_0_13_4.png,,,,,,,,,,,,
,,,,,,,,,,,,All,Most,None,Many,Half,More than half,Few,Less than half,Some,-0.417777778,0.314444444,1,0,0,QQQ7,,,,,,,,english,2020-07-02_11h03.47.593,Experiment_English,3.2.4,Win32,60,,,1,0,340,148,1,339,ratio19_1_10_19.png,,,,,,,,,,,,
,,,,,,,,,,,,Few,Less than half,Half,More than half,Most,Some,None,All,Many,-0.036666667,-0.004444444,1,0,0,QQQ5,,,,,,,,english,2020-07-02_11h03.47.593,Experiment_English,3.2.4,Win32,60,,,1,0,340,185,1,339,ratio23_4_10_1.png,,,,,,,,,,,,
,,,,,,,,,,,,Some,Half,Less than half,More than half,Most,None,Few,All,Many,-0.016666667,-0.01,1,0,0,QQQ5,,,,,,,,english,2020-07-02_11h03.47.593,Experiment_English,3.2.4,Win32,60,,,1,0,340,263,1,339,ratio41_4_5_5.png,,,,,,,,,,,,
,,,,,,,,,,,,Some,None,Less than half,Many,Few,Half,Most,All,More than half,0.451111111,-0.317777778,1,0,0,QQQ3,,,,,,,,english,2020-07-02_11h03.47.593,Experiment_English,3.2.4,Win32,60,,,1,0,340,196,1,339,ratio23_8_20_5.png,,,,,,,,,,,,
,,,,,,,,,,,,More than half,Few,Most,Many,Half,All,Some,None,Less than half,0.523333333,0.312222222,1,0,0,QQQ1,,,,,,,,english,2020-07-02_11h03.47.593,Experiment_English,3.2.4,Win32,60,,,1,0,340,318,1,339,ratio51_15_18_18.png,,,,,,,,,,,,
,,,,,,,,,,,,More than half,All,Most,None,Few,Half,Less than half,Some,Many,0.078888889,0.222222222,1,0,0,QQQ4,,,,,,,,english,2020-07-02_11h03.47.593,Experiment_English,3.2.4,Win32,60,,,1,0,340,75,1,339,ratio0Y_0_16_10.png,,,,,,,,,,,,
,,,,,,,,,,,,Few,Many,All,Most,More than half,Half,Some,None,Less than half,-0.607777778,0.277777778,1,0,0,QQQ7,,,,,,,,english,2020-07-02_11h03.47.593,Experiment_English,3.2.4,Win32,60,,,1,0,340,126,1,339,ratio15_2_12_1.png,,,,,,,,,,,,
,,,,,,,,,,,,Many,Less than half,Half,None,Some,All,More than half,Few,Most,0.346666667,-0.353333333,1,0,0,QQQ3,,,,,,,,english,2020-07-02_11h03.47.593,Experiment_English,3.2.4,Win32,60,,,1,0,340,287,1,339,ratio43_4_7_17.png,,,,,,,,,,,,
,,,,,,,,,,,,Few,Most,All,Half,Many,Less than half,Some,More than half,None,0.422222222,-0.068888889,1,0,0,QQQ2,,,,,,,,english,2020-07-02_11h03.47.593,Experiment_English,3.2.4,Win32,60,,,1,0,340,336,1,339,ratio91_18_20_12.png,,,,,,,,,,,,
,,,,,,,,,,,,All,Many,Less than half,Most,Some,Half,Few,More than half,None,0.413333333,0.003333333,1,0,0,QQQ2,,,,,,,,english,2020-07-02_11h03.47.593,Experiment_English,3.2.4,Win32,60,,,1,0,340,100,1,339,ratio14_1_5_3.png,,,,,,,,,,,,
,,,,,,,,,,,,All,Many,Most,Some,More than half,Less than half,Few,Half,None,-0.392222222,-0.085555556,1,0,0,QQQ8,,,,,,,,english,2020-07-02_11h03.47.593,Experiment_English,3.2.4,Win32,60,,,1,0,340,38,1,339,ratio11_10_20_5.png,,,,,,,,,,,,
,,,,,,,,,,,,Most,Many,Few,All,Less than half,Some,Half,More than half,None,-0.387777778,0.23,1,0,0,QQQ7,,,,,,,,english,2020-07-02_11h03.47.593,Experiment_English,3.2.4,Win32,60,,,1,0,340,311,1,339,ratio51_10_12_14.png,,,,,,,,,,,,
,,,,,,,,,,,,Many,Some,Half,Most,All,Less than half,Few,None,More than half,0.481111111,0.061111111,1,0,0,QQQ2,,,,,,,,english,2020-07-02_11h03.47.593,Experiment_English,3.2.4,Win32,60,,,1,0,340,146,1,339,ratio19_1_10_17.png,,,,,,,,,,,,
,,,,,,,,,,,,Half,Some,More than half,Many,Few,None,All,Less than half,Most,0.481111111,0.062222222,1,0,0,QQQ2,,,,,,,,english,2020-07-02_11h03.47.593,Experiment_English,3.2.4,Win32,60,,,1,0,340,102,1,339,ratio14_1_5_8.png,,,,,,,,,,,,
,,,,,,,,,,,,Most,Less than half,Few,More than half,None,Some,All,Many,Half,0.098888889,-0.234444444,1,0,0,QQQ6,,,,,,,,english,2020-07-02_11h03.47.593,Experiment_English,3.2.4,Win32,60,,,1,0,340,36,1,339,ratio11_9_18_1.png,,,,,,,,,,,,
,,,,,,,,,,,,Half,None,Most,All,Many,Few,More than half,Some,Less than half,0.082222222,-0.056666667,1,0,0,QQQ5,,,,,,,,english,2020-07-02_11h03.47.593,Experiment_English,3.2.4,Win32,60,,,1,0,340,302,1,339,ratio51_5_6_5.png,,,,,,,,,,,,
,,,,,,,,,,,,Half,All,None,More than half,Less than half,Many,Some,Most,Few,-0.366666667,-0.257777778,1,0,0,QQQ9,,,,,,,,english,2020-07-02_11h03.47.593,Experiment_English,3.2.4,Win32,60,,,1,0,340,83,1,339,ratio13_1_4_10.png,,,,,,,,,,,,
,,,,,,,,,,,,More than half,Most,None,Many,Less than half,Few,All,Half,Some,-0.06,0.014444444,1,0,0,QQQ5,,,,,,,,english,2020-07-02_11h03.47.593,Experiment_English,3.2.4,Win32,60,,,1,0,340,308,1,339,ratio51_10_12_9.png,,,,,,,,,,,,
,,,,,,,,,,,,Many,More than half,All,Most,Few,None,Some,Half,Less than half,-0.053333333,0.012222222,1,0,0,QQQ5,,,,,,,,english,2020-07-02_11h03.47.593,Experiment_English,3.2.4,Win32,60,,,1,0,340,264,1,339,ratio41_4_5_6.png,,,,,,,,,,,,
,,,,,,,,,,,,Less than half,All,Some,Few,Many,Half,More than half,Most,None,-0.052222222,0.011111111,1,0,0,QQQ5,,,,,,,,english,2020-07-02_11h03.47.593,Experiment_English,3.2.4,Win32,60,,,1,0,340,269,1,339,ratio41_8_10_6.png,,,,,,,,,,,,
,,,,,,,,,,,,Few,Most,None,Many,Some,Less than half,More than half,All,Half,-0.343333333,-0.062222222,1,0,0,QQQ8,,,,,,,,english,2020-07-02_11h03.47.593,Experiment_English,3.2.4,Win32,60,,,1,0,340,56,1,339,ratioX0_17_17_10.png,,,,,,,,,,,,
,,,,,,,,,,,,Most,Some,All,More than half,None,Less than half,Many,Few,Half,-0.377777778,0.052222222,1,0,0,QQQ8,,,,,,,,english,2020-07-02_11h03.47.593,Experiment_English,3.2.4,Win32,60,,,1,0,340,124,1,339,ratio15_1_6_16.png,,,,,,,,,,,,
,,,,,,,,,,,,Some,Most,Less than half,More than half,All,Few,None,Half,Many,0.546666667,0.094444444,1,0,0,QQQ2,,,,,,,,english,2020-07-02_11h03.47.593,Experiment_English,3.2.4,Win32,60,,,1,0,340,270,1,339,ratio41_12_15_3.png,,,,,,,,,,,,
,,,,,,,,,,,,Less than half,Few,Most,Half,None,Some,Many,All,More than half,0.484444444,0.311111111,1,0,0,QQQ1,,,,,,,,english,2020-07-02_11h03.47.593,Experiment_English,3.2.4,Win32,60,,,1,0,340,119,1,339,ratio14_4_20_10.png,,,,,,,,,,,,
,,,,,,,,,,,,All,More than half,Many,None,Half,Few,Some,Most,Less than half,-0.048888889,-0.26,1,0,0,QQQ6,,,,,,,,english,2020-07-02_11h03.47.593,Experiment_English,3.2.4,Win32,60,,,1,0,340,289,1,339,ratio43_4_7_20.png,,,,,,,,,,,,
,,,,,,,,,,,,Less than half,All,Few,Most,None,More than half,Some,Many,Half,0.387777778,0.234444444,1,0,0,QQQ1,,,,,,,,english,2020-07-02_11h03.47.593,Experiment_English,3.2.4,Win32,60,,,1,0,340,15,1,339,ratio12_5_15_5.png,,,,,,,,,,,,
,,,,,,,,,,,,Less than half,Half,More than half,Few,All,None,Many,Some,Most,0.037777778,-0.29,1,0,0,QQQ6,,,,,,,,english,2020-07-02_11h03.47.593,Experiment_English,3.2.4,Win32,60,,,1,0,340,60,1,339,ratio0Y_0_3_5.png,,,,,,,,,,,,
,,,,,,,,,,,,Less than half,Many,Most,Few,Half,More than half,Some,None,All,0.012222222,-0.013333333,1,0,0,QQQ5,,,,,,,,english,2020-07-02_11h03.47.593,Experiment_English,3.2.4,Win32,60,,,1,0,340,33,1,339,ratio11_7_14_8.png,,,,,,,,,,,,
,,,,,,,,,,,,Less than half,Few,Half,All,More than half,Most,Some,None,Many,0.446666667,0.32,1,0,0,QQQ1,,,,,,,,english,2020-07-02_11h03.47.593,Experiment_English,3.2.4,Win32,60,,,1,0,340,7,1,339,ratio12_3_9_2.png,0.315555556,-0.373333333,1,0,0,continue_button_pause,1,0,1,0,1,0
,,,,,,,,,,,,,,,,,,,,,,,,,,,,,,,,,,english,2020-07-02_11h03.47.593,Experiment_English,3.2.4,Win32,60,,,1,0,340,7,1,339,ratio12_3_9_2.png,,,,,,,,,,,,
,,,,,,,,,,,,Most,None,All,Less than half,Half,Many,More than half,Few,Some,0.083333333,-0.01,1,0,0,QQQ5,,,,,,,,english,2020-07-02_11h03.47.593,Experiment_English,3.2.4,Win32,60,,,1,0,340,242,1,339,ratio34_3_7_6.png,,,,,,,,,,,,
,,,,,,,,,,,,Some,Many,More than half,Few,Most,None,All,Less than half,Half,0.526666667,0.006666667,1,0,0,QQQ2,,,,,,,,english,2020-07-02_11h03.47.593,Experiment_English,3.2.4,Win32,60,,,1,0,340,118,1,339,ratio14_4_20_8.png,,,,,,,,,,,,
,,,,,,,,,,,,Some,Less than half,None,Half,Most,More than half,Few,Many,All,-0.374444444,0.205555556,1,0,0,QQQ7,,,,,,,,english,2020-07-02_11h03.47.593,Experiment_English,3.2.4,Win32,60,,,1,0,340,155,1,339,ratio19_2_20_13.png,,,,,,,,,,,,
,,,,,,,,,,,,None,Half,All,Some,Less than half,Many,Few,Most,More than half,0.343333333,-0.263333333,1,0,0,QQQ3,,,,,,,,english,2020-07-02_11h03.47.593,Experiment_English,3.2.4,Win32,60,,,1,0,340,57,1,339,ratioX0_18_18_1.png,,,,,,,,,,,,
,,,,,,,,,,,,Many,Most,Some,All,More than half,Less than half,Few,None,Half,-0.026666667,-0.355555556,1,0,0,QQQ6,,,,,,,,english,2020-07-02_11h03.47.593,Experiment_English,3.2.4,Win32,60,,,1,0,340,291,1,339,ratio43_8_14_5.png,,,,,,,,,,,,
,,,,,,,,,,,,Many,Most,Less than half,None,More than half,All,Few,Half,Some,0.396666667,-0.348888889,1,0,0,QQQ3,,,,,,,,english,2020-07-02_11h03.47.593,Experiment_English,3.2.4,Win32,60,,,1,0,340,191,1,339,ratio23_6_15_7.png,,,,,,,,,,,,
,,,,,,,,,,,,Half,Some,All,Few,Less than half,None,Many,Most,More than half,-0.375555556,-0.342222222,1,0,0,QQQ9,,,,,,,,english,2020-07-02_11h03.47.593,Experiment_English,3.2.4,Win32,60,,,1,0,340,229,1,339,ratio32_6_10_9.png,,,,,,,,,,,,
,,,,,,,,,,,,Few,Many,Most,None,Some,Less than half,More than half,All,Half,-0.094444444,-0.086666667,1,0,0,QQQ5,,,,,,,,english,2020-07-02_11h03.47.593,Experiment_English,3.2.4,Win32,60,,,1,0,340,111,1,339,ratio14_3_15_3.png,,,,,,,,,,,,
,,,,,,,,,,,,Most,Few,Half,All,None,Less than half,Many,Some,More than half,-0.036666667,-0.371111111,1,0,0,QQQ6,,,,,,,,english,2020-07-02_11h03.47.593,Experiment_English,3.2.4,Win32,60,,,1,0,340,162,1,339,ratio21_2_3_9.png,,,,,,,,,,,,
,,,,,,,,,,,,Some,More than half,Less than half,Half,Most,All,Few,Many,None,0.011111111,0.33,1,0,0,QQQ4,,,,,,,,english,2020-07-02_11h03.47.593,Experiment_English,3.2.4,Win32,60,,,1,0,340,254,1,339,ratio34_6_14_9.png,,,,,,,,,,,,
,,,,,,,,,,,,Some,Less than half,Half,All,Few,Many,More than half,Most,None,0.477777778,0.022222222,1,0,0,QQQ2,,,,,,,,english,2020-07-02_11h03.47.593,Experiment_English,3.2.4,Win32,60,,,1,0,340,283,1,339,ratio43_4_7_8.png,,,,,,,,,,,,
,,,,,,,,,,,,Half,Some,None,All,Few,Most,Many,More than half,Less than half,0.11,-0.02,1,0,0,QQQ5,,,,,,,,english,2020-07-02_11h03.47.593,Experiment_English,3.2.4,Win32,60,,,1,0,340,159,1,339,ratio19_2_20_20.png,,,,,,,,,,,,
,,,,,,,,,,,,Few,Half,Some,Many,Most,More than half,All,None,Less than half,0.37,0.255555556,1,0,0,QQQ1,,,,,,,,english,2020-07-02_11h03.47.593,Experiment_English,3.2.4,Win32,60,,,1,0,340,200,1,339,ratio31_3_4_4.png,,,,,,,,,,,,
,,,,,,,,,,,,Many,Some,All,More than half,Less than half,None,Most,Few,Half,-0.36,-0.002222222,1,0,0,QQQ8,,,,,,,,english,2020-07-02_11h03.47.593,Experiment_English,3.2.4,Win32,60,,,1,0,340,260,1,339,ratio41_4_5_2.png,,,,,,,,,,,,
,,,,,,,,,,,,Some,All,Few,Less than half,More than half,Many,None,Most,Half,0.545555556,0.04,1,0,0,QQQ2,,,,,,,,english,2020-07-02_11h03.47.593,Experiment_English,3.2.4,Win32,60,,,1,0,340,268,1,339,ratio41_8_10_5.png,,,,,,,,,,,,
,,,,,,,,,,,,Half,Some,Most,None,Many,All,Few,Less than half,More than half,0.131111111,-0.035555556,1,0,0,QQQ5,,,,,,,,english,2020-07-02_11h03.47.593,Experiment_English,3.2.4,Win32,60,,,1,0,340,0,1,339,ratio12_1_3_3.png,,,,,,,,,,,,
,,,,,,,,,,,,All,More than half,Most,Many,Half,None,Some,Few,Less than half,-0.003333333,-0.022222222,1,0,0,QQQ5,,,,,,,,english,2020-07-02_11h03.47.593,Experiment_English,3.2.4,Win32,60,,,1,0,340,1,1,339,ratio12_1_3_7.png,,,,,,,,,,,,
,,,,,,,,,,,,Half,Some,Few,More than half,Less than half,All,Most,Many,None,0.014444444,-0.224444444,1,0,0,QQQ6,,,,,,,,english,2020-07-02_11h03.47.593,Experiment_English,3.2.4,Win32,60,,,1,0,340,220,1,339,ratio32_3_5_1.png,,,,,,,,,,,,
,,,,,,,,,,,,Some,Most,Few,None,Many,More than half,All,Half,Less than half,-0.411111111,0.051111111,1,0,0,QQQ8,,,,,,,,english,2020-07-02_11h03.47.593,Experiment_English,3.2.4,Win32,60,,,1,0,340,234,1,339,ratio32_9_15_10.png,,,,,,,,,,,,
,,,,,,,,,,,,Many,None,All,More than half,Most,Half,Less than half,Few,Some,-0.043333333,0.31,1,0,0,QQQ4,,,,,,,,english,2020-07-02_11h03.47.593,Experiment_English,3.2.4,Win32,60,,,1,0,340,203,1,339,ratio31_3_4_9.png,,,,,,,,,,,,
,,,,,,,,,,,,None,Most,All,Few,Half,Many,Less than half,More than half,Some,0.017777778,0.334444444,1,0,0,QQQ4,,,,,,,,english,2020-07-02_11h03.47.593,Experiment_English,3.2.4,Win32,60,,,1,0,340,99,1,339,ratio13_5_20_4.png,,,,,,,,,,,,
,,,,,,,,,,,,Few,Some,Most,None,All,Less than half,More than half,Half,Many,0.528888889,0.341111111,1,0,0,QQQ1,,,,,,,,english,2020-07-02_11h03.47.593,Experiment_English,3.2.4,Win32,60,,,1,0,340,201,1,339,ratio31_3_4_7.png,,,,,,,,,,,,
,,,,,,,,,,,,Half,Many,Few,More than half,None,All,Most,Some,Less than half,0.448888889,-0.201111111,1,0,0,QQQ3,,,,,,,,english,2020-07-02_11h03.47.593,Experiment_English,3.2.4,Win32,60,,,1,0,340,105,1,339,ratio14_2_10_1.png,,,,,,,,,,,,
,,,,,,,,,,,,Half,Most,All,None,More than half,Few,Less than half,Many,Some,0.11,-0.287777778,1,0,0,QQQ6,,,,,,,,english,2020-07-02_11h03.47.593,Experiment_English,3.2.4,Win32,60,,,1,0,340,14,1,339,ratio12_5_15_4.png,,,,,,,,,,,,
,,,,,,,,,,,,Less than half,All,Some,Most,Many,Few,None,More than half,Half,-0.388888889,-0.316666667,1,0,0,QQQ9,,,,,,,,english,2020-07-02_11h03.47.593,Experiment_English,3.2.4,Win32,60,,,1,0,340,20,1,339,ratio11_2_4_3.png,,,,,,,,,,,,
,,,,,,,,,,,,Half,None,Less than half,More than half,Many,Most,All,Few,Some,0.045555556,0.201111111,1,0,0,QQQ4,,,,,,,,english,2020-07-02_11h03.47.593,Experiment_English,3.2.4,Win32,60,,,1,0,340,281,1,339,ratio43_4_7_4.png,,,,,,,,,,,,
,,,,,,,,,,,,None,Less than half,Some,Few,Many,All,More than half,Most,Half,0.532222222,-0.264444444,1,0,0,QQQ3,,,,,,,,english,2020-07-02_11h03.47.593,Experiment_English,3.2.4,Win32,60,,,1,0,340,90,1,339,ratio13_3_12_7.png,,,,,,,,,,,,
,,,,,,,,,,,,Few,Some,More than half,Many,Less than half,Most,None,Half,All,0.062222222,-0.025555556,1,0,0,QQQ5,,,,,,,,english,2020-07-02_11h03.47.593,Experiment_English,3.2.4,Win32,60,,,1,0,340,93,1,339,ratio13_4_16_7.png,,,,,,,,,,,,
,,,,,,,,,,,,Half,All,Most,Many,None,Less than half,More than half,Some,Few,-0.42,0.26,1,0,0,QQQ7,,,,,,,,english,2020-07-02_11h03.47.593,Experiment_English,3.2.4,Win32,60,,,1,0,340,128,1,339,ratio15_2_12_8.png,,,,,,,,,,,,
,,,,,,,,,,,,None,Few,Most,All,Many,Some,More than half,Less than half,Half,-0.431111111,-0.014444444,1,0,0,QQQ8,,,,,,,,english,2020-07-02_11h03.47.593,Experiment_English,3.2.4,Win32,60,,,1,0,340,181,1,339,ratio23_2_5_6.png,,,,,,,,,,,,
,,,,,,,,,,,,None,More than half,Most,Few,Half,Less than half,Many,Some,All,0.014444444,-0.278888889,1,0,0,QQQ6,,,,,,,,english,2020-07-02_11h03.47.593,Experiment_English,3.2.4,Win32,60,,,1,0,340,240,1,339,ratio34_3_7_4.png,,,,,,,,,,,,
,,,,,,,,,,,,None,Some,Less than half,Half,Many,Few,All,Most,More than half,0.532222222,0.081111111,1,0,0,QQQ2,,,,,,,,english,2020-07-02_11h03.47.593,Experiment_English,3.2.4,Win32,60,,,1,0,340,121,1,339,ratio15_1_6_4.png,,,,,,,,,,,,
,,,,,,,,,,,,Many,Most,Some,More than half,All,Half,Less than half,Few,None,-0.153333333,-0.208888889,1,0,0,QQQ6,,,,,,,,english,2020-07-02_11h03.47.593,Experiment_English,3.2.4,Win32,60,,,1,0,340,24,1,339,ratio11_4_8_3.png,,,,,,,,,,,,
,,,,,,,,,,,,Most,Some,None,Half,Less than half,Few,Many,More than half,All,0.084444444,-0.23,1,0,0,QQQ6,,,,,,,,english,2020-07-02_11h03.47.593,Experiment_English,3.2.4,Win32,60,,,1,0,340,110,1,339,ratio14_3_15_2.png,0.295555556,-0.431111111,1,0,0,continue_button_pause,1,0,1,0,1,0
,,,,,,,,,,,,,,,,,,,,,,,,,,,,,,,,,,english,2020-07-02_11h03.47.593,Experiment_English,3.2.4,Win32,60,,,1,0,340,110,1,339,ratio14_3_15_2.png,,,,,,,,,,,,
,,,,,,,,,,,,Some,Many,More than half,Half,Less than half,Few,All,None,Most,0.036666667,0.248888889,1,0,0,QQQ4,,,,,,,,english,2020-07-02_11h03.47.593,Experiment_English,3.2.4,Win32,60,,,1,0,340,31,1,339,ratio11_6_12_9.png,,,,,,,,,,,,
,,,,,,,,,,,,Half,Less than half,Few,All,Most,Some,None,More than half,Many,-0.066666667,0.017777778,1,0,0,QQQ5,,,,,,,,english,2020-07-02_11h03.47.593,Experiment_English,3.2.4,Win32,60,,,1,0,340,288,1,339,ratio43_4_7_18.png,,,,,,,,,,,,
,,,,,,,,,,,,Less than half,Few,More than half,Many,None,All,Most,Some,Half,0.351111111,0.065555556,1,0,0,QQQ2,,,,,,,,english,2020-07-02_11h03.47.593,Experiment_English,3.2.4,Win32,60,,,1,0,340,151,1,339,ratio19_2_20_4.png,,,,,,,,,,,,
,,,,,,,,,,,,Few,Less than half,None,Half,Most,All,Many,More than half,Some,0.485555556,-0.214444444,1,0,0,QQQ3,,,,,,,,english,2020-07-02_11h03.47.593,Experiment_English,3.2.4,Win32,60,,,1,0,340,64,1,339,ratio0Y_0_7_1.png,,,,,,,,,,,,
,,,,,,,,,,,,All,Many,Less than half,Few,Most,Some,None,Half,More than half,0.438888889,-0.014444444,1,0,0,QQQ2,,,,,,,,english,2020-07-02_11h03.47.593,Experiment_English,3.2.4,Win32,60,,,1,0,340,193,1,339,ratio23_6_15_9.png,,,,,,,,,,,,
,,,,,,,,,,,,Less than half,All,Most,Some,Many,Half,Few,None,More than half,0.102222222,-0.062222222,1,0,0,QQQ5,,,,,,,,english,2020-07-02_11h03.47.593,Experiment_English,3.2.4,Win32,60,,,1,0,340,32,1,339,ratio11_7_14_5.png,,,,,,,,,,,,
,,,,,,,,,,,,Some,Less than half,Most,None,More than half,Few,Half,Many,All,-0.011111111,-0.274444444,1,0,0,QQQ6,,,,,,,,english,2020-07-02_11h03.47.593,Experiment_English,3.2.4,Win32,60,,,1,0,340,327,1,339,ratio91_9_10_11.png,,,,,,,,,,,,
,,,,,,,,,,,,Many,Less than half,Most,Half,Some,Few,All,None,More than half,-0.011111111,-0.274444444,1,0,0,QQQ6,,,,,,,,english,2020-07-02_11h03.47.593,Experiment_English,3.2.4,Win32,60,,,1,0,340,324,1,339,ratio91_9_10_7.png,,,,,,,,,,,,
,,,,,,,,,,,,Most,Many,Some,All,Few,None,Less than half,More than half,Half,0.096666667,0.245555556,1,0,0,QQQ4,,,,,,,,english,2020-07-02_11h03.47.593,Experiment_English,3.2.4,Win32,60,,,1,0,340,49,1,339,ratioX0_11_11_2.png,,,,,,,,,,,,
,,,,,,,,,,,,More than half,Many,Most,Half,Some,None,Less than half,Few,All,0.062222222,0.278888889,1,0,0,QQQ4,,,,,,,,english,2020-07-02_11h03.47.593,Experiment_English,3.2.4,Win32,60,,,1,0,340,165,1,339,ratio21_4_6_10.png,,,,,,,,,,,,
,,,,,,,,,,,,Few,More than half,Many,None,Some,All,Half,Most,Less than half,-0.415555556,-0.266666667,1,0,0,QQQ9,,,,,,,,english,2020-07-02_11h03.47.593,Experiment_English,3.2.4,Win32,60,,,1,0,340,11,1,339,ratio12_4_12_7.png,,,,,,,,,,,,
,,,,,,,,,,,,More than half,Few,Some,None,Half,All,Less than half,Many,Most,0.092222222,0.287777778,1,0,0,QQQ4,,,,,,,,english,2020-07-02_11h03.47.593,Experiment_English,3.2.4,Win32,60,,,1,0,340,48,1,339,ratioX0_10_10_1.png,,,,,,,,,,,,
,,,,,,,,,,,,None,More than half,Many,Less than half,All,Most,Few,Some,Half,0.022222222,0.027777778,1,0,0,QQQ5,,,,,,,,english,2020-07-02_11h03.47.593,Experiment_English,3.2.4,Win32,60,,,1,0,340,47,1,339,ratioX0_9_9_4.png,,,,,,,,,,,,
,,,,,,,,,,,,None,Some,All,Most,More than half,Less than half,Many,Half,Few,0.361111111,-0.03,1,0,0,QQQ2,,,,,,,,english,2020-07-02_11h03.47.593,Experiment_English,3.2.4,Win32,60,,,1,0,340,109,1,339,ratio14_2_10_9.png,,,,,,,,,,,,
,,,,,,,,,,,,More than half,Half,Few,Some,Many,Less than half,All,Most,None,0.091111111,-0.307777778,1,0,0,QQQ6,,,,,,,,english,2020-07-02_11h03.47.593,Experiment_English,3.2.4,Win32,60,,,1,0,340,84,1,339,ratio13_2_8_1.png,,,,,,,,,,,,
,,,,,,,,,,,,None,Half,All,Less than half,Most,Some,Few,More than half,Many,-0.065555556,0.004444444,1,0,0,QQQ5,,,,,,,,english,2020-07-02_11h03.47.593,Experiment_English,3.2.4,Win32,60,,,1,0,340,278,1,339,ratio41_16_20_9.png,,,,,,,,,,,,
,,,,,,,,,,,,Many,More than half,Most,None,Some,All,Less than half,Half,Few,-0.063333333,0.002222222,1,0,0,QQQ5,,,,,,,,english,2020-07-02_11h03.47.593,Experiment_English,3.2.4,Win32,60,,,1,0,340,135,1,339,ratio15_3_18_7.png,,,,,,,,,,,,
,,,,,,,,,,,,Less than half,More than half,Few,Some,Most,Many,All,None,Half,-0.063333333,0.002222222,1,0,0,QQQ5,,,,,,,,english,2020-07-02_11h03.47.593,Experiment_English,3.2.4,Win32,60,,,1,0,340,206,1,339,ratio31_6_8_6.png,,,,,,,,,,,,
,,,,,,,,,,,,Most,Half,All,Many,More than half,Less than half,None,Few,Some,0.455555556,-0.273333333,1,0,0,QQQ3,,,,,,,,english,2020-07-02_11h03.47.593,Experiment_English,3.2.4,Win32,60,,,1,0,340,43,1,339,ratioX0_6_6_9.png,,,,,,,,,,,,
,,,,,,,,,,,,Most,None,Many,Some,Less than half,Half,Few,More than half,All,0.093333333,-0.078888889,1,0,0,QQQ5,,,,,,,,english,2020-07-02_11h03.47.593,Experiment_English,3.2.4,Win32,60,,,1,0,340,184,1,339,ratio23_2_5_10.png,,,,,,,,,,,,
,,,,,,,,,,,,More than half,Most,Less than half,Many,Half,All,Some,None,Few,0.077777778,0.264444444,1,0,0,QQQ4,,,,,,,,english,2020-07-02_11h03.47.593,Experiment_English,3.2.4,Win32,60,,,1,0,340,335,1,339,ratio91_18_20_11.png,,,,,,,,,,,,
,,,,,,,,,,,,More than half,Less than half,Many,None,Few,Half,All,Most,Some,-0.464444444,0.26,1,0,0,QQQ7,,,,,,,,english,2020-07-02_11h03.47.593,Experiment_English,3.2.4,Win32,60,,,1,0,340,44,1,339,ratioX0_7_7_5.png,,,,,,,,,,,,
,,,,,,,,,,,,Less than half,None,More than half,Half,Many,Few,All,Most,Some,-0.051111111,0.27,1,0,0,QQQ4,,,,,,,,english,2020-07-02_11h03.47.593,Experiment_English,3.2.4,Win32,60,,,1,0,340,197,1,339,ratio23_8_20_6.png,,,,,,,,,,,,
,,,,,,,,,,,,Some,Most,Half,None,All,Few,Many,More than half,Less than half,-0.44,-0.255555556,1,0,0,QQQ9,,,,,,,,english,2020-07-02_11h03.47.593,Experiment_English,3.2.4,Win32,60,,,1,0,340,241,1,339,ratio34_3_7_5.png,,,,,,,,,,,,
,,,,,,,,,,,,Most,Many,Less than half,More than half,None,Some,Few,All,Half,-0.09,0.231111111,1,0,0,QQQ4,,,,,,,,english,2020-07-02_11h03.47.593,Experiment_English,3.2.4,Win32,60,,,1,0,340,219,1,339,ratio31_15_20_10.png,,,,,,,,,,,,
,,,,,,,,,,,,Half,Most,None,Few,More than half,Many,All,Less than half,Some,0.1,-0.232222222,1,0,0,QQQ6,,,,,,,,english,2020-07-02_11h03.47.593,Experiment_English,3.2.4,Win32,60,,,1,0,340,208,1,339,ratio31_9_12_3.png,,,,,,,,,,,,
,,,,,,,,,,,,Most,Few,Some,All,Half,More than half,Less than half,None,Many,0.085555556,0.255555556,1,0,0,QQQ4,,,,,,,,english,2020-07-02_11h03.47.593,Experiment_English,3.2.4,Win32,60,,,1,0,340,59,1,339,ratioX0_20_20_9.png,,,,,,,,,,,,
,,,,,,,,,,,,Many,More than half,Few,All,Most,Half,Less than half,None,Some,0,0.012222222,1,0,0,QQQ5,,,,,,,,english,2020-07-02_11h03.47.593,Experiment_English,3.2.4,Win32,60,,,1,0,340,226,1,339,ratio32_6_10_5.png,,,,,,,,,,,,
,,,,,,,,,,,,None,All,Most,Many,Half,More than half,Some,Few,Less than half,0.007777778,0.292222222,1,0,0,QQQ4,,,,,,,,english,2020-07-02_11h03.47.593,Experiment_English,3.2.4,Win32,60,,,1,0,340,107,1,339,ratio14_2_10_5.png,,,,,,,,,,,,
,,,,,,,,,,,,Few,More than half,Some,None,Less than half,Most,All,Many,Half,-0.398888889,-0.074444444,1,0,0,QQQ8,,,,,,,,english,2020-07-02_11h03.47.593,Experiment_English,3.2.4,Win32,60,,,1,0,340,323,1,339,ratio91_9_10_5.png,,,,,,,,,,,,
,,,,,,,,,,,,Some,None,Many,Most,Few,Less than half,Half,All,More than half,0.018888889,0.253333333,1,0,0,QQQ4,,,,,,,,english,2020-07-02_11h03.47.593,Experiment_English,3.2.4,Win32,60,,,1,0,340,163,1,339,ratio21_4_6_1.png,,,,,,,,,,,,
,,,,,,,,,,,,Less than half,Many,Half,Few,None,All,Most,Some,More than half,-0.444444444,-0.058888889,1,0,0,QQQ8,,,,,,,,english,2020-07-02_11h03.47.593,Experiment_English,3.2.4,Win32,60,,,1,0,340,331,1,339,ratio91_18_20_3.png,,,,,,,,,,,,
,,,,,,,,,,,,Some,None,Few,Many,Half,Less than half,All,More than half,Most,-0.474444444,-0.267777778,1,0,0,QQQ9,,,,,,,,english,2020-07-02_11h03.47.593,Experiment_English,3.2.4,Win32,60,,,1,0,340,271,1,339,ratio41_12_15_6.png,,,,,,,,,,,,
,,,,,,,,,,,,More than half,Few,Many,Half,Most,None,Less than half,Some,All,-0.441111111,-0.041111111,1,0,0,QQQ8,,,,,,,,english,2020-07-02_11h03.47.593,Experiment_English,3.2.4,Win32,60,,,1,0,340,227,1,339,ratio32_6_10_6.png,0.335555556,-0.373333333,1,0,0,continue_button_pause,1,0,1,0,1,0
,,,,,,,,,,,,,,,,,,,,,,,,,,,,,,,,,,english,2020-07-02_11h03.47.593,Experiment_English,3.2.4,Win32,60,,,1,0,340,227,1,339,ratio32_6_10_6.png,,,,,,,,,,,,
,,,,,,,,,,,,Some,Many,Most,Less than half,None,Few,More than half,All,Half,0.423333333,0.008888889,1,0,0,QQQ2,,,,,,,,english,2020-07-02_11h03.47.593,Experiment_English,3.2.4,Win32,60,,,1,0,340,303,1,339,ratio51_5_6_6.png,,,,,,,,,,,,
,,,,,,,,,,,,All,None,Many,More than half,Some,Most,Few,Less than half,Half,-0.354444444,-0.055555556,1,0,0,QQQ8,,,,,,,,english,2020-07-02_11h03.47.593,Experiment_English,3.2.4,Win32,60,,,1,0,340,104,1,339,ratio14_1_5_10.png,,,,,,,,,,,,
,,,,,,,,,,,,None,Some,Many,Most,Few,Less than half,All,Half,More than half,0.571111111,0.027777778,1,0,0,QQQ2,,,,,,,,english,2020-07-02_11h03.47.593,Experiment_English,3.2.4,Win32,60,,,1,0,340,4,1,339,ratio12_2_6_5.png,,,,,,,,,,,,
,,,,,,,,,,,,None,More than half,Most,All,Few,Half,Some,Less than half,Many,0.12,0.277777778,1,0,0,QQQ4,,,,,,,,english,2020-07-02_11h03.47.593,Experiment_English,3.2.4,Win32,60,,,1,0,340,58,1,339,ratioX0_19_19_4.png,,,,,,,,,,,,
,,,,,,,,,,,,Many,All,None,More than half,Few,Half,Most,Some,Less than half,0.427777778,-0.29,1,0,0,QQQ3,,,,,,,,english,2020-07-02_11h03.47.593,Experiment_English,3.2.4,Win32,60,,,1,0,340,76,1,339,ratio0Y_0_17_10.png,,,,,,,,,,,,
,,,,,,,,,,,,Most,Few,Half,Many,More than half,All,Less than half,Some,None,-0.382222222,-0.377777778,1,0,0,QQQ9,,,,,,,,english,2020-07-02_11h03.47.593,Experiment_English,3.2.4,Win32,60,,,1,0,340,62,1,339,ratio0Y_0_5_4.png,,,,,,,,,,,,
,,,,,,,,,,,,Some,Few,Half,Less than half,Most,None,Many,All,More than half,-0.098888889,-0.07,1,0,0,QQQ5,,,,,,,,english,2020-07-02_11h03.47.593,Experiment_English,3.2.4,Win32,60,,,1,0,340,330,1,339,ratio91_18_20_2.png,,,,,,,,,,,,
,,,,,,,,,,,,Less than half,More than half,Many,Some,All,None,Half,Most,Few,-0.558888889,-0.346666667,1,0,0,QQQ9,,,,,,,,english,2020-07-02_11h03.47.593,Experiment_English,3.2.4,Win32,60,,,1,0,340,153,1,339,ratio19_2_20_8.png,,,,,,,,,,,,
,,,,,,,,,,,,Half,Some,Less than half,Most,Few,Many,None,More than half,All,0.431111111,-0.315555556,1,0,0,QQQ3,,,,,,,,english,2020-07-02_11h03.47.593,Experiment_English,3.2.4,Win32,60,,,1,0,340,221,1,339,ratio32_3_5_3.png,,,,,,,,,,,,
,,,,,,,,,,,,Some,Few,Most,Half,All,Less than half,None,More than half,Many,0.417777778,-0.305555556,1,0,0,QQQ3,,,,,,,,english,2020-07-02_11h03.47.593,Experiment_English,3.2.4,Win32,60,,,1,0,340,307,1,339,ratio51_10_12_1.png,,,,,,,,,,,,
,,,,,,,,,,,,None,Less than half,Half,Many,More than half,Most,All,Few,Some,0.488888889,0.283333333,1,0,0,QQQ1,,,,,,,,english,2020-07-02_11h03.47.593,Experiment_English,3.2.4,Win32,60,,,1,0,340,147,1,339,ratio19_1_10_18.png,,,,,,,,,,,,
,,,,,,,,,,,,More than half,Half,Many,Few,None,Less than half,Most,Some,All,0.018888889,-0.296666667,1,0,0,QQQ6,,,,,,,,english,2020-07-02_11h03.47.593,Experiment_English,3.2.4,Win32,60,,,1,0,340,194,1,339,ratio23_6_15_10.png,,,,,,,,,,,,
,,,,,,,,,,,,Most,Many,None,More than half,Some,Less than half,Few,Half,All,0.414444444,-0.013333333,1,0,0,QQQ2,,,,,,,,english,2020-07-02_11h03.47.593,Experiment_English,3.2.4,Win32,60,,,1,0,340,137,1,339,ratio15_3_18_16.png,,,,,,,,,,,,
,,,,,,,,,,,,Some,Few,All,None,Most,Many,More than half,Half,Less than half,-0.383333333,-0.072222222,1,0,0,QQQ8,,,,,,,,english,2020-07-02_11h03.47.593,Experiment_English,3.2.4,Win32,60,,,1,0,340,284,1,339,ratio43_4_7_11.png,,,,,,,,,,,,
,,,,,,,,,,,,Many,Most,Less than half,Few,None,More than half,Some,Half,All,-0.39,-0.074444444,1,0,0,QQQ8,,,,,,,,english,2020-07-02_11h03.47.593,Experiment_English,3.2.4,Win32,60,,,1,0,340,34,1,339,ratio11_8_16_8.png,,,,,,,,,,,,
,,,,,,,,,,,,Some,None,Most,Less than half,Many,Few,More than half,All,Half,-0.051111111,-0.301111111,1,0,0,QQQ6,,,,,,,,english,2020-07-02_11h03.47.593,Experiment_English,3.2.4,Win32,60,,,1,0,340,114,1,339,ratio14_3_15_10.png,,,,,,,,,,,,
,,,,,,,,,,,,Most,Many,All,Few,Some,Half,More than half,Less than half,None,0.552222222,-0.017777778,1,0,0,QQQ2,,,,,,,,english,2020-07-02_11h03.47.593,Experiment_English,3.2.4,Win32,60,,,1,0,340,332,1,339,ratio91_18_20_4.png,,,,,,,,,,,,
,,,,,,,,,,,,All,Few,Most,Some,Less than half,More than half,None,Many,Half,0.135555556,0.258888889,1,0,0,QQQ4,,,,,,,,english,2020-07-02_11h03.47.593,Experiment_English,3.2.4,Win32,60,,,1,0,340,173,1,339,ratio21_8_12_9.png,,,,,,,,,,,,
,,,,,,,,,,,,Less than half,Some,Few,None,More than half,Most,All,Many,Half,-0.47,-0.311111111,1,0,0,QQQ9,,,,,,,,english,2020-07-02_11h03.47.593,Experiment_English,3.2.4,Win32,60,,,1,0,340,250,1,339,ratio34_6_14_1.png,,,,,,,,,,,,
,,,,,,,,,,,,All,Less than half,None,Many,More than half,Few,Half,Some,Most,0.408888889,-0.025555556,1,0,0,QQQ2,,,,,,,,english,2020-07-02_11h03.47.593,Experiment_English,3.2.4,Win32,60,,,1,0,340,3,1,339,ratio12_2_6_3.png,,,,,,,,,,,,
,,,,,,,,,,,,More than half,All,None,Few,Some,Half,Many,Less than half,Most,0.396666667,-0.047777778,1,0,0,QQQ2,,,,,,,,english,2020-07-02_11h03.47.593,Experiment_English,3.2.4,Win32,60,,,1,0,340,52,1,339,ratioX0_13_13_10.png,,,,,,,,,,,,
,,,,,,,,,,,,More than half,Half,Few,Most,Less than half,Some,None,All,Many,0.134444444,0.256666667,1,0,0,QQQ4,,,,,,,,english,2020-07-02_11h03.47.593,Experiment_English,3.2.4,Win32,60,,,1,0,340,304,1,339,ratio51_5_6_13.png,,,,,,,,,,,,
,,,,,,,,,,,,All,More than half,Less than half,Half,Many,Most,None,Few,Some,0.07,-0.21,1,0,0,QQQ6,,,,,,,,english,2020-07-02_11h03.47.593,Experiment_English,3.2.4,Win32,60,,,1,0,340,6,1,339,ratio12_3_9_1.png,,,,,,,,,,,,
,,,,,,,,,,,,Less than half,More than half,Most,Few,All,Half,None,Some,Many,0.138888889,0.246666667,1,0,0,QQQ4,,,,,,,,english,2020-07-02_11h03.47.593,Experiment_English,3.2.4,Win32,60,,,1,0,340,133,1,339,ratio15_3_18_3.png,,,,,,,,,,,,
,,,,,,,,,,,,Some,Many,More than half,Less than half,Few,None,Most,Half,All,-0.395555556,-0.07,1,0,0,QQQ8,,,,,,,,english,2020-07-02_11h03.47.593,Experiment_English,3.2.4,Win32,60,,,1,0,340,25,1,339,ratio11_4_8_10.png,,,,,,,,,,,,
,,,,,,,,,,,,Some,More than half,Few,Half,Less than half,None,Many,All,Most,0.476666667,0.002222222,1,0,0,QQQ2,,,,,,,,english,2020-07-02_11h03.47.593,Experiment_English,3.2.4,Win32,60,,,1,0,340,276,1,339,ratio41_16_20_4.png,,,,,,,,,,,,
,,,,,,,,,,,,Most,Some,Less than half,More than half,All,Many,Half,None,Few,-0.506666667,-0.068888889,1,0,0,QQQ8,,,,,,,,english,2020-07-02_11h03.47.593,Experiment_English,3.2.4,Win32,60,,,1,0,340,63,1,339,ratio0Y_0_6_8.png,,,,,,,,,,,,
,,,,,,,,,,,,Most,Some,Less than half,Half,Many,None,Few,More than half,All,-0.507777778,-0.236666667,1,0,0,QQQ9,,,,,,,,english,2020-07-02_11h03.47.593,Experiment_English,3.2.4,Win32,60,,,1,0,340,42,1,339,ratioX0_5_5_5.png,,,,,,,,,,,,
,,,,,,,,,,,,Less than half,All,Half,Many,More than half,Some,Few,Most,None,0.441111111,-0.027777778,1,0,0,QQQ2,,,,,,,,english,2020-07-02_11h03.47.593,Experiment_English,3.2.4,Win32,60,,,1,0,340,51,1,339,ratioX0_12_12_9.png,,,,,,,,,,,,
,,,,,,,,,,,,Most,None,Half,All,Many,Some,Less than half,More than half,Few,0.091111111,-0.041111111,1,0,0,QQQ5,,,,,,,,english,2020-07-02_11h03.47.593,Experiment_English,3.2.4,Win32,60,,,1,0,340,211,1,339,ratio31_9_12_10.png,,,,,,,,,,,,
,,,,,,,,,,,,All,Many,More than half,Less than half,Some,None,Few,Half,Most,0.091111111,-0.042222222,1,0,0,QQQ5,,,,,,,,english,2020-07-02_11h03.47.593,Experiment_English,3.2.4,Win32,60,,,1,0,340,247,1,339,ratio34_3_7_12.png,,,,,,,,,,,,
,,,,,,,,,,,,Most,Half,Many,Less than half,All,None,More than half,Some,Few,-0.036666667,-0.245555556,1,0,0,QQQ6,,,,,,,,english,2020-07-02_11h03.47.593,Experiment_English,3.2.4,Win32,60,,,1,0,340,68,1,339,ratio0Y_0_11_3.png,,,,,,,,,,,,
,,,,,,,,,,,,None,All,Few,Many,Most,Some,Half,More than half,Less than half,0.022222222,-0.051111111,1,0,0,QQQ5,,,,,,,,english,2020-07-02_11h03.47.593,Experiment_English,3.2.4,Win32,60,,,1,0,340,212,1,339,ratio31_12_16_1.png,,,,,,,,,,,,
,,,,,,,,,,,,More than half,Most,Some,Less than half,All,Many,Few,None,Half,0.446666667,0.005555556,1,0,0,QQQ2,,,,,,,,english,2020-07-02_11h03.47.593,Experiment_English,3.2.4,Win32,60,,,1,0,340,160,1,339,ratio21_2_3_2.png,,,,,,,,,,,,
