continue_mouse.x,continue_mouse.y,continue_mouse.leftButton,continue_mouse.midButton,continue_mouse.rightButton,continue_mouse.clicked_name,continue_mouse_2.x,continue_mouse_2.y,continue_mouse_2.leftButton,continue_mouse_2.midButton,continue_mouse_2.rightButton,continue_mouse_2.clicked_name,Q1,Q2,Q3,Q4,Q5,Q6,Q7,Q8,Q9,select_answer.x,select_answer.y,select_answer.leftButton,select_answer.midButton,select_answer.rightButton,select_answer.clicked_name,trial.thisRepN,trial.thisTrialN,trial.thisN,trial.thisIndex,trial.ran,trial.order,trials,Native tongue*,date,expName,psychopyVersion,OS,frameRate,key_resp.keys,key_resp.rt,trial_2.thisRepN,trial_2.thisTrialN,trial_2.thisN,trial_2.thisIndex,trial_2.ran,trial_2.order,continue_mouse_3.x,continue_mouse_3.y,continue_mouse_3.leftButton,continue_mouse_3.midButton,continue_mouse_3.rightButton,continue_mouse_3.clicked_name,insts.thisRepN,insts.thisTrialN,insts.thisN,insts.thisIndex,insts.ran,insts.order,Actual_Experiment.thisRepN,Actual_Experiment.thisTrialN,Actual_Experiment.thisN,Actual_Experiment.thisIndex,Actual_Experiment.ran,Actual_Experiment.order,Pic,mouse_pause.x,mouse_pause.y,mouse_pause.leftButton,mouse_pause.midButton,mouse_pause.rightButton,mouse_pause.clicked_name,pause.thisRepN,pause.thisTrialN,pause.thisN,pause.thisIndex,pause.ran,pause.order
0.26875,-0.408333333,1,0,0,continue_button,0.26875,-0.408333333,1,0,0,continue_button_2,Half,Many,Most,None,Less than half,Few,All,Some,More than half,0.429861111,0.239583333,1,0,0,QQQ1,1,0,16,14,1,15,ratio11_5_10_6.png,english,2020-07-02_10h59.29.586,Experiment_English,3.2.4,Win32,60,,,,,,,,,,,,,,,,,,,,,,,,,,,,,,,,,,,,,,,
,,,,,,,,,,,,Many,More than half,Most,Less than half,None,All,Half,Some,Few,0.422222222,-0.258333333,1,0,0,QQQ3,1,0,16,9,1,15,ratio19_1_10_8.png,english,2020-07-02_10h59.29.586,Experiment_English,3.2.4,Win32,60,,,,,,,,,,,,,,,,,,,,,,,,,,,,,,,,,,,,,,,
,,,,,,,,,,,,None,Less than half,Few,Most,More than half,Many,All,Some,Half,-0.374305556,-0.26875,1,0,0,QQQ9,1,0,16,15,1,15,ratio0Y_0_14_10.png,english,2020-07-02_10h59.29.586,Experiment_English,3.2.4,Win32,60,,,,,,,,,,,,,,,,,,,,,,,,,,,,,,,,,,,,,,,
,,,,,,,,,,,,Most,Some,Many,Less than half,All,Few,None,More than half,Half,-0.374305556,-0.26875,1,0,0,QQQ9,1,0,16,4,1,15,ratio34_3_7_3.png,english,2020-07-02_10h59.29.586,Experiment_English,3.2.4,Win32,60,,,,,,,,,,,,,,,,,,,,,,,,,,,,,,,,,,,,,,,
,,,,,,,,,,,,Half,Few,Some,All,Most,Less than half,None,Many,More than half,-0.009027778,-0.263194444,1,0,0,QQQ6,1,0,16,13,1,15,ratio12_5_15_1.png,english,2020-07-02_10h59.29.586,Experiment_English,3.2.4,Win32,60,,,,,,,,,,,,,,,,,,,,,,,,,,,,,,,,,,,,,,,
,,,,,,,,,,,,Less than half,Few,Half,All,Many,More than half,Most,Some,None,0.486111111,-0.043055556,1,0,0,QQQ2,,,,,,,ratio19_1_10_8.png,english,2020-07-02_10h59.29.586,Experiment_English,3.2.4,Win32,60,a,14.45700002,1,0,16,9,1,15,,,,,,,,,,,,,,,,,,,,,,,,,,,,,,,
,,,,,,,,,,,,Few,Many,Some,Most,Half,Less than half,None,All,More than half,0.094444444,-0.031944444,1,0,0,QQQ5,,,,,,,ratio11_5_10_6.png,english,2020-07-02_10h59.29.586,Experiment_English,3.2.4,Win32,60,,,1,0,16,14,1,15,,,,,,,,,,,,,,,,,,,,,,,,,,,,,,,
,,,,,,,,,,,,Few,Half,None,More than half,All,Most,Less than half,Many,Some,0.072916667,0.2,1,0,0,QQQ4,,,,,,,ratio32_6_10_2.png,english,2020-07-02_10h59.29.586,Experiment_English,3.2.4,Win32,60,,,1,0,16,5,1,15,,,,,,,,,,,,,,,,,,,,,,,,,,,,,,,
,,,,,,,,,,,,More than half,Many,Half,Few,Less than half,Some,Most,All,None,-0.047222222,-0.247222222,1,0,0,QQQ6,,,,,,,ratio13_3_12_3.png,english,2020-07-02_10h59.29.586,Experiment_English,3.2.4,Win32,60,,,1,0,16,12,1,15,,,,,,,,,,,,,,,,,,,,,,,,,,,,,,,
,,,,,,,,,,,,Less than half,More than half,All,Many,Half,Most,Some,Few,None,-0.374305556,-0.003472222,1,0,0,QQQ8,,,,,,,ratio14_1_5_7.png,english,2020-07-02_10h59.29.586,Experiment_English,3.2.4,Win32,60,,,1,0,16,11,1,15,,,,,,,,,,,,,,,,,,,,,,,,,,,,,,,
,,,,,,,,,,,,,,,,,,,,,,,,,,,,,,,,,,english,2020-07-02_10h59.29.586,Experiment_English,3.2.4,Win32,60,,,,,,,,,0.264583333,-0.39375,1,0,0,continue_button_3,1,0,1,0,1,0,,,,,,,,,,,,,,,,,,,
,,,,,,,,,,,,None,Few,Less than half,More than half,All,Half,Some,Most,Many,0.11875,-0.321527778,1,0,0,QQQ6,,,,,,,,english,2020-07-02_10h59.29.586,Experiment_English,3.2.4,Win32,60,,,,,,,,,,,,,,,,,,,,,1,0,340,282,1,339,ratio43_4_7_7.png,,,,,,,,,,,,
,,,,,,,,,,,,More than half,Some,Half,None,Most,Many,All,Few,Less than half,0.052777778,0.277777778,1,0,0,QQQ4,,,,,,,,english,2020-07-02_10h59.29.586,Experiment_English,3.2.4,Win32,60,,,,,,,,,,,,,,,,,,,,,1,0,340,68,1,339,ratio0Y_0_11_3.png,,,,,,,,,,,,
,,,,,,,,,,,,Few,Half,None,Less than half,More than half,Most,All,Some,Many,-0.015972222,-0.247222222,1,0,0,QQQ6,,,,,,,,english,2020-07-02_10h59.29.586,Experiment_English,3.2.4,Win32,60,,,,,,,,,,,,,,,,,,,,,1,0,340,219,1,339,ratio31_15_20_10.png,,,,,,,,,,,,
,,,,,,,,,,,,Many,Half,All,Few,More than half,None,Less than half,Some,Most,0.036111111,0.230555556,1,0,0,QQQ4,,,,,,,,english,2020-07-02_10h59.29.586,Experiment_English,3.2.4,Win32,60,,,,,,,,,,,,,,,,,,,,,1,0,340,121,1,339,ratio15_1_6_4.png,,,,,,,,,,,,
,,,,,,,,,,,,Many,Less than half,Some,None,Few,All,Most,Half,More than half,-0.399305556,0.028472222,1,0,0,QQQ8,,,,,,,,english,2020-07-02_10h59.29.586,Experiment_English,3.2.4,Win32,60,,,,,,,,,,,,,,,,,,,,,1,0,340,38,1,339,ratio11_10_20_5.png,,,,,,,,,,,,
,,,,,,,,,,,,Many,Half,Few,Most,More than half,Less than half,None,All,Some,0.3875,0.0375,1,0,0,QQQ2,,,,,,,,english,2020-07-02_10h59.29.586,Experiment_English,3.2.4,Win32,60,,,,,,,,,,,,,,,,,,,,,1,0,340,24,1,339,ratio11_4_8_3.png,,,,,,,,,,,,
,,,,,,,,,,,,All,Some,Many,Less than half,Few,Half,Most,None,More than half,-0.418055556,-0.007638889,1,0,0,QQQ8,,,,,,,,english,2020-07-02_10h59.29.586,Experiment_English,3.2.4,Win32,60,,,,,,,,,,,,,,,,,,,,,1,0,340,62,1,339,ratio0Y_0_5_4.png,,,,,,,,,,,,
,,,,,,,,,,,,None,All,Less than half,Some,More than half,Most,Few,Half,Many,-0.418055556,-0.007638889,1,0,0,QQQ8,,,,,,,,english,2020-07-02_10h59.29.586,Experiment_English,3.2.4,Win32,60,,,,,,,,,,,,,,,,,,,,,1,0,340,259,1,339,ratio34_6_14_19.png,,,,,,,,,,,,
,,,,,,,,,,,,None,Most,Less than half,Some,Many,Few,More than half,All,Half,-0.072916667,0.264583333,1,0,0,QQQ4,,,,,,,,english,2020-07-02_10h59.29.586,Experiment_English,3.2.4,Win32,60,,,,,,,,,,,,,,,,,,,,,1,0,340,115,1,339,ratio14_4_20_1.png,,,,,,,,,,,,
,,,,,,,,,,,,More than half,Less than half,None,Few,All,Half,Some,Many,Most,-0.085416667,0.253472222,1,0,0,QQQ4,,,,,,,,english,2020-07-02_10h59.29.586,Experiment_English,3.2.4,Win32,60,,,,,,,,,,,,,,,,,,,,,1,0,340,125,1,339,ratio15_1_6_19.png,,,,,,,,,,,,
,,,,,,,,,,,,Half,All,Many,Less than half,Few,None,More than half,Some,Most,-0.397916667,-0.281944444,1,0,0,QQQ9,,,,,,,,english,2020-07-02_10h59.29.586,Experiment_English,3.2.4,Win32,60,,,,,,,,,,,,,,,,,,,,,1,0,340,328,1,339,ratio91_9_10_15.png,,,,,,,,,,,,
,,,,,,,,,,,,None,All,Most,Few,Many,More than half,Half,Some,Less than half,-0.422222222,0.259722222,1,0,0,QQQ7,,,,,,,,english,2020-07-02_10h59.29.586,Experiment_English,3.2.4,Win32,60,,,,,,,,,,,,,,,,,,,,,1,0,340,34,1,339,ratio11_8_16_8.png,,,,,,,,,,,,
,,,,,,,,,,,,More than half,Some,None,Less than half,All,Many,Few,Half,Most,-0.463194444,0.052777778,1,0,0,QQQ8,,,,,,,,english,2020-07-02_10h59.29.586,Experiment_English,3.2.4,Win32,60,,,,,,,,,,,,,,,,,,,,,1,0,340,220,1,339,ratio32_3_5_1.png,,,,,,,,,,,,
,,,,,,,,,,,,Few,Most,Many,None,Less than half,More than half,Some,Half,All,0.361805556,0.04375,1,0,0,QQQ2,,,,,,,,english,2020-07-02_10h59.29.586,Experiment_English,3.2.4,Win32,60,,,,,,,,,,,,,,,,,,,,,1,0,340,263,1,339,ratio41_4_5_5.png,,,,,,,,,,,,
,,,,,,,,,,,,Many,Most,None,Half,Few,Some,Less than half,More than half,All,0.408333333,-0.241666667,1,0,0,QQQ3,,,,,,,,english,2020-07-02_10h59.29.586,Experiment_English,3.2.4,Win32,60,,,,,,,,,,,,,,,,,,,,,1,0,340,63,1,339,ratio0Y_0_6_8.png,,,,,,,,,,,,
,,,,,,,,,,,,Some,All,None,Less than half,Few,More than half,Half,Most,Many,0.013194444,-0.080555556,1,0,0,QQQ5,,,,,,,,english,2020-07-02_10h59.29.586,Experiment_English,3.2.4,Win32,60,,,,,,,,,,,,,,,,,,,,,1,0,340,12,1,339,ratio12_4_12_10.png,,,,,,,,,,,,
,,,,,,,,,,,,Some,None,Less than half,All,Many,Most,More than half,Few,Half,-0.441666667,-0.339583333,1,0,0,QQQ9,,,,,,,,english,2020-07-02_10h59.29.586,Experiment_English,3.2.4,Win32,60,,,,,,,,,,,,,,,,,,,,,1,0,340,289,1,339,ratio43_4_7_20.png,,,,,,,,,,,,
,,,,,,,,,,,,Some,Less than half,More than half,Many,Few,All,None,Most,Half,-0.441666667,-0.339583333,1,0,0,QQQ9,,,,,,,,english,2020-07-02_10h59.29.586,Experiment_English,3.2.4,Win32,60,,,,,,,,,,,,,,,,,,,,,1,0,340,285,1,339,ratio43_4_7_14.png,,,,,,,,,,,,
,,,,,,,,,,,,All,Most,Less than half,Few,None,Some,Many,More than half,Half,0.368055556,0.292361111,1,0,0,QQQ1,,,,,,,,english,2020-07-02_10h59.29.586,Experiment_English,3.2.4,Win32,60,,,,,,,,,,,,,,,,,,,,,1,0,340,54,1,339,ratioX0_15_15_5.png,,,,,,,,,,,,
,,,,,,,,,,,,Less than half,None,All,Some,Few,More than half,Half,Many,Most,0.364583333,-0.220138889,1,0,0,QQQ3,,,,,,,,english,2020-07-02_10h59.29.586,Experiment_English,3.2.4,Win32,60,,,,,,,,,,,,,,,,,,,,,1,0,340,56,1,339,ratioX0_17_17_10.png,,,,,,,,,,,,
,,,,,,,,,,,,Some,None,Many,Few,All,Less than half,Half,Most,More than half,0.3875,-0.05,1,0,0,QQQ2,,,,,,,,english,2020-07-02_10h59.29.586,Experiment_English,3.2.4,Win32,60,,,,,,,,,,,,,,,,,,,,,1,0,340,72,1,339,ratio0Y_0_13_4.png,,,,,,,,,,,,
,,,,,,,,,,,,More than half,None,Less than half,Most,All,Half,Many,Few,Some,0.0875,0.236111111,1,0,0,QQQ4,,,,,,,,english,2020-07-02_10h59.29.586,Experiment_English,3.2.4,Win32,60,,,,,,,,,,,,,,,,,,,,,1,0,340,305,1,339,ratio51_5_6_14.png,,,,,,,,,,,,
,,,,,,,,,,,,All,More than half,Some,Half,Most,Many,Few,Less than half,None,-0.372916667,-0.217361111,1,0,0,QQQ9,,,,,,,,english,2020-07-02_10h59.29.586,Experiment_English,3.2.4,Win32,60,,,,,,,,,,,,,,,,,,,,,1,0,340,60,1,339,ratio0Y_0_3_5.png,,,,,,,,,,,,
,,,,,,,,,,,,More than half,Some,All,Less than half,Many,Few,Most,None,Half,-0.372916667,-0.217361111,1,0,0,QQQ9,,,,,,,,english,2020-07-02_10h59.29.586,Experiment_English,3.2.4,Win32,60,,,,,,,,,,,,,,,,,,,,,1,0,340,197,1,339,ratio23_8_20_6.png,,,,,,,,,,,,
,,,,,,,,,,,,Few,Many,Most,More than half,Half,Less than half,Some,None,All,0.409722222,-0.014583333,1,0,0,QQQ2,,,,,,,,english,2020-07-02_10h59.29.586,Experiment_English,3.2.4,Win32,60,,,,,,,,,,,,,,,,,,,,,1,0,340,201,1,339,ratio31_3_4_7.png,,,,,,,,,,,,
,,,,,,,,,,,,Most,Few,Half,All,Many,More than half,Some,Less than half,None,-0.399305556,-0.252083333,1,0,0,QQQ9,,,,,,,,english,2020-07-02_10h59.29.586,Experiment_English,3.2.4,Win32,60,,,,,,,,,,,,,,,,,,,,,1,0,340,76,1,339,ratio0Y_0_17_10.png,,,,,,,,,,,,
,,,,,,,,,,,,Most,Less than half,None,More than half,Half,All,Few,Many,Some,0.390972222,-0.263888889,1,0,0,QQQ3,,,,,,,,english,2020-07-02_10h59.29.586,Experiment_English,3.2.4,Win32,60,,,,,,,,,,,,,,,,,,,,,1,0,340,73,1,339,ratio0Y_0_14_7.png,,,,,,,,,,,,
,,,,,,,,,,,,Most,Many,Less than half,None,Half,More than half,All,Few,Some,0.431944444,-0.075694444,1,0,0,QQQ2,,,,,,,,english,2020-07-02_10h59.29.586,Experiment_English,3.2.4,Win32,60,,,,,,,,,,,,,,,,,,,,,1,0,340,224,1,339,ratio32_3_5_10.png,,,,,,,,,,,,
,,,,,,,,,,,,Half,None,Some,More than half,Few,Many,Less than half,Most,All,0.068055556,-0.0625,1,0,0,QQQ5,,,,,,,,english,2020-07-02_10h59.29.586,Experiment_English,3.2.4,Win32,60,,,,,,,,,,,,,,,,,,,,,1,0,340,157,1,339,ratio19_2_20_16.png,,,,,,,,,,,,
,,,,,,,,,,,,Few,More than half,None,Many,All,Less than half,Half,Most,Some,0.430555556,0.263888889,1,0,0,QQQ1,,,,,,,,english,2020-07-02_10h59.29.586,Experiment_English,3.2.4,Win32,60,,,,,,,,,,,,,,,,,,,,,1,0,340,106,1,339,ratio14_2_10_2.png,,,,,,,,,,,,
,,,,,,,,,,,,Most,Few,Some,Less than half,None,Half,All,Many,More than half,0.378472222,0.040972222,1,0,0,QQQ2,,,,,,,,english,2020-07-02_10h59.29.586,Experiment_English,3.2.4,Win32,60,,,,,,,,,,,,,,,,,,,,,1,0,340,105,1,339,ratio14_2_10_1.png,,,,,,,,,,,,
,,,,,,,,,,,,Less than half,Half,None,More than half,Many,Few,Most,Some,All,0.118055556,-0.258333333,1,0,0,QQQ6,,,,,,,,english,2020-07-02_10h59.29.586,Experiment_English,3.2.4,Win32,60,,,,,,,,,,,,,,,,,,,,,1,0,340,143,1,339,ratio19_1_10_9.png,,,,,,,,,,,,
,,,,,,,,,,,,Few,None,Many,More than half,Some,Less than half,All,Most,Half,0.424305556,0.26875,1,0,0,QQQ1,,,,,,,,english,2020-07-02_10h59.29.586,Experiment_English,3.2.4,Win32,60,,,,,,,,,,,,,,,,,,,,,1,0,340,135,1,339,ratio15_3_18_7.png,,,,,,,,,,,,
,,,,,,,,,,,,Many,None,Few,Less than half,All,Some,More than half,Half,Most,0.403472222,-0.245833333,1,0,0,QQQ3,,,,,,,,english,2020-07-02_10h59.29.586,Experiment_English,3.2.4,Win32,60,,,,,,,,,,,,,,,,,,,,,1,0,340,93,1,339,ratio13_4_16_7.png,0.339583333,-0.38125,1,0,0,continue_button_pause,1,0,1,0,1,0
,,,,,,,,,,,,,,,,,,,,,,,,,,,,,,,,,,english,2020-07-02_10h59.29.586,Experiment_English,3.2.4,Win32,60,,,,,,,,,,,,,,,,,,,,,1,0,340,93,1,339,ratio13_4_16_7.png,,,,,,,,,,,,
,,,,,,,,,,,,Half,None,Many,Some,All,Less than half,Few,More than half,Most,-0.35625,0.24375,1,0,0,QQQ7,,,,,,,,english,2020-07-02_10h59.29.586,Experiment_English,3.2.4,Win32,60,,,,,,,,,,,,,,,,,,,,,1,0,340,142,1,339,ratio19_1_10_6.png,,,,,,,,,,,,
,,,,,,,,,,,,Many,All,Few,More than half,Less than half,Half,None,Some,Most,-0.092361111,0.045138889,1,0,0,QQQ5,,,,,,,,english,2020-07-02_10h59.29.586,Experiment_English,3.2.4,Win32,60,,,,,,,,,,,,,,,,,,,,,1,0,340,108,1,339,ratio14_2_10_6.png,,,,,,,,,,,,
,,,,,,,,,,,,Few,None,Half,Some,More than half,Many,Most,All,Less than half,-0.438888889,0.252083333,1,0,0,QQQ7,,,,,,,,english,2020-07-02_10h59.29.586,Experiment_English,3.2.4,Win32,60,,,,,,,,,,,,,,,,,,,,,1,0,340,274,1,339,ratio41_12_15_9.png,,,,,,,,,,,,
,,,,,,,,,,,,Few,None,Some,All,Most,More than half,Half,Many,Less than half,-0.438194444,0.225,1,0,0,QQQ7,,,,,,,,english,2020-07-02_10h59.29.586,Experiment_English,3.2.4,Win32,60,,,,,,,,,,,,,,,,,,,,,1,0,340,165,1,339,ratio21_4_6_10.png,,,,,,,,,,,,
,,,,,,,,,,,,Less than half,Many,All,None,More than half,Some,Half,Few,Most,-0.461111111,0.033333333,1,0,0,QQQ8,,,,,,,,english,2020-07-02_10h59.29.586,Experiment_English,3.2.4,Win32,60,,,,,,,,,,,,,,,,,,,,,1,0,340,139,1,339,ratio15_3_18_20.png,,,,,,,,,,,,
,,,,,,,,,,,,Few,Less than half,None,More than half,Many,Half,Some,Most,All,-0.461111111,0.033333333,1,0,0,QQQ8,,,,,,,,english,2020-07-02_10h59.29.586,Experiment_English,3.2.4,Win32,60,,,,,,,,,,,,,,,,,,,,,1,0,340,216,1,339,ratio31_15_20_3.png,,,,,,,,,,,,
,,,,,,,,,,,,Most,Many,None,Half,Few,Some,Less than half,More than half,All,-0.146527778,0.060416667,1,0,0,QQQ5,,,,,,,,english,2020-07-02_10h59.29.586,Experiment_English,3.2.4,Win32,60,,,,,,,,,,,,,,,,,,,,,1,0,340,95,1,339,ratio13_4_16_10.png,,,,,,,,,,,,
,,,,,,,,,,,,More than half,Many,Few,Some,Half,Less than half,Most,None,All,-0.146527778,0.060416667,1,0,0,QQQ5,,,,,,,,english,2020-07-02_10h59.29.586,Experiment_English,3.2.4,Win32,60,,,,,,,,,,,,,,,,,,,,,1,0,340,0,1,339,ratio12_1_3_3.png,,,,,,,,,,,,
,,,,,,,,,,,,More than half,Few,Less than half,All,Some,Many,Half,Most,None,-0.146527778,0.060416667,1,0,0,QQQ5,,,,,,,,english,2020-07-02_10h59.29.586,Experiment_English,3.2.4,Win32,60,,,,,,,,,,,,,,,,,,,,,1,0,340,110,1,339,ratio14_3_15_2.png,,,,,,,,,,,,
,,,,,,,,,,,,Some,Many,Less than half,Most,All,None,Half,More than half,Few,0.364583333,0.038888889,1,0,0,QQQ2,,,,,,,,english,2020-07-02_10h59.29.586,Experiment_English,3.2.4,Win32,60,,,,,,,,,,,,,,,,,,,,,1,0,340,313,1,339,ratio51_15_18_2.png,,,,,,,,,,,,
,,,,,,,,,,,,None,Few,All,More than half,Some,Most,Half,Less than half,Many,0.102083333,-0.242361111,1,0,0,QQQ6,,,,,,,,english,2020-07-02_10h59.29.586,Experiment_English,3.2.4,Win32,60,,,,,,,,,,,,,,,,,,,,,1,0,340,235,1,339,ratio32_12_20_1.png,,,,,,,,,,,,
,,,,,,,,,,,,Few,Most,Less than half,Half,None,All,Some,Many,More than half,0.375694444,0.240277778,1,0,0,QQQ1,,,,,,,,english,2020-07-02_10h59.29.586,Experiment_English,3.2.4,Win32,60,,,,,,,,,,,,,,,,,,,,,1,0,340,104,1,339,ratio14_1_5_10.png,,,,,,,,,,,,
,,,,,,,,,,,,Most,More than half,Less than half,None,All,Half,Few,Some,Many,-0.372916667,0.236111111,1,0,0,QQQ7,,,,,,,,english,2020-07-02_10h59.29.586,Experiment_English,3.2.4,Win32,60,,,,,,,,,,,,,,,,,,,,,1,0,340,147,1,339,ratio19_1_10_18.png,,,,,,,,,,,,
,,,,,,,,,,,,None,Some,Less than half,More than half,Half,Few,Most,Many,All,-0.079166667,-0.247222222,1,0,0,QQQ6,,,,,,,,english,2020-07-02_10h59.29.586,Experiment_English,3.2.4,Win32,60,,,,,,,,,,,,,,,,,,,,,1,0,340,87,1,339,ratio13_2_8_8.png,,,,,,,,,,,,
,,,,,,,,,,,,Few,Most,Many,None,Half,More than half,Some,All,Less than half,-0.064583333,-0.005555556,1,0,0,QQQ5,,,,,,,,english,2020-07-02_10h59.29.586,Experiment_English,3.2.4,Win32,60,,,,,,,,,,,,,,,,,,,,,1,0,340,236,1,339,ratio32_12_20_2.png,,,,,,,,,,,,
,,,,,,,,,,,,Some,More than half,Many,All,None,Most,Few,Less than half,Half,-0.003472222,0.209027778,1,0,0,QQQ4,,,,,,,,english,2020-07-02_10h59.29.586,Experiment_English,3.2.4,Win32,60,,,,,,,,,,,,,,,,,,,,,1,0,340,225,1,339,ratio32_6_10_4.png,,,,,,,,,,,,
,,,,,,,,,,,,Most,Many,Some,Half,None,Less than half,All,More than half,Few,-0.388888889,0.002083333,1,0,0,QQQ8,,,,,,,,english,2020-07-02_10h59.29.586,Experiment_English,3.2.4,Win32,60,,,,,,,,,,,,,,,,,,,,,1,0,340,311,1,339,ratio51_10_12_14.png,,,,,,,,,,,,
,,,,,,,,,,,,Less than half,Half,Most,Some,None,All,More than half,Many,Few,0.404166667,0.027777778,1,0,0,QQQ2,,,,,,,,english,2020-07-02_10h59.29.586,Experiment_English,3.2.4,Win32,60,,,,,,,,,,,,,,,,,,,,,1,0,340,251,1,339,ratio34_6_14_2.png,,,,,,,,,,,,
,,,,,,,,,,,,Less than half,Many,More than half,Few,Half,None,Most,Some,All,0.10625,0.018055556,1,0,0,QQQ5,,,,,,,,english,2020-07-02_10h59.29.586,Experiment_English,3.2.4,Win32,60,,,,,,,,,,,,,,,,,,,,,1,0,340,192,1,339,ratio23_6_15_8.png,,,,,,,,,,,,
,,,,,,,,,,,,Less than half,More than half,Most,None,Many,Some,Few,All,Half,0.414583333,0.056944444,1,0,0,QQQ2,,,,,,,,english,2020-07-02_10h59.29.586,Experiment_English,3.2.4,Win32,60,,,,,,,,,,,,,,,,,,,,,1,0,340,258,1,339,ratio34_6_14_14.png,,,,,,,,,,,,
,,,,,,,,,,,,All,None,Less than half,Half,Few,More than half,Many,Some,Most,0.0875,0.036111111,1,0,0,QQQ5,,,,,,,,english,2020-07-02_10h59.29.586,Experiment_English,3.2.4,Win32,60,,,,,,,,,,,,,,,,,,,,,1,0,340,244,1,339,ratio34_3_7_9.png,,,,,,,,,,,,
,,,,,,,,,,,,More than half,Less than half,Some,Few,Many,Most,All,Half,None,-0.377777778,0.029166667,1,0,0,QQQ8,,,,,,,,english,2020-07-02_10h59.29.586,Experiment_English,3.2.4,Win32,60,,,,,,,,,,,,,,,,,,,,,1,0,340,29,1,339,ratio11_6_12_1.png,,,,,,,,,,,,
,,,,,,,,,,,,Many,All,Less than half,More than half,Most,Some,Half,Few,None,-0.079166667,0.006944444,1,0,0,QQQ5,,,,,,,,english,2020-07-02_10h59.29.586,Experiment_English,3.2.4,Win32,60,,,,,,,,,,,,,,,,,,,,,1,0,340,172,1,339,ratio21_8_12_6.png,,,,,,,,,,,,
,,,,,,,,,,,,Few,Some,More than half,Most,Half,Many,All,None,Less than half,-0.069444444,0.225694444,1,0,0,QQQ4,,,,,,,,english,2020-07-02_10h59.29.586,Experiment_English,3.2.4,Win32,60,,,,,,,,,,,,,,,,,,,,,1,0,340,302,1,339,ratio51_5_6_5.png,,,,,,,,,,,,
,,,,,,,,,,,,Less than half,Few,More than half,All,Most,None,Half,Some,Many,-0.040972222,-0.028472222,1,0,0,QQQ5,,,,,,,,english,2020-07-02_10h59.29.586,Experiment_English,3.2.4,Win32,60,,,,,,,,,,,,,,,,,,,,,1,0,340,336,1,339,ratio91_18_20_12.png,,,,,,,,,,,,
,,,,,,,,,,,,Less than half,Some,More than half,Few,All,Most,Half,Many,None,-0.046527778,0.25625,1,0,0,QQQ4,,,,,,,,english,2020-07-02_10h59.29.586,Experiment_English,3.2.4,Win32,60,,,,,,,,,,,,,,,,,,,,,1,0,340,14,1,339,ratio12_5_15_4.png,,,,,,,,,,,,
,,,,,,,,,,,,Many,None,More than half,Less than half,Half,Few,Most,Some,All,0.379861111,0.26875,1,0,0,QQQ1,,,,,,,,english,2020-07-02_10h59.29.586,Experiment_English,3.2.4,Win32,60,,,,,,,,,,,,,,,,,,,,,1,0,340,178,1,339,ratio21_12_18_2.png,,,,,,,,,,,,
,,,,,,,,,,,,Most,None,More than half,Many,Half,Less than half,Some,Few,All,0.379861111,0.26875,1,0,0,QQQ1,,,,,,,,english,2020-07-02_10h59.29.586,Experiment_English,3.2.4,Win32,60,,,,,,,,,,,,,,,,,,,,,1,0,340,212,1,339,ratio31_12_16_1.png,,,,,,,,,,,,
,,,,,,,,,,,,Some,Half,Less than half,Many,All,None,Few,More than half,Most,0.393055556,0.065277778,1,0,0,QQQ2,,,,,,,,english,2020-07-02_10h59.29.586,Experiment_English,3.2.4,Win32,60,,,,,,,,,,,,,,,,,,,,,1,0,340,25,1,339,ratio11_4_8_10.png,,,,,,,,,,,,
,,,,,,,,,,,,Few,Many,All,Most,Less than half,Some,None,Half,More than half,0.393055556,0.065277778,1,0,0,QQQ2,,,,,,,,english,2020-07-02_10h59.29.586,Experiment_English,3.2.4,Win32,60,,,,,,,,,,,,,,,,,,,,,1,0,340,166,1,339,ratio21_6_9_1.png,,,,,,,,,,,,
,,,,,,,,,,,,Few,More than half,None,Most,Less than half,Half,All,Some,Many,0.430555556,0.252777778,1,0,0,QQQ1,,,,,,,,english,2020-07-02_10h59.29.586,Experiment_English,3.2.4,Win32,60,,,,,,,,,,,,,,,,,,,,,1,0,340,103,1,339,ratio14_1_5_9.png,,,,,,,,,,,,
,,,,,,,,,,,,Some,Half,None,Most,Few,All,More than half,Less than half,Many,0.116666667,0.227777778,1,0,0,QQQ4,,,,,,,,english,2020-07-02_10h59.29.586,Experiment_English,3.2.4,Win32,60,,,,,,,,,,,,,,,,,,,,,1,0,340,339,1,339,ratio91_18_20_19.png,,,,,,,,,,,,
,,,,,,,,,,,,Some,Few,Many,None,Less than half,Most,All,Half,More than half,-0.4125,-0.25625,1,0,0,QQQ9,,,,,,,,english,2020-07-02_10h59.29.586,Experiment_English,3.2.4,Win32,60,,,,,,,,,,,,,,,,,,,,,1,0,340,176,1,339,ratio21_10_15_3.png,,,,,,,,,,,,
,,,,,,,,,,,,Half,All,Few,None,Many,More than half,Some,Less than half,Most,-0.4125,-0.25625,1,0,0,QQQ9,,,,,,,,english,2020-07-02_10h59.29.586,Experiment_English,3.2.4,Win32,60,,,,,,,,,,,,,,,,,,,,,1,0,340,231,1,339,ratio32_9_15_2.png,0.277777778,-0.396527778,1,0,0,continue_button_pause,1,0,1,0,1,0
,,,,,,,,,,,,,,,,,,,,,,,,,,,,,,,,,,english,2020-07-02_10h59.29.586,Experiment_English,3.2.4,Win32,60,,,,,,,,,,,,,,,,,,,,,1,0,340,231,1,339,ratio32_9_15_2.png,,,,,,,,,,,,
,,,,,,,,,,,,Some,Half,Few,Less than half,Most,None,Many,All,More than half,0.032638889,-0.022222222,1,0,0,QQQ5,,,,,,,,english,2020-07-02_10h59.29.586,Experiment_English,3.2.4,Win32,60,,,,,,,,,,,,,,,,,,,,,1,0,340,32,1,339,ratio11_7_14_5.png,,,,,,,,,,,,
,,,,,,,,,,,,Few,Most,All,Less than half,Some,More than half,None,Half,Many,-0.013888889,-0.244444444,1,0,0,QQQ6,,,,,,,,english,2020-07-02_10h59.29.586,Experiment_English,3.2.4,Win32,60,,,,,,,,,,,,,,,,,,,,,1,0,340,252,1,339,ratio34_6_14_3.png,,,,,,,,,,,,
,,,,,,,,,,,,Less than half,Many,None,Most,All,Half,Few,Some,More than half,-0.013888889,-0.244444444,1,0,0,QQQ6,,,,,,,,english,2020-07-02_10h59.29.586,Experiment_English,3.2.4,Win32,60,,,,,,,,,,,,,,,,,,,,,1,0,340,294,1,339,ratio43_8_14_9.png,,,,,,,,,,,,
,,,,,,,,,,,,Few,More than half,Many,None,Most,Some,All,Half,Less than half,-0.013888889,-0.244444444,1,0,0,QQQ6,,,,,,,,english,2020-07-02_10h59.29.586,Experiment_English,3.2.4,Win32,60,,,,,,,,,,,,,,,,,,,,,1,0,340,269,1,339,ratio41_8_10_6.png,,,,,,,,,,,,
,,,,,,,,,,,,Some,Most,Less than half,All,Many,Half,More than half,Few,None,-0.013888889,-0.244444444,1,0,0,QQQ6,,,,,,,,english,2020-07-02_10h59.29.586,Experiment_English,3.2.4,Win32,60,,,,,,,,,,,,,,,,,,,,,1,0,340,2,1,339,ratio12_1_3_10.png,,,,,,,,,,,,
,,,,,,,,,,,,Few,More than half,Less than half,Some,Most,All,Half,None,Many,-0.026388889,0,1,0,0,QQQ5,,,,,,,,english,2020-07-02_10h59.29.586,Experiment_English,3.2.4,Win32,60,,,,,,,,,,,,,,,,,,,,,1,0,340,168,1,339,ratio21_6_9_3.png,,,,,,,,,,,,
,,,,,,,,,,,,Some,Less than half,None,Half,More than half,Few,All,Most,Many,-0.397916667,-0.00625,1,0,0,QQQ8,,,,,,,,english,2020-07-02_10h59.29.586,Experiment_English,3.2.4,Win32,60,,,,,,,,,,,,,,,,,,,,,1,0,340,317,1,339,ratio51_15_18_13.png,,,,,,,,,,,,
,,,,,,,,,,,,Less than half,More than half,Most,Few,Many,Some,All,None,Half,-0.080555556,0.294444444,1,0,0,QQQ4,,,,,,,,english,2020-07-02_10h59.29.586,Experiment_English,3.2.4,Win32,60,,,,,,,,,,,,,,,,,,,,,1,0,340,150,1,339,ratio19_2_20_1.png,,,,,,,,,,,,
,,,,,,,,,,,,Few,More than half,Less than half,All,Half,Most,Some,Many,None,-0.434722222,0.025,1,0,0,QQQ8,,,,,,,,english,2020-07-02_10h59.29.586,Experiment_English,3.2.4,Win32,60,,,,,,,,,,,,,,,,,,,,,1,0,340,325,1,339,ratio91_9_10_8.png,,,,,,,,,,,,
,,,,,,,,,,,,Half,Most,Few,Less than half,Some,None,More than half,All,Many,-0.078472222,-0.017361111,1,0,0,QQQ5,,,,,,,,english,2020-07-02_10h59.29.586,Experiment_English,3.2.4,Win32,60,,,,,,,,,,,,,,,,,,,,,1,0,340,86,1,339,ratio13_2_8_6.png,,,,,,,,,,,,
,,,,,,,,,,,,Half,Most,Few,Some,More than half,All,Many,Less than half,None,-0.422222222,-0.004166667,1,0,0,QQQ8,,,,,,,,english,2020-07-02_10h59.29.586,Experiment_English,3.2.4,Win32,60,,,,,,,,,,,,,,,,,,,,,1,0,340,245,1,339,ratio34_3_7_10.png,,,,,,,,,,,,
,,,,,,,,,,,,More than half,Half,None,Few,Many,Most,Less than half,All,Some,0.438888889,-0.027777778,1,0,0,QQQ2,,,,,,,,english,2020-07-02_10h59.29.586,Experiment_English,3.2.4,Win32,60,,,,,,,,,,,,,,,,,,,,,1,0,340,237,1,339,ratio32_12_20_5.png,,,,,,,,,,,,
,,,,,,,,,,,,Most,Less than half,All,Many,None,More than half,Few,Half,Some,0.440972222,0.268055556,1,0,0,QQQ1,,,,,,,,english,2020-07-02_10h59.29.586,Experiment_English,3.2.4,Win32,60,,,,,,,,,,,,,,,,,,,,,1,0,340,327,1,339,ratio91_9_10_11.png,,,,,,,,,,,,
,,,,,,,,,,,,More than half,Some,Half,Most,None,Less than half,Few,All,Many,-0.443055556,0.284027778,1,0,0,QQQ7,,,,,,,,english,2020-07-02_10h59.29.586,Experiment_English,3.2.4,Win32,60,,,,,,,,,,,,,,,,,,,,,1,0,340,151,1,339,ratio19_2_20_4.png,,,,,,,,,,,,
,,,,,,,,,,,,None,All,Many,Half,Less than half,Some,Few,Most,More than half,-0.472222222,0.06875,1,0,0,QQQ8,,,,,,,,english,2020-07-02_10h59.29.586,Experiment_English,3.2.4,Win32,60,,,,,,,,,,,,,,,,,,,,,1,0,340,276,1,339,ratio41_16_20_4.png,,,,,,,,,,,,
,,,,,,,,,,,,Many,Some,None,All,More than half,Most,Half,Less than half,Few,-0.473611111,0.259027778,1,0,0,QQQ7,,,,,,,,english,2020-07-02_10h59.29.586,Experiment_English,3.2.4,Win32,60,,,,,,,,,,,,,,,,,,,,,1,0,340,20,1,339,ratio11_2_4_3.png,,,,,,,,,,,,
,,,,,,,,,,,,Many,None,Some,Most,More than half,Half,Few,Less than half,All,-0.077777778,0.290277778,1,0,0,QQQ4,,,,,,,,english,2020-07-02_10h59.29.586,Experiment_English,3.2.4,Win32,60,,,,,,,,,,,,,,,,,,,,,1,0,340,278,1,339,ratio41_16_20_9.png,,,,,,,,,,,,
,,,,,,,,,,,,Most,Less than half,Many,Some,Few,Half,All,More than half,None,-0.077777778,0.290277778,1,0,0,QQQ4,,,,,,,,english,2020-07-02_10h59.29.586,Experiment_English,3.2.4,Win32,60,,,,,,,,,,,,,,,,,,,,,1,0,340,129,1,339,ratio15_2_12_9.png,,,,,,,,,,,,
,,,,,,,,,,,,Some,All,Few,Many,Most,Less than half,More than half,Half,None,-0.500694444,-0.040277778,1,0,0,QQQ8,,,,,,,,english,2020-07-02_10h59.29.586,Experiment_English,3.2.4,Win32,60,,,,,,,,,,,,,,,,,,,,,1,0,340,9,1,339,ratio12_3_9_5.png,,,,,,,,,,,,
,,,,,,,,,,,,Most,More than half,All,Less than half,Many,Half,None,Few,Some,0.445138889,-0.249305556,1,0,0,QQQ3,,,,,,,,english,2020-07-02_10h59.29.586,Experiment_English,3.2.4,Win32,60,,,,,,,,,,,,,,,,,,,,,1,0,340,57,1,339,ratioX0_18_18_1.png,,,,,,,,,,,,
,,,,,,,,,,,,Many,Most,Some,Less than half,Few,More than half,All,None,Half,0.431944444,-0.086111111,1,0,0,QQQ2,,,,,,,,english,2020-07-02_10h59.29.586,Experiment_English,3.2.4,Win32,60,,,,,,,,,,,,,,,,,,,,,1,0,340,318,1,339,ratio51_15_18_18.png,,,,,,,,,,,,
,,,,,,,,,,,,Few,Most,Half,Less than half,Many,None,All,More than half,Some,0.450694444,-0.269444444,1,0,0,QQQ3,,,,,,,,english,2020-07-02_10h59.29.586,Experiment_English,3.2.4,Win32,60,,,,,,,,,,,,,,,,,,,,,1,0,340,23,1,339,ratio11_3_6_9.png,,,,,,,,,,,,
,,,,,,,,,,,,None,Many,Few,Some,Half,Less than half,Most,More than half,All,0.428472222,0.224305556,1,0,0,QQQ1,,,,,,,,english,2020-07-02_10h59.29.586,Experiment_English,3.2.4,Win32,60,,,,,,,,,,,,,,,,,,,,,1,0,340,74,1,339,ratio0Y_0_15_10.png,,,,,,,,,,,,
,,,,,,,,,,,,Some,Few,More than half,Less than half,Most,Many,All,None,Half,-0.345138889,-0.261805556,1,0,0,QQQ9,,,,,,,,english,2020-07-02_10h59.29.586,Experiment_English,3.2.4,Win32,60,,,,,,,,,,,,,,,,,,,,,1,0,340,47,1,339,ratioX0_9_9_4.png,,,,,,,,,,,,
,,,,,,,,,,,,More than half,Half,Less than half,Some,None,Many,All,Most,Few,-0.395138889,-0.072222222,1,0,0,QQQ8,,,,,,,,english,2020-07-02_10h59.29.586,Experiment_English,3.2.4,Win32,60,,,,,,,,,,,,,,,,,,,,,1,0,340,160,1,339,ratio21_2_3_2.png,,,,,,,,,,,,
,,,,,,,,,,,,Some,None,Many,Most,All,Few,More than half,Half,Less than half,-0.395138889,-0.071527778,1,0,0,QQQ8,,,,,,,,english,2020-07-02_10h59.29.586,Experiment_English,3.2.4,Win32,60,,,,,,,,,,,,,,,,,,,,,1,0,340,253,1,339,ratio34_6_14_5.png,,,,,,,,,,,,
,,,,,,,,,,,,None,Less than half,All,Many,More than half,Most,Some,Half,Few,-0.391666667,-0.074305556,1,0,0,QQQ8,,,,,,,,english,2020-07-02_10h59.29.586,Experiment_English,3.2.4,Win32,60,,,,,,,,,,,,,,,,,,,,,1,0,340,268,1,339,ratio41_8_10_5.png,,,,,,,,,,,,
,,,,,,,,,,,,Less than half,None,Half,Few,All,More than half,Many,Some,Most,0.401388889,-0.264583333,1,0,0,QQQ3,,,,,,,,english,2020-07-02_10h59.29.586,Experiment_English,3.2.4,Win32,60,,,,,,,,,,,,,,,,,,,,,1,0,340,22,1,339,ratio11_3_6_6.png,,,,,,,,,,,,
,,,,,,,,,,,,Some,None,All,Less than half,More than half,Most,Many,Half,Few,0.04375,-0.295138889,1,0,0,QQQ6,,,,,,,,english,2020-07-02_10h59.29.586,Experiment_English,3.2.4,Win32,60,,,,,,,,,,,,,,,,,,,,,1,0,340,312,1,339,ratio51_10_12_16.png,,,,,,,,,,,,
,,,,,,,,,,,,Most,None,More than half,Many,Few,All,Some,Less than half,Half,0.4,0.261111111,1,0,0,QQQ1,,,,,,,,english,2020-07-02_10h59.29.586,Experiment_English,3.2.4,Win32,60,,,,,,,,,,,,,,,,,,,,,1,0,340,273,1,339,ratio41_12_15_8.png,,,,,,,,,,,,
,,,,,,,,,,,,Few,Some,Many,Most,All,Half,Less than half,More than half,None,0.0875,0.263888889,1,0,0,QQQ4,,,,,,,,english,2020-07-02_10h59.29.586,Experiment_English,3.2.4,Win32,60,,,,,,,,,,,,,,,,,,,,,1,0,340,287,1,339,ratio43_4_7_17.png,,,,,,,,,,,,
,,,,,,,,,,,,Many,All,Some,Few,Less than half,Half,More than half,Most,None,0.0875,0.263888889,1,0,0,QQQ4,,,,,,,,english,2020-07-02_10h59.29.586,Experiment_English,3.2.4,Win32,60,,,,,,,,,,,,,,,,,,,,,1,0,340,4,1,339,ratio12_2_6_5.png,,,,,,,,,,,,
,,,,,,,,,,,,Few,Most,Many,Less than half,More than half,None,All,Half,Some,0.46875,0.28125,1,0,0,QQQ1,,,,,,,,english,2020-07-02_10h59.29.586,Experiment_English,3.2.4,Win32,60,,,,,,,,,,,,,,,,,,,,,1,0,340,130,1,339,ratio15_2_12_12.png,,,,,,,,,,,,
,,,,,,,,,,,,More than half,Less than half,All,Most,None,Many,Few,Half,Some,0.46875,0.28125,1,0,0,QQQ1,,,,,,,,english,2020-07-02_10h59.29.586,Experiment_English,3.2.4,Win32,60,,,,,,,,,,,,,,,,,,,,,1,0,340,163,1,339,ratio21_4_6_1.png,0.275,-0.422916667,1,0,0,continue_button_pause,1,0,1,0,1,0
,,,,,,,,,,,,,,,,,,,,,,,,,,,,,,,,,,english,2020-07-02_10h59.29.586,Experiment_English,3.2.4,Win32,60,,,,,,,,,,,,,,,,,,,,,1,0,340,163,1,339,ratio21_4_6_1.png,,,,,,,,,,,,
,,,,,,,,,,,,Some,Less than half,Half,Many,Most,More than half,All,None,Few,-0.422916667,-0.058333333,1,0,0,QQQ8,,,,,,,,english,2020-07-02_10h59.29.586,Experiment_English,3.2.4,Win32,60,,,,,,,,,,,,,,,,,,,,,1,0,340,78,1,339,ratio0Y_0_19_1.png,,,,,,,,,,,,
,,,,,,,,,,,,None,Many,All,Some,Few,Half,Most,More than half,Less than half,-0.102777778,-0.044444444,1,0,0,QQQ5,,,,,,,,english,2020-07-02_10h59.29.586,Experiment_English,3.2.4,Win32,60,,,,,,,,,,,,,,,,,,,,,1,0,340,18,1,339,ratio12_6_18_7.png,,,,,,,,,,,,
,,,,,,,,,,,,Some,Many,More than half,Few,None,Less than half,Most,Half,All,-0.426388889,-0.039583333,1,0,0,QQQ8,,,,,,,,english,2020-07-02_10h59.29.586,Experiment_English,3.2.4,Win32,60,,,,,,,,,,,,,,,,,,,,,1,0,340,248,1,339,ratio34_3_7_19.png,,,,,,,,,,,,
,,,,,,,,,,,,All,Few,None,Most,Less than half,Half,Many,Some,More than half,-0.426388889,-0.039583333,1,0,0,QQQ8,,,,,,,,english,2020-07-02_10h59.29.586,Experiment_English,3.2.4,Win32,60,,,,,,,,,,,,,,,,,,,,,1,0,340,195,1,339,ratio23_8_20_1.png,,,,,,,,,,,,
,,,,,,,,,,,,More than half,Most,Many,Few,All,Some,Less than half,None,Half,-0.426388889,-0.039583333,1,0,0,QQQ8,,,,,,,,english,2020-07-02_10h59.29.586,Experiment_English,3.2.4,Win32,60,,,,,,,,,,,,,,,,,,,,,1,0,340,75,1,339,ratio0Y_0_16_10.png,,,,,,,,,,,,
,,,,,,,,,,,,Few,Most,All,None,Many,Half,Some,Less than half,More than half,0.400694444,0.277083333,1,0,0,QQQ1,,,,,,,,english,2020-07-02_10h59.29.586,Experiment_English,3.2.4,Win32,60,,,,,,,,,,,,,,,,,,,,,1,0,340,101,1,339,ratio14_1_5_7.png,,,,,,,,,,,,
,,,,,,,,,,,,Most,More than half,Many,None,All,Few,Half,Less than half,Some,0.14375,0.077083333,1,0,0,QQQ5,,,,,,,,english,2020-07-02_10h59.29.586,Experiment_English,3.2.4,Win32,60,,,,,,,,,,,,,,,,,,,,,1,0,340,44,1,339,ratioX0_7_7_5.png,,,,,,,,,,,,
,,,,,,,,,,,,None,More than half,Less than half,Few,All,Most,Some,Half,Many,0.104861111,0.272916667,1,0,0,QQQ4,,,,,,,,english,2020-07-02_10h59.29.586,Experiment_English,3.2.4,Win32,60,,,,,,,,,,,,,,,,,,,,,1,0,340,254,1,339,ratio34_6_14_9.png,,,,,,,,,,,,
,,,,,,,,,,,,None,More than half,Few,Many,Some,Most,Less than half,Half,All,0.104861111,0.272916667,1,0,0,QQQ4,,,,,,,,english,2020-07-02_10h59.29.586,Experiment_English,3.2.4,Win32,60,,,,,,,,,,,,,,,,,,,,,1,0,340,179,1,339,ratio21_12_18_8.png,,,,,,,,,,,,
,,,,,,,,,,,,Many,None,Few,More than half,Half,All,Less than half,Most,Some,-0.007638889,0.045833333,1,0,0,QQQ5,,,,,,,,english,2020-07-02_10h59.29.586,Experiment_English,3.2.4,Win32,60,,,,,,,,,,,,,,,,,,,,,1,0,340,21,1,339,ratio11_2_4_10.png,,,,,,,,,,,,
,,,,,,,,,,,,Less than half,Some,All,None,Few,Most,More than half,Half,Many,-0.007638889,0.045833333,1,0,0,QQQ5,,,,,,,,english,2020-07-02_10h59.29.586,Experiment_English,3.2.4,Win32,60,,,,,,,,,,,,,,,,,,,,,1,0,340,15,1,339,ratio12_5_15_5.png,,,,,,,,,,,,
,,,,,,,,,,,,Half,Most,Less than half,All,Many,Some,More than half,Few,None,-0.0125,0.045833333,1,0,0,QQQ5,,,,,,,,english,2020-07-02_10h59.29.586,Experiment_English,3.2.4,Win32,60,,,,,,,,,,,,,,,,,,,,,1,0,340,120,1,339,ratio15_1_6_1.png,,,,,,,,,,,,
,,,,,,,,,,,,Many,More than half,None,Most,Less than half,Some,All,Half,Few,-0.136111111,0.226388889,1,0,0,QQQ4,,,,,,,,english,2020-07-02_10h59.29.586,Experiment_English,3.2.4,Win32,60,,,,,,,,,,,,,,,,,,,,,1,0,340,309,1,339,ratio51_10_12_10.png,,,,,,,,,,,,
,,,,,,,,,,,,More than half,Most,Few,Less than half,Half,All,Some,Many,None,-0.125,-0.272222222,1,0,0,QQQ6,,,,,,,,english,2020-07-02_10h59.29.586,Experiment_English,3.2.4,Win32,60,,,,,,,,,,,,,,,,,,,,,1,0,340,45,1,339,ratioX0_8_8_3.png,,,,,,,,,,,,
,,,,,,,,,,,,Less than half,None,All,Few,Many,More than half,Half,Some,Most,-0.11875,0.211805556,1,0,0,QQQ4,,,,,,,,english,2020-07-02_10h59.29.586,Experiment_English,3.2.4,Win32,60,,,,,,,,,,,,,,,,,,,,,1,0,340,102,1,339,ratio14_1_5_8.png,,,,,,,,,,,,
,,,,,,,,,,,,Few,Half,Less than half,Some,All,More than half,Most,None,Many,-0.096527778,-0.239583333,1,0,0,QQQ6,,,,,,,,english,2020-07-02_10h59.29.586,Experiment_English,3.2.4,Win32,60,,,,,,,,,,,,,,,,,,,,,1,0,340,239,1,339,ratio32_12_20_10.png,,,,,,,,,,,,
,,,,,,,,,,,,Less than half,Some,Half,Many,All,More than half,Few,Most,None,0.390277778,-0.228472222,1,0,0,QQQ3,,,,,,,,english,2020-07-02_10h59.29.586,Experiment_English,3.2.4,Win32,60,,,,,,,,,,,,,,,,,,,,,1,0,340,180,1,339,ratio23_2_5_4.png,,,,,,,,,,,,
,,,,,,,,,,,,Most,Many,All,Some,More than half,Less than half,None,Half,Few,0.392361111,-0.027777778,1,0,0,QQQ2,,,,,,,,english,2020-07-02_10h59.29.586,Experiment_English,3.2.4,Win32,60,,,,,,,,,,,,,,,,,,,,,1,0,340,331,1,339,ratio91_18_20_3.png,,,,,,,,,,,,
,,,,,,,,,,,,Some,Most,Less than half,Few,None,All,More than half,Half,Many,-0.434722222,-0.050694444,1,0,0,QQQ8,,,,,,,,english,2020-07-02_10h59.29.586,Experiment_English,3.2.4,Win32,60,,,,,,,,,,,,,,,,,,,,,1,0,340,288,1,339,ratio43_4_7_18.png,,,,,,,,,,,,
,,,,,,,,,,,,Most,More than half,Few,Some,None,Less than half,All,Half,Many,-0.434722222,-0.050694444,1,0,0,QQQ8,,,,,,,,english,2020-07-02_10h59.29.586,Experiment_English,3.2.4,Win32,60,,,,,,,,,,,,,,,,,,,,,1,0,340,167,1,339,ratio21_6_9_2.png,,,,,,,,,,,,
,,,,,,,,,,,,Most,None,All,Some,Many,More than half,Half,Few,Less than half,-0.434722222,-0.050694444,1,0,0,QQQ8,,,,,,,,english,2020-07-02_10h59.29.586,Experiment_English,3.2.4,Win32,60,,,,,,,,,,,,,,,,,,,,,1,0,340,182,1,339,ratio23_2_5_7.png,,,,,,,,,,,,
,,,,,,,,,,,,More than half,Half,Many,All,Less than half,Some,None,Most,Few,-0.052777778,-0.032638889,1,0,0,QQQ5,,,,,,,,english,2020-07-02_10h59.29.586,Experiment_English,3.2.4,Win32,60,,,,,,,,,,,,,,,,,,,,,1,0,340,249,1,339,ratio34_3_7_20.png,,,,,,,,,,,,
,,,,,,,,,,,,Half,More than half,All,Some,Most,Few,None,Many,Less than half,-0.052777778,-0.032638889,1,0,0,QQQ5,,,,,,,,english,2020-07-02_10h59.29.586,Experiment_English,3.2.4,Win32,60,,,,,,,,,,,,,,,,,,,,,1,0,340,173,1,339,ratio21_8_12_9.png,,,,,,,,,,,,
,,,,,,,,,,,,Most,More than half,All,Less than half,Some,Few,Half,Many,None,0.404166667,0.232638889,1,0,0,QQQ1,,,,,,,,english,2020-07-02_10h59.29.586,Experiment_English,3.2.4,Win32,60,,,,,,,,,,,,,,,,,,,,,1,0,340,334,1,339,ratio91_18_20_9.png,,,,,,,,,,,,
,,,,,,,,,,,,More than half,All,Half,Most,Few,Less than half,None,Many,Some,0.051388889,0.239583333,1,0,0,QQQ4,,,,,,,,english,2020-07-02_10h59.29.586,Experiment_English,3.2.4,Win32,60,,,,,,,,,,,,,,,,,,,,,1,0,340,205,1,339,ratio31_6_8_2.png,,,,,,,,,,,,
,,,,,,,,,,,,Few,None,Most,Many,Half,Some,All,Less than half,More than half,0.427777778,0.272916667,1,0,0,QQQ1,,,,,,,,english,2020-07-02_10h59.29.586,Experiment_English,3.2.4,Win32,60,,,,,,,,,,,,,,,,,,,,,1,0,340,119,1,339,ratio14_4_20_10.png,,,,,,,,,,,,
,,,,,,,,,,,,Many,Less than half,All,Some,Few,Most,More than half,None,Half,0.104861111,0.064583333,1,0,0,QQQ5,,,,,,,,english,2020-07-02_10h59.29.586,Experiment_English,3.2.4,Win32,60,,,,,,,,,,,,,,,,,,,,,1,0,340,131,1,339,ratio15_2_12_14.png,,,,,,,,,,,,
,,,,,,,,,,,,Few,Half,Many,Most,Less than half,All,Some,More than half,None,0.452777778,0.052083333,1,0,0,QQQ2,,,,,,,,english,2020-07-02_10h59.29.586,Experiment_English,3.2.4,Win32,60,,,,,,,,,,,,,,,,,,,,,1,0,340,281,1,339,ratio43_4_7_4.png,,,,,,,,,,,,
,,,,,,,,,,,,None,Many,Half,Some,Most,Few,More than half,All,Less than half,0.472222222,-0.2625,1,0,0,QQQ3,,,,,,,,english,2020-07-02_10h59.29.586,Experiment_English,3.2.4,Win32,60,,,,,,,,,,,,,,,,,,,,,1,0,340,250,1,339,ratio34_6_14_1.png,,,,,,,,,,,,
,,,,,,,,,,,,Less than half,Half,None,More than half,Few,All,Many,Most,Some,0.103472222,-0.070833333,1,0,0,QQQ5,,,,,,,,english,2020-07-02_10h59.29.586,Experiment_English,3.2.4,Win32,60,,,,,,,,,,,,,,,,,,,,,1,0,340,8,1,339,ratio12_3_9_4.png,,,,,,,,,,,,
,,,,,,,,,,,,All,Most,Half,Less than half,Few,Some,Many,None,More than half,0.103472222,-0.070833333,1,0,0,QQQ5,,,,,,,,english,2020-07-02_10h59.29.586,Experiment_English,3.2.4,Win32,60,,,,,,,,,,,,,,,,,,,,,1,0,340,141,1,339,ratio19_1_10_2.png,,,,,,,,,,,,
,,,,,,,,,,,,Few,Less than half,Many,Some,More than half,None,Half,All,Most,0.103472222,-0.070833333,1,0,0,QQQ5,,,,,,,,english,2020-07-02_10h59.29.586,Experiment_English,3.2.4,Win32,60,,,,,,,,,,,,,,,,,,,,,1,0,340,226,1,339,ratio32_6_10_5.png,,,,,,,,,,,,
,,,,,,,,,,,,Half,Few,All,None,Many,Most,Less than half,More than half,Some,-0.34375,-0.020138889,1,0,0,QQQ8,,,,,,,,english,2020-07-02_10h59.29.586,Experiment_English,3.2.4,Win32,60,,,,,,,,,,,,,,,,,,,,,1,0,340,31,1,339,ratio11_6_12_9.png,,,,,,,,,,,,
,,,,,,,,,,,,Half,More than half,All,Less than half,Many,None,Some,Most,Few,-0.373611111,-0.290972222,1,0,0,QQQ9,,,,,,,,english,2020-07-02_10h59.29.586,Experiment_English,3.2.4,Win32,60,,,,,,,,,,,,,,,,,,,,,1,0,340,91,1,339,ratio13_3_12_10.png,0.397222222,-0.388194444,1,0,0,continue_button_pause,1,0,1,0,1,0
,,,,,,,,,,,,,,,,,,,,,,,,,,,,,,,,,,english,2020-07-02_10h59.29.586,Experiment_English,3.2.4,Win32,60,,,,,,,,,,,,,,,,,,,,,1,0,340,91,1,339,ratio13_3_12_10.png,,,,,,,,,,,,
,,,,,,,,,,,,Half,More than half,All,Many,Some,None,Most,Less than half,Few,0.424305556,-0.3375,1,0,0,QQQ3,,,,,,,,english,2020-07-02_10h59.29.586,Experiment_English,3.2.4,Win32,60,,,,,,,,,,,,,,,,,,,,,1,0,340,58,1,339,ratioX0_19_19_4.png,,,,,,,,,,,,
,,,,,,,,,,,,All,Few,Most,Many,Half,None,Some,More than half,Less than half,0.050694444,-0.042361111,1,0,0,QQQ5,,,,,,,,english,2020-07-02_10h59.29.586,Experiment_English,3.2.4,Win32,60,,,,,,,,,,,,,,,,,,,,,1,0,340,162,1,339,ratio21_2_3_9.png,,,,,,,,,,,,
,,,,,,,,,,,,Few,Half,Some,More than half,Less than half,Most,All,None,Many,0.051388889,-0.251388889,1,0,0,QQQ6,,,,,,,,english,2020-07-02_10h59.29.586,Experiment_English,3.2.4,Win32,60,,,,,,,,,,,,,,,,,,,,,1,0,340,306,1,339,ratio51_5_6_18.png,,,,,,,,,,,,
,,,,,,,,,,,,More than half,Less than half,All,Most,Few,Half,Many,Some,None,-0.570833333,0.385416667,1,0,0,QQQ7,,,,,,,,english,2020-07-02_10h59.29.586,Experiment_English,3.2.4,Win32,60,,,,,,,,,,,,,,,,,,,,,1,0,340,217,1,339,ratio31_15_20_5.png,,,,,,,,,,,,
,,,,,,,,,,,,None,More than half,Few,Less than half,Many,Some,All,Half,Most,-0.401388889,0.036111111,1,0,0,QQQ8,,,,,,,,english,2020-07-02_10h59.29.586,Experiment_English,3.2.4,Win32,60,,,,,,,,,,,,,,,,,,,,,1,0,340,191,1,339,ratio23_6_15_7.png,,,,,,,,,,,,
,,,,,,,,,,,,Many,All,None,Few,More than half,Most,Less than half,Half,Some,0.048611111,-0.35625,1,0,0,QQQ6,,,,,,,,english,2020-07-02_10h59.29.586,Experiment_English,3.2.4,Win32,60,,,,,,,,,,,,,,,,,,,,,1,0,340,316,1,339,ratio51_15_18_11.png,,,,,,,,,,,,
,,,,,,,,,,,,Few,Half,Less than half,Many,None,More than half,Most,Some,All,-0.002083333,0.311111111,1,0,0,QQQ4,,,,,,,,english,2020-07-02_10h59.29.586,Experiment_English,3.2.4,Win32,60,,,,,,,,,,,,,,,,,,,,,1,0,340,322,1,339,ratio91_9_10_3.png,,,,,,,,,,,,
,,,,,,,,,,,,All,Some,Half,None,More than half,Many,Most,Few,Less than half,-0.447222222,0.265277778,1,0,0,QQQ7,,,,,,,,english,2020-07-02_10h59.29.586,Experiment_English,3.2.4,Win32,60,,,,,,,,,,,,,,,,,,,,,1,0,340,329,1,339,ratio91_9_10_20.png,,,,,,,,,,,,
,,,,,,,,,,,,More than half,Many,Few,All,Most,Some,Less than half,None,Half,-0.476388889,-0.320138889,1,0,0,QQQ9,,,,,,,,english,2020-07-02_10h59.29.586,Experiment_English,3.2.4,Win32,60,,,,,,,,,,,,,,,,,,,,,1,0,340,297,1,339,ratio43_8_14_13.png,,,,,,,,,,,,
,,,,,,,,,,,,All,Half,More than half,Most,Many,Some,None,Few,Less than half,0.547916667,0.041666667,1,0,0,QQQ2,,,,,,,,english,2020-07-02_10h59.29.586,Experiment_English,3.2.4,Win32,60,,,,,,,,,,,,,,,,,,,,,1,0,340,222,1,339,ratio32_3_5_4.png,,,,,,,,,,,,
,,,,,,,,,,,,More than half,Some,Many,Few,None,Most,Less than half,All,Half,-0.06875,0.386805556,1,0,0,QQQ4,,,,,,,,english,2020-07-02_10h59.29.586,Experiment_English,3.2.4,Win32,60,,,,,,,,,,,,,,,,,,,,,1,0,340,82,1,339,ratio13_1_4_7.png,,,,,,,,,,,,
,,,,,,,,,,,,None,Many,Few,All,Less than half,Some,More than half,Most,Half,-0.54375,-0.286805556,1,0,0,QQQ9,,,,,,,,english,2020-07-02_10h59.29.586,Experiment_English,3.2.4,Win32,60,,,,,,,,,,,,,,,,,,,,,1,0,340,171,1,339,ratio21_8_12_4.png,,,,,,,,,,,,
,,,,,,,,,,,,All,More than half,Most,Half,Few,None,Many,Less than half,Some,0.047916667,-0.0375,1,0,0,QQQ5,,,,,,,,english,2020-07-02_10h59.29.586,Experiment_English,3.2.4,Win32,60,,,,,,,,,,,,,,,,,,,,,1,0,340,159,1,339,ratio19_2_20_20.png,,,,,,,,,,,,
,,,,,,,,,,,,Less than half,Some,Many,All,Half,Most,More than half,Few,None,-0.141666667,-0.341666667,1,0,0,QQQ6,,,,,,,,english,2020-07-02_10h59.29.586,Experiment_English,3.2.4,Win32,60,,,,,,,,,,,,,,,,,,,,,1,0,340,214,1,339,ratio31_12_16_5.png,,,,,,,,,,,,
,,,,,,,,,,,,Most,More than half,None,All,Many,Half,Few,Less than half,Some,-0.078472222,-0.038194444,1,0,0,QQQ5,,,,,,,,english,2020-07-02_10h59.29.586,Experiment_English,3.2.4,Win32,60,,,,,,,,,,,,,,,,,,,,,1,0,340,332,1,339,ratio91_18_20_4.png,,,,,,,,,,,,
,,,,,,,,,,,,Some,All,Most,More than half,Few,Many,Half,Less than half,None,0.075,-0.314583333,1,0,0,QQQ6,,,,,,,,english,2020-07-02_10h59.29.586,Experiment_English,3.2.4,Win32,60,,,,,,,,,,,,,,,,,,,,,1,0,340,330,1,339,ratio91_18_20_2.png,,,,,,,,,,,,
,,,,,,,,,,,,None,Few,Less than half,Most,Some,Half,Many,More than half,All,0.000694444,-0.314583333,1,0,0,QQQ6,,,,,,,,english,2020-07-02_10h59.29.586,Experiment_English,3.2.4,Win32,60,,,,,,,,,,,,,,,,,,,,,1,0,340,184,1,339,ratio23_2_5_10.png,,,,,,,,,,,,
,,,,,,,,,,,,None,Few,Less than half,Most,Half,All,Many,Some,More than half,0.015972222,-0.302777778,1,0,0,QQQ6,,,,,,,,english,2020-07-02_10h59.29.586,Experiment_English,3.2.4,Win32,60,,,,,,,,,,,,,,,,,,,,,1,0,340,50,1,339,ratioX0_12_12_3.png,,,,,,,,,,,,
,,,,,,,,,,,,All,Few,Some,None,Most,More than half,Half,Many,Less than half,-0.101388889,-0.061805556,1,0,0,QQQ5,,,,,,,,english,2020-07-02_10h59.29.586,Experiment_English,3.2.4,Win32,60,,,,,,,,,,,,,,,,,,,,,1,0,340,33,1,339,ratio11_7_14_8.png,,,,,,,,,,,,
,,,,,,,,,,,,None,All,Some,Half,Many,More than half,Less than half,Few,Most,0.556944444,0.336111111,1,0,0,QQQ1,,,,,,,,english,2020-07-02_10h59.29.586,Experiment_English,3.2.4,Win32,60,,,,,,,,,,,,,,,,,,,,,1,0,340,61,1,339,ratio0Y_0_4_7.png,,,,,,,,,,,,
,,,,,,,,,,,,Some,Few,Many,None,Half,Most,All,More than half,Less than half,0.434722222,-0.3125,1,0,0,QQQ3,,,,,,,,english,2020-07-02_10h59.29.586,Experiment_English,3.2.4,Win32,60,,,,,,,,,,,,,,,,,,,,,1,0,340,169,1,339,ratio21_6_9_7.png,,,,,,,,,,,,
,,,,,,,,,,,,Less than half,All,Many,Few,Half,None,Some,Most,More than half,0.017361111,0.30625,1,0,0,QQQ4,,,,,,,,english,2020-07-02_10h59.29.586,Experiment_English,3.2.4,Win32,60,,,,,,,,,,,,,,,,,,,,,1,0,340,124,1,339,ratio15_1_6_16.png,,,,,,,,,,,,
,,,,,,,,,,,,All,Few,Most,Some,None,Less than half,Half,Many,More than half,0.582638889,-0.015972222,1,0,0,QQQ2,,,,,,,,english,2020-07-02_10h59.29.586,Experiment_English,3.2.4,Win32,60,,,,,,,,,,,,,,,,,,,,,1,0,340,140,1,339,ratio19_1_10_1.png,,,,,,,,,,,,
,,,,,,,,,,,,Some,Few,All,Less than half,More than half,Most,Many,Half,None,0.41875,-0.040277778,1,0,0,QQQ2,,,,,,,,english,2020-07-02_10h59.29.586,Experiment_English,3.2.4,Win32,60,,,,,,,,,,,,,,,,,,,,,1,0,340,137,1,339,ratio15_3_18_16.png,,,,,,,,,,,,
,,,,,,,,,,,,Many,Few,Most,Some,All,More than half,Half,None,Less than half,0.359027778,0.2875,1,0,0,QQQ1,,,,,,,,english,2020-07-02_10h59.29.586,Experiment_English,3.2.4,Win32,60,,,,,,,,,,,,,,,,,,,,,1,0,340,270,1,339,ratio41_12_15_3.png,,,,,,,,,,,,
,,,,,,,,,,,,Few,Half,All,None,Less than half,Many,Some,More than half,Most,-0.039583333,-0.275,1,0,0,QQQ6,,,,,,,,english,2020-07-02_10h59.29.586,Experiment_English,3.2.4,Win32,60,,,,,,,,,,,,,,,,,,,,,1,0,340,275,1,339,ratio41_16_20_2.png,,,,,,,,,,,,
,,,,,,,,,,,,Few,Most,Less than half,More than half,None,All,Half,Some,Many,-0.391666667,-0.332638889,1,0,0,QQQ9,,,,,,,,english,2020-07-02_10h59.29.586,Experiment_English,3.2.4,Win32,60,,,,,,,,,,,,,,,,,,,,,1,0,340,266,1,339,ratio41_8_10_2.png,,,,,,,,,,,,
,,,,,,,,,,,,Less than half,More than half,None,Few,All,Some,Many,Most,Half,-0.432638889,0.021527778,1,0,0,QQQ8,,,,,,,,english,2020-07-02_10h59.29.586,Experiment_English,3.2.4,Win32,60,,,,,,,,,,,,,,,,,,,,,1,0,340,262,1,339,ratio41_4_5_4.png,,,,,,,,,,,,
,,,,,,,,,,,,Few,Half,More than half,All,None,Less than half,Most,Many,Some,-0.448611111,0.011805556,1,0,0,QQQ8,,,,,,,,english,2020-07-02_10h59.29.586,Experiment_English,3.2.4,Win32,60,,,,,,,,,,,,,,,,,,,,,1,0,340,304,1,339,ratio51_5_6_13.png,,,,,,,,,,,,
,,,,,,,,,,,,Most,Few,Many,Less than half,Some,None,Half,All,More than half,0.521527778,-0.048611111,1,0,0,QQQ2,,,,,,,,english,2020-07-02_10h59.29.586,Experiment_English,3.2.4,Win32,60,,,,,,,,,,,,,,,,,,,,,1,0,340,186,1,339,ratio23_4_10_2.png,,,,,,,,,,,,
,,,,,,,,,,,,Many,More than half,Half,Most,None,All,Few,Less than half,Some,0.654861111,-0.222916667,1,0,0,QQQ3,,,,,,,,english,2020-07-02_10h59.29.586,Experiment_English,3.2.4,Win32,60,,,,,,,,,,,,,,,,,,,,,1,0,340,291,1,339,ratio43_8_14_5.png,,,,,,,,,,,,
,,,,,,,,,,,,Many,Few,Most,All,Half,None,More than half,Some,Less than half,0.455555556,-0.259722222,1,0,0,QQQ3,,,,,,,,english,2020-07-02_10h59.29.586,Experiment_English,3.2.4,Win32,60,,,,,,,,,,,,,,,,,,,,,1,0,340,200,1,339,ratio31_3_4_4.png,,,,,,,,,,,,
,,,,,,,,,,,,Many,Half,Most,Some,All,None,Few,Less than half,More than half,-0.409027778,0.002083333,1,0,0,QQQ8,,,,,,,,english,2020-07-02_10h59.29.586,Experiment_English,3.2.4,Win32,60,,,,,,,,,,,,,,,,,,,,,1,0,340,99,1,339,ratio13_5_20_4.png,,,,,,,,,,,,
,,,,,,,,,,,,None,Most,Less than half,Many,More than half,Half,Few,All,Some,0.079861111,-0.323611111,1,0,0,QQQ6,,,,,,,,english,2020-07-02_10h59.29.586,Experiment_English,3.2.4,Win32,60,,,,,,,,,,,,,,,,,,,,,1,0,340,193,1,339,ratio23_6_15_9.png,0.309027778,-0.416666667,1,0,0,continue_button_pause,1,0,1,0,1,0
,,,,,,,,,,,,,,,,,,,,,,,,,,,,,,,,,,english,2020-07-02_10h59.29.586,Experiment_English,3.2.4,Win32,60,,,,,,,,,,,,,,,,,,,,,1,0,340,193,1,339,ratio23_6_15_9.png,,,,,,,,,,,,
,,,,,,,,,,,,Some,Less than half,Half,None,All,More than half,Few,Most,Many,-0.140277778,0.240277778,1,0,0,QQQ4,,,,,,,,english,2020-07-02_10h59.29.586,Experiment_English,3.2.4,Win32,60,,,,,,,,,,,,,,,,,,,,,1,0,340,69,1,339,ratio0Y_0_11_6.png,,,,,,,,,,,,
,,,,,,,,,,,,All,Half,Many,More than half,Less than half,Few,None,Most,Some,0.093055556,-0.316666667,1,0,0,QQQ6,,,,,,,,english,2020-07-02_10h59.29.586,Experiment_English,3.2.4,Win32,60,,,,,,,,,,,,,,,,,,,,,1,0,340,90,1,339,ratio13_3_12_7.png,,,,,,,,,,,,
,,,,,,,,,,,,Few,More than half,All,Most,Half,Less than half,None,Some,Many,0.513194444,0.263194444,1,0,0,QQQ1,,,,,,,,english,2020-07-02_10h59.29.586,Experiment_English,3.2.4,Win32,60,,,,,,,,,,,,,,,,,,,,,1,0,340,158,1,339,ratio19_2_20_17.png,,,,,,,,,,,,
,,,,,,,,,,,,All,Some,Less than half,More than half,Few,Many,Most,Half,None,-0.513888889,-0.01875,1,0,0,QQQ8,,,,,,,,english,2020-07-02_10h59.29.586,Experiment_English,3.2.4,Win32,60,,,,,,,,,,,,,,,,,,,,,1,0,340,30,1,339,ratio11_6_12_6.png,,,,,,,,,,,,
,,,,,,,,,,,,Many,Some,Most,Less than half,Few,More than half,None,All,Half,0.027083333,-0.035416667,1,0,0,QQQ5,,,,,,,,english,2020-07-02_10h59.29.586,Experiment_English,3.2.4,Win32,60,,,,,,,,,,,,,,,,,,,,,1,0,340,198,1,339,ratio23_8_20_7.png,,,,,,,,,,,,
,,,,,,,,,,,,Less than half,Many,Half,All,Most,Some,Few,None,More than half,-0.082638889,-0.039583333,1,0,0,QQQ5,,,,,,,,english,2020-07-02_10h59.29.586,Experiment_English,3.2.4,Win32,60,,,,,,,,,,,,,,,,,,,,,1,0,340,283,1,339,ratio43_4_7_8.png,,,,,,,,,,,,
,,,,,,,,,,,,More than half,Many,None,Some,All,Most,Less than half,Few,Half,-0.463888889,-0.290277778,1,0,0,QQQ9,,,,,,,,english,2020-07-02_10h59.29.586,Experiment_English,3.2.4,Win32,60,,,,,,,,,,,,,,,,,,,,,1,0,340,17,1,339,ratio12_6_18_5.png,,,,,,,,,,,,
,,,,,,,,,,,,Some,None,More than half,Half,Few,Less than half,Most,Many,All,0.095833333,-0.059722222,1,0,0,QQQ5,,,,,,,,english,2020-07-02_10h59.29.586,Experiment_English,3.2.4,Win32,60,,,,,,,,,,,,,,,,,,,,,1,0,340,127,1,339,ratio15_2_12_2.png,,,,,,,,,,,,
,,,,,,,,,,,,Most,Many,None,Half,More than half,Some,Less than half,Few,All,-0.465972222,-0.010416667,1,0,0,QQQ8,,,,,,,,english,2020-07-02_10h59.29.586,Experiment_English,3.2.4,Win32,60,,,,,,,,,,,,,,,,,,,,,1,0,340,83,1,339,ratio13_1_4_10.png,,,,,,,,,,,,
,,,,,,,,,,,,Few,Many,Less than half,Some,None,Half,All,More than half,Most,0.565972222,0.372916667,1,0,0,QQQ1,,,,,,,,english,2020-07-02_10h59.29.586,Experiment_English,3.2.4,Win32,60,,,,,,,,,,,,,,,,,,,,,1,0,340,3,1,339,ratio12_2_6_3.png,,,,,,,,,,,,
,,,,,,,,,,,,Less than half,Many,Some,Few,None,Half,Most,More than half,All,-0.121527778,-0.005555556,1,0,0,QQQ5,,,,,,,,english,2020-07-02_10h59.29.586,Experiment_English,3.2.4,Win32,60,,,,,,,,,,,,,,,,,,,,,1,0,340,66,1,339,ratio0Y_0_9_8.png,,,,,,,,,,,,
,,,,,,,,,,,,All,Less than half,Few,Most,Some,None,More than half,Many,Half,-0.427083333,-0.029166667,1,0,0,QQQ8,,,,,,,,english,2020-07-02_10h59.29.586,Experiment_English,3.2.4,Win32,60,,,,,,,,,,,,,,,,,,,,,1,0,340,279,1,339,ratio41_16_20_10.png,,,,,,,,,,,,
,,,,,,,,,,,,Few,More than half,All,Some,Half,None,Many,Most,Less than half,0.546527778,0.333333333,1,0,0,QQQ1,,,,,,,,english,2020-07-02_10h59.29.586,Experiment_English,3.2.4,Win32,60,,,,,,,,,,,,,,,,,,,,,1,0,340,144,1,339,ratio19_1_10_11.png,,,,,,,,,,,,
,,,,,,,,,,,,Some,None,Half,All,Few,Most,More than half,Less than half,Many,0.057638889,-0.027777778,1,0,0,QQQ5,,,,,,,,english,2020-07-02_10h59.29.586,Experiment_English,3.2.4,Win32,60,,,,,,,,,,,,,,,,,,,,,1,0,340,136,1,339,ratio15_3_18_8.png,,,,,,,,,,,,
,,,,,,,,,,,,Half,None,More than half,Few,Many,Most,Some,Less than half,All,0.103472222,0.279861111,1,0,0,QQQ4,,,,,,,,english,2020-07-02_10h59.29.586,Experiment_English,3.2.4,Win32,60,,,,,,,,,,,,,,,,,,,,,1,0,340,88,1,339,ratio13_3_12_5.png,,,,,,,,,,,,
,,,,,,,,,,,,None,Some,Most,Few,Many,Half,All,More than half,Less than half,-0.151388889,-0.286805556,1,0,0,QQQ6,,,,,,,,english,2020-07-02_10h59.29.586,Experiment_English,3.2.4,Win32,60,,,,,,,,,,,,,,,,,,,,,1,0,340,26,1,339,ratio11_5_10_4.png,,,,,,,,,,,,
,,,,,,,,,,,,Few,Half,Most,More than half,All,None,Some,Many,Less than half,-0.399305556,-0.063194444,1,0,0,QQQ8,,,,,,,,english,2020-07-02_10h59.29.586,Experiment_English,3.2.4,Win32,60,,,,,,,,,,,,,,,,,,,,,1,0,340,210,1,339,ratio31_9_12_9.png,,,,,,,,,,,,
,,,,,,,,,,,,Most,All,Half,More than half,Few,Many,Some,Less than half,None,0.075694444,-0.054166667,1,0,0,QQQ5,,,,,,,,english,2020-07-02_10h59.29.586,Experiment_English,3.2.4,Win32,60,,,,,,,,,,,,,,,,,,,,,1,0,340,109,1,339,ratio14_2_10_9.png,,,,,,,,,,,,
,,,,,,,,,,,,All,Many,More than half,Most,Some,Half,Less than half,Few,None,0.454166667,0.283333333,1,0,0,QQQ1,,,,,,,,english,2020-07-02_10h59.29.586,Experiment_English,3.2.4,Win32,60,,,,,,,,,,,,,,,,,,,,,1,0,340,49,1,339,ratioX0_11_11_2.png,,,,,,,,,,,,
,,,,,,,,,,,,Few,None,Some,More than half,Many,Less than half,All,Half,Most,0.515972222,0.35625,1,0,0,QQQ1,,,,,,,,english,2020-07-02_10h59.29.586,Experiment_English,3.2.4,Win32,60,,,,,,,,,,,,,,,,,,,,,1,0,340,153,1,339,ratio19_2_20_8.png,,,,,,,,,,,,
,,,,,,,,,,,,None,All,Few,Some,Less than half,More than half,Half,Many,Most,-0.609027778,-0.002777778,1,0,0,QQQ8,,,,,,,,english,2020-07-02_10h59.29.586,Experiment_English,3.2.4,Win32,60,,,,,,,,,,,,,,,,,,,,,1,0,340,271,1,339,ratio41_12_15_6.png,,,,,,,,,,,,
,,,,,,,,,,,,All,Less than half,More than half,None,Few,Many,Some,Half,Most,-0.44375,0.005555556,1,0,0,QQQ8,,,,,,,,english,2020-07-02_10h59.29.586,Experiment_English,3.2.4,Win32,60,,,,,,,,,,,,,,,,,,,,,1,0,340,256,1,339,ratio34_6_14_11.png,,,,,,,,,,,,
,,,,,,,,,,,,Some,Few,More than half,All,Less than half,Most,None,Half,Many,-0.444444444,-0.281944444,1,0,0,QQQ9,,,,,,,,english,2020-07-02_10h59.29.586,Experiment_English,3.2.4,Win32,60,,,,,,,,,,,,,,,,,,,,,1,0,340,301,1,339,ratio51_5_6_4.png,,,,,,,,,,,,
,,,,,,,,,,,,Half,More than half,Some,Many,Less than half,All,Most,None,Few,-0.444444444,0.007638889,1,0,0,QQQ8,,,,,,,,english,2020-07-02_10h59.29.586,Experiment_English,3.2.4,Win32,60,,,,,,,,,,,,,,,,,,,,,1,0,340,64,1,339,ratio0Y_0_7_1.png,,,,,,,,,,,,
,,,,,,,,,,,,Some,Few,More than half,All,Half,None,Less than half,Many,Most,-0.397222222,-0.031944444,1,0,0,QQQ8,,,,,,,,english,2020-07-02_10h59.29.586,Experiment_English,3.2.4,Win32,60,,,,,,,,,,,,,,,,,,,,,1,0,340,310,1,339,ratio51_10_12_12.png,,,,,,,,,,,,
,,,,,,,,,,,,Most,Few,Half,More than half,Some,Many,Less than half,None,All,0.026388889,-0.235416667,1,0,0,QQQ6,,,,,,,,english,2020-07-02_10h59.29.586,Experiment_English,3.2.4,Win32,60,,,,,,,,,,,,,,,,,,,,,1,0,340,319,1,339,ratio51_15_18_20.png,,,,,,,,,,,,
,,,,,,,,,,,,Most,Many,Some,More than half,All,Few,None,Half,Less than half,-0.406944444,-0.295138889,1,0,0,QQQ9,,,,,,,,english,2020-07-02_10h59.29.586,Experiment_English,3.2.4,Win32,60,,,,,,,,,,,,,,,,,,,,,1,0,340,117,1,339,ratio14_4_20_6.png,,,,,,,,,,,,
,,,,,,,,,,,,None,Few,More than half,Most,All,Many,Half,Some,Less than half,-0.010416667,-0.268055556,1,0,0,QQQ6,,,,,,,,english,2020-07-02_10h59.29.586,Experiment_English,3.2.4,Win32,60,,,,,,,,,,,,,,,,,,,,,1,0,340,337,1,339,ratio91_18_20_16.png,,,,,,,,,,,,
,,,,,,,,,,,,None,More than half,Less than half,Few,All,Most,Some,Half,Many,0.071527778,0.354166667,1,0,0,QQQ4,,,,,,,,english,2020-07-02_10h59.29.586,Experiment_English,3.2.4,Win32,60,,,,,,,,,,,,,,,,,,,,,1,0,340,155,1,339,ratio19_2_20_13.png,,,,,,,,,,,,
,,,,,,,,,,,,Less than half,Few,Half,More than half,Many,Most,All,Some,None,-0.042361111,-0.052777778,1,0,0,QQQ5,,,,,,,,english,2020-07-02_10h59.29.586,Experiment_English,3.2.4,Win32,60,,,,,,,,,,,,,,,,,,,,,1,0,340,314,1,339,ratio51_15_18_4.png,,,,,,,,,,,,
,,,,,,,,,,,,Some,Less than half,Most,All,Few,More than half,None,Many,Half,0.55625,-0.297222222,1,0,0,QQQ3,,,,,,,,english,2020-07-02_10h59.29.586,Experiment_English,3.2.4,Win32,60,,,,,,,,,,,,,,,,,,,,,1,0,340,260,1,339,ratio41_4_5_2.png,,,,,,,,,,,,
,,,,,,,,,,,,Many,All,Some,Most,More than half,Few,Less than half,Half,None,0.558333333,0.284722222,1,0,0,QQQ1,,,,,,,,english,2020-07-02_10h59.29.586,Experiment_English,3.2.4,Win32,60,,,,,,,,,,,,,,,,,,,,,1,0,340,295,1,339,ratio43_8_14_11.png,,,,,,,,,,,,
,,,,,,,,,,,,Some,Most,Few,All,Many,More than half,None,Half,Less than half,-0.451388889,-0.38125,1,0,0,QQQ9,,,,,,,,english,2020-07-02_10h59.29.586,Experiment_English,3.2.4,Win32,60,,,,,,,,,,,,,,,,,,,,,1,0,340,19,1,339,ratio12_6_18_9.png,,,,,,,,,,,,
,,,,,,,,,,,,Less than half,Some,More than half,All,Half,Few,Most,Many,None,0.114583333,-0.027777778,1,0,0,QQQ5,,,,,,,,english,2020-07-02_10h59.29.586,Experiment_English,3.2.4,Win32,60,,,,,,,,,,,,,,,,,,,,,1,0,340,284,1,339,ratio43_4_7_11.png,0.3125,-0.394444444,1,0,0,continue_button_pause,1,0,1,0,1,0
,,,,,,,,,,,,,,,,,,,,,,,,,,,,,,,,,,english,2020-07-02_10h59.29.586,Experiment_English,3.2.4,Win32,60,,,,,,,,,,,,,,,,,,,,,1,0,340,284,1,339,ratio43_4_7_11.png,,,,,,,,,,,,
,,,,,,,,,,,,None,Some,Many,More than half,Less than half,All,Half,Most,Few,-0.455555556,-0.321527778,1,0,0,QQQ9,,,,,,,,english,2020-07-02_10h59.29.586,Experiment_English,3.2.4,Win32,60,,,,,,,,,,,,,,,,,,,,,1,0,340,118,1,339,ratio14_4_20_8.png,,,,,,,,,,,,
,,,,,,,,,,,,None,Half,Some,Many,Most,More than half,Less than half,Few,All,-0.048611111,0.352083333,1,0,0,QQQ4,,,,,,,,english,2020-07-02_10h59.29.586,Experiment_English,3.2.4,Win32,60,,,,,,,,,,,,,,,,,,,,,1,0,340,234,1,339,ratio32_9_15_10.png,,,,,,,,,,,,
,,,,,,,,,,,,None,Half,Some,Many,More than half,Few,Less than half,All,Most,-0.481944444,0.023611111,1,0,0,QQQ8,,,,,,,,english,2020-07-02_10h59.29.586,Experiment_English,3.2.4,Win32,60,,,,,,,,,,,,,,,,,,,,,1,0,340,321,1,339,ratio91_9_10_2.png,,,,,,,,,,,,
,,,,,,,,,,,,More than half,None,All,Most,Less than half,Many,Half,Some,Few,-0.449305556,0.30625,1,0,0,QQQ7,,,,,,,,english,2020-07-02_10h59.29.586,Experiment_English,3.2.4,Win32,60,,,,,,,,,,,,,,,,,,,,,1,0,340,39,1,339,ratio11_10_20_6.png,,,,,,,,,,,,
,,,,,,,,,,,,Many,Less than half,Half,Most,Few,None,All,More than half,Some,0.029861111,-0.065972222,1,0,0,QQQ5,,,,,,,,english,2020-07-02_10h59.29.586,Experiment_English,3.2.4,Win32,60,,,,,,,,,,,,,,,,,,,,,1,0,340,134,1,339,ratio15_3_18_5.png,,,,,,,,,,,,
,,,,,,,,,,,,Less than half,Few,Many,Some,Half,None,Most,More than half,All,0.552083333,-0.028472222,1,0,0,QQQ2,,,,,,,,english,2020-07-02_10h59.29.586,Experiment_English,3.2.4,Win32,60,,,,,,,,,,,,,,,,,,,,,1,0,340,13,1,339,ratio12_5_15_3.png,,,,,,,,,,,,
,,,,,,,,,,,,None,Half,All,Some,Few,Many,More than half,Less than half,Most,0.038888889,-0.027083333,1,0,0,QQQ5,,,,,,,,english,2020-07-02_10h59.29.586,Experiment_English,3.2.4,Win32,60,,,,,,,,,,,,,,,,,,,,,1,0,340,85,1,339,ratio13_2_8_5.png,,,,,,,,,,,,
,,,,,,,,,,,,Half,Some,Many,More than half,Most,Few,None,All,Less than half,-0.579166667,-0.029861111,1,0,0,QQQ8,,,,,,,,english,2020-07-02_10h59.29.586,Experiment_English,3.2.4,Win32,60,,,,,,,,,,,,,,,,,,,,,1,0,340,59,1,339,ratioX0_20_20_9.png,,,,,,,,,,,,
,,,,,,,,,,,,None,Some,Few,Most,More than half,Less than half,Half,All,Many,0.494444444,-0.291666667,1,0,0,QQQ3,,,,,,,,english,2020-07-02_10h59.29.586,Experiment_English,3.2.4,Win32,60,,,,,,,,,,,,,,,,,,,,,1,0,340,112,1,339,ratio14_3_15_4.png,,,,,,,,,,,,
,,,,,,,,,,,,Some,Less than half,Few,None,Many,More than half,Most,Half,All,-0.619444444,0.031944444,1,0,0,QQQ8,,,,,,,,english,2020-07-02_10h59.29.586,Experiment_English,3.2.4,Win32,60,,,,,,,,,,,,,,,,,,,,,1,0,340,181,1,339,ratio23_2_5_6.png,,,,,,,,,,,,
,,,,,,,,,,,,Few,Some,Most,Many,None,All,Less than half,Half,More than half,-0.500694444,-0.038888889,1,0,0,QQQ8,,,,,,,,english,2020-07-02_10h59.29.586,Experiment_English,3.2.4,Win32,60,,,,,,,,,,,,,,,,,,,,,1,0,340,247,1,339,ratio34_3_7_12.png,,,,,,,,,,,,
,,,,,,,,,,,,Some,All,Less than half,Many,Few,More than half,None,Most,Half,-0.041666667,-0.068055556,1,0,0,QQQ5,,,,,,,,english,2020-07-02_10h59.29.586,Experiment_English,3.2.4,Win32,60,,,,,,,,,,,,,,,,,,,,,1,0,340,138,1,339,ratio15_3_18_17.png,,,,,,,,,,,,
,,,,,,,,,,,,Some,Few,Half,None,Most,All,More than half,Less than half,Many,-0.347222222,-0.297222222,1,0,0,QQQ9,,,,,,,,english,2020-07-02_10h59.29.586,Experiment_English,3.2.4,Win32,60,,,,,,,,,,,,,,,,,,,,,1,0,340,307,1,339,ratio51_10_12_1.png,,,,,,,,,,,,
,,,,,,,,,,,,None,Less than half,Most,More than half,All,Some,Few,Many,Half,0.463194444,0.020138889,1,0,0,QQQ2,,,,,,,,english,2020-07-02_10h59.29.586,Experiment_English,3.2.4,Win32,60,,,,,,,,,,,,,,,,,,,,,1,0,340,190,1,339,ratio23_6_15_3.png,,,,,,,,,,,,
,,,,,,,,,,,,Half,All,Some,Many,None,Few,Less than half,More than half,Most,0.502777778,-0.017361111,1,0,0,QQQ2,,,,,,,,english,2020-07-02_10h59.29.586,Experiment_English,3.2.4,Win32,60,,,,,,,,,,,,,,,,,,,,,1,0,340,40,1,339,ratioX0_3_3_5.png,,,,,,,,,,,,
,,,,,,,,,,,,Half,Few,Less than half,None,More than half,Most,Many,Some,All,0.586111111,-0.308333333,1,0,0,QQQ3,,,,,,,,english,2020-07-02_10h59.29.586,Experiment_English,3.2.4,Win32,60,,,,,,,,,,,,,,,,,,,,,1,0,340,16,1,339,ratio12_5_15_6.png,,,,,,,,,,,,
,,,,,,,,,,,,Few,More than half,Half,Many,Less than half,All,Most,Some,None,0.470138889,-0.298611111,1,0,0,QQQ3,,,,,,,,english,2020-07-02_10h59.29.586,Experiment_English,3.2.4,Win32,60,,,,,,,,,,,,,,,,,,,,,1,0,340,227,1,339,ratio32_6_10_6.png,,,,,,,,,,,,
,,,,,,,,,,,,Half,None,Some,Most,Less than half,Few,More than half,Many,All,0.06875,-0.375,1,0,0,QQQ6,,,,,,,,english,2020-07-02_10h59.29.586,Experiment_English,3.2.4,Win32,60,,,,,,,,,,,,,,,,,,,,,1,0,340,146,1,339,ratio19_1_10_17.png,,,,,,,,,,,,
,,,,,,,,,,,,None,Many,All,More than half,Few,Some,Less than half,Most,Half,-0.464583333,0.352083333,1,0,0,QQQ7,,,,,,,,english,2020-07-02_10h59.29.586,Experiment_English,3.2.4,Win32,60,,,,,,,,,,,,,,,,,,,,,1,0,340,7,1,339,ratio12_3_9_2.png,,,,,,,,,,,,
,,,,,,,,,,,,Many,Some,Half,All,Most,Less than half,None,Few,More than half,0.011805556,-0.318055556,1,0,0,QQQ6,,,,,,,,english,2020-07-02_10h59.29.586,Experiment_English,3.2.4,Win32,60,,,,,,,,,,,,,,,,,,,,,1,0,340,241,1,339,ratio34_3_7_5.png,,,,,,,,,,,,
,,,,,,,,,,,,Many,Half,Some,Few,All,Less than half,None,More than half,Most,-0.0625,-0.025694444,1,0,0,QQQ5,,,,,,,,english,2020-07-02_10h59.29.586,Experiment_English,3.2.4,Win32,60,,,,,,,,,,,,,,,,,,,,,1,0,340,53,1,339,ratioX0_14_14_8.png,,,,,,,,,,,,
,,,,,,,,,,,,More than half,Less than half,Few,Some,None,Many,Half,Most,All,-0.415972222,-0.0125,1,0,0,QQQ8,,,,,,,,english,2020-07-02_10h59.29.586,Experiment_English,3.2.4,Win32,60,,,,,,,,,,,,,,,,,,,,,1,0,340,320,1,339,ratio91_9_10_1.png,,,,,,,,,,,,
,,,,,,,,,,,,Few,More than half,All,Half,None,Less than half,Many,Most,Some,-0.011805556,-0.045833333,1,0,0,QQQ5,,,,,,,,english,2020-07-02_10h59.29.586,Experiment_English,3.2.4,Win32,60,,,,,,,,,,,,,,,,,,,,,1,0,340,67,1,339,ratio0Y_0_10_10.png,,,,,,,,,,,,
,,,,,,,,,,,,All,Many,Less than half,Some,None,Few,More than half,Half,Most,-0.459027778,-0.051388889,1,0,0,QQQ8,,,,,,,,english,2020-07-02_10h59.29.586,Experiment_English,3.2.4,Win32,60,,,,,,,,,,,,,,,,,,,,,1,0,340,27,1,339,ratio11_5_10_7.png,,,,,,,,,,,,
,,,,,,,,,,,,Less than half,None,Few,Half,Some,All,More than half,Most,Many,-0.527083333,0.308333333,1,0,0,QQQ7,,,,,,,,english,2020-07-02_10h59.29.586,Experiment_English,3.2.4,Win32,60,,,,,,,,,,,,,,,,,,,,,1,0,340,189,1,339,ratio23_4_10_8.png,,,,,,,,,,,,
,,,,,,,,,,,,All,None,Half,More than half,Most,Less than half,Many,Few,Some,-0.077777778,0.286111111,1,0,0,QQQ4,,,,,,,,english,2020-07-02_10h59.29.586,Experiment_English,3.2.4,Win32,60,,,,,,,,,,,,,,,,,,,,,1,0,340,164,1,339,ratio21_4_6_6.png,,,,,,,,,,,,
,,,,,,,,,,,,Half,Some,Many,None,Less than half,Few,Most,More than half,All,-0.038194444,-0.049305556,1,0,0,QQQ5,,,,,,,,english,2020-07-02_10h59.29.586,Experiment_English,3.2.4,Win32,60,,,,,,,,,,,,,,,,,,,,,1,0,340,255,1,339,ratio34_6_14_10.png,,,,,,,,,,,,
,,,,,,,,,,,,Less than half,More than half,Some,All,Many,Half,None,Few,Most,0.015972222,-0.009722222,1,0,0,QQQ5,,,,,,,,english,2020-07-02_10h59.29.586,Experiment_English,3.2.4,Win32,60,,,,,,,,,,,,,,,,,,,,,1,0,340,277,1,339,ratio41_16_20_8.png,,,,,,,,,,,,
,,,,,,,,,,,,None,Half,Most,Many,Few,Less than half,More than half,Some,All,-0.0125,-0.382638889,1,0,0,QQQ6,,,,,,,,english,2020-07-02_10h59.29.586,Experiment_English,3.2.4,Win32,60,,,,,,,,,,,,,,,,,,,,,1,0,340,187,1,339,ratio23_4_10_5.png,,,,,,,,,,,,
,,,,,,,,,,,,More than half,Most,All,Some,Half,Many,Less than half,None,Few,0.424305556,-0.071527778,1,0,0,QQQ2,,,,,,,,english,2020-07-02_10h59.29.586,Experiment_English,3.2.4,Win32,60,,,,,,,,,,,,,,,,,,,,,1,0,340,324,1,339,ratio91_9_10_7.png,,,,,,,,,,,,
,,,,,,,,,,,,Less than half,More than half,Some,Most,Many,None,Few,All,Half,-0.039583333,-0.083333333,1,0,0,QQQ5,,,,,,,,english,2020-07-02_10h59.29.586,Experiment_English,3.2.4,Win32,60,,,,,,,,,,,,,,,,,,,,,1,0,340,280,1,339,ratio43_4_7_2.png,,,,,,,,,,,,
,,,,,,,,,,,,None,Few,Half,All,Many,Less than half,More than half,Some,Most,-0.029861111,-0.288888889,1,0,0,QQQ6,,,,,,,,english,2020-07-02_10h59.29.586,Experiment_English,3.2.4,Win32,60,,,,,,,,,,,,,,,,,,,,,1,0,340,6,1,339,ratio12_3_9_1.png,,,,,,,,,,,,
,,,,,,,,,,,,More than half,Many,Most,All,Half,Few,Less than half,Some,None,-0.426388889,-0.038888889,1,0,0,QQQ8,,,,,,,,english,2020-07-02_10h59.29.586,Experiment_English,3.2.4,Win32,60,,,,,,,,,,,,,,,,,,,,,1,0,340,264,1,339,ratio41_4_5_6.png,,,,,,,,,,,,
,,,,,,,,,,,,Less than half,Few,Some,Many,Half,All,None,Most,More than half,-0.384027778,0.029166667,1,0,0,QQQ8,,,,,,,,english,2020-07-02_10h59.29.586,Experiment_English,3.2.4,Win32,60,,,,,,,,,,,,,,,,,,,,,1,0,340,206,1,339,ratio31_6_8_6.png,0.300694444,-0.395833333,1,0,0,continue_button_pause,1,0,1,0,1,0
,,,,,,,,,,,,,,,,,,,,,,,,,,,,,,,,,,english,2020-07-02_10h59.29.586,Experiment_English,3.2.4,Win32,60,,,,,,,,,,,,,,,,,,,,,1,0,340,206,1,339,ratio31_6_8_6.png,,,,,,,,,,,,
,,,,,,,,,,,,Half,Some,More than half,Less than half,Few,None,All,Many,Most,-0.575,0.359722222,1,0,0,QQQ7,,,,,,,,english,2020-07-02_10h59.29.586,Experiment_English,3.2.4,Win32,60,,,,,,,,,,,,,,,,,,,,,1,0,340,43,1,339,ratioX0_6_6_9.png,,,,,,,,,,,,
,,,,,,,,,,,,Most,Many,Some,All,None,Less than half,Few,Half,More than half,0.107638889,0.300694444,1,0,0,QQQ4,,,,,,,,english,2020-07-02_10h59.29.586,Experiment_English,3.2.4,Win32,60,,,,,,,,,,,,,,,,,,,,,1,0,340,48,1,339,ratioX0_10_10_1.png,,,,,,,,,,,,
,,,,,,,,,,,,None,Few,Most,Less than half,All,Half,Some,More than half,Many,0.534722222,-0.088194444,1,0,0,QQQ2,,,,,,,,english,2020-07-02_10h59.29.586,Experiment_English,3.2.4,Win32,60,,,,,,,,,,,,,,,,,,,,,1,0,340,149,1,339,ratio19_1_10_20.png,,,,,,,,,,,,
,,,,,,,,,,,,Many,All,Few,Most,Less than half,Some,Half,More than half,None,0.430555556,-0.053472222,1,0,0,QQQ2,,,,,,,,english,2020-07-02_10h59.29.586,Experiment_English,3.2.4,Win32,60,,,,,,,,,,,,,,,,,,,,,1,0,340,55,1,339,ratioX0_16_16_3.png,,,,,,,,,,,,
,,,,,,,,,,,,All,Some,Many,Less than half,Most,Few,More than half,Half,None,0.011805556,-0.284027778,1,0,0,QQQ6,,,,,,,,english,2020-07-02_10h59.29.586,Experiment_English,3.2.4,Win32,60,,,,,,,,,,,,,,,,,,,,,1,0,340,154,1,339,ratio19_2_20_11.png,,,,,,,,,,,,
,,,,,,,,,,,,Most,Some,More than half,Many,None,Few,All,Less than half,Half,-0.030555556,0.310416667,1,0,0,QQQ4,,,,,,,,english,2020-07-02_10h59.29.586,Experiment_English,3.2.4,Win32,60,,,,,,,,,,,,,,,,,,,,,1,0,340,300,1,339,ratio51_5_6_1.png,,,,,,,,,,,,
,,,,,,,,,,,,Many,Few,All,Most,More than half,None,Some,Half,Less than half,0.555555556,-0.052777778,1,0,0,QQQ2,,,,,,,,english,2020-07-02_10h59.29.586,Experiment_English,3.2.4,Win32,60,,,,,,,,,,,,,,,,,,,,,1,0,340,92,1,339,ratio13_4_16_3.png,,,,,,,,,,,,
,,,,,,,,,,,,Few,Most,Many,Half,Some,Less than half,More than half,All,None,0.451388889,0.306944444,1,0,0,QQQ1,,,,,,,,english,2020-07-02_10h59.29.586,Experiment_English,3.2.4,Win32,60,,,,,,,,,,,,,,,,,,,,,1,0,340,10,1,339,ratio12_4_12_4.png,,,,,,,,,,,,
,,,,,,,,,,,,Some,Less than half,All,Many,Most,None,More than half,Few,Half,0.50625,0.026388889,1,0,0,QQQ2,,,,,,,,english,2020-07-02_10h59.29.586,Experiment_English,3.2.4,Win32,60,,,,,,,,,,,,,,,,,,,,,1,0,340,196,1,339,ratio23_8_20_5.png,,,,,,,,,,,,
,,,,,,,,,,,,Some,Few,More than half,Most,All,Many,None,Less than half,Half,-0.517361111,-0.00625,1,0,0,QQQ8,,,,,,,,english,2020-07-02_10h59.29.586,Experiment_English,3.2.4,Win32,60,,,,,,,,,,,,,,,,,,,,,1,0,340,240,1,339,ratio34_3_7_4.png,,,,,,,,,,,,
,,,,,,,,,,,,Most,More than half,Some,All,Many,Less than half,None,Half,Few,0.010416667,-0.0625,1,0,0,QQQ5,,,,,,,,english,2020-07-02_10h59.29.586,Experiment_English,3.2.4,Win32,60,,,,,,,,,,,,,,,,,,,,,1,0,340,203,1,339,ratio31_3_4_9.png,,,,,,,,,,,,
,,,,,,,,,,,,More than half,Less than half,Half,Few,Some,All,Many,None,Most,-0.464583333,0.288194444,1,0,0,QQQ7,,,,,,,,english,2020-07-02_10h59.29.586,Experiment_English,3.2.4,Win32,60,,,,,,,,,,,,,,,,,,,,,1,0,340,230,1,339,ratio32_9_15_1.png,,,,,,,,,,,,
,,,,,,,,,,,,Half,Some,None,Few,All,Less than half,Most,More than half,Many,-0.539583333,0.256944444,1,0,0,QQQ7,,,,,,,,english,2020-07-02_10h59.29.586,Experiment_English,3.2.4,Win32,60,,,,,,,,,,,,,,,,,,,,,1,0,340,292,1,339,ratio43_8_14_6.png,,,,,,,,,,,,
,,,,,,,,,,,,Half,Most,None,Some,Many,All,Few,More than half,Less than half,-0.395138889,-0.272916667,1,0,0,QQQ9,,,,,,,,english,2020-07-02_10h59.29.586,Experiment_English,3.2.4,Win32,60,,,,,,,,,,,,,,,,,,,,,1,0,340,199,1,339,ratio23_8_20_8.png,,,,,,,,,,,,
,,,,,,,,,,,,Most,All,Some,Few,None,More than half,Many,Less than half,Half,-0.039583333,0.308333333,1,0,0,QQQ4,,,,,,,,english,2020-07-02_10h59.29.586,Experiment_English,3.2.4,Win32,60,,,,,,,,,,,,,,,,,,,,,1,0,340,148,1,339,ratio19_1_10_19.png,,,,,,,,,,,,
,,,,,,,,,,,,None,Some,Most,Half,All,Many,More than half,Less than half,Few,0.432638889,0.350694444,1,0,0,QQQ1,,,,,,,,english,2020-07-02_10h59.29.586,Experiment_English,3.2.4,Win32,60,,,,,,,,,,,,,,,,,,,,,1,0,340,65,1,339,ratio0Y_0_8_4.png,,,,,,,,,,,,
,,,,,,,,,,,,Few,Most,All,Many,None,Less than half,More than half,Half,Some,0.491666667,0.397222222,1,0,0,QQQ1,,,,,,,,english,2020-07-02_10h59.29.586,Experiment_English,3.2.4,Win32,60,,,,,,,,,,,,,,,,,,,,,1,0,340,152,1,339,ratio19_2_20_6.png,,,,,,,,,,,,
,,,,,,,,,,,,More than half,Many,Most,Some,Few,None,Less than half,Half,All,0.442361111,-0.005555556,1,0,0,QQQ2,,,,,,,,english,2020-07-02_10h59.29.586,Experiment_English,3.2.4,Win32,60,,,,,,,,,,,,,,,,,,,,,1,0,340,261,1,339,ratio41_4_5_3.png,,,,,,,,,,,,
,,,,,,,,,,,,Half,Some,Many,None,Most,Less than half,Few,More than half,All,-0.06875,-0.034722222,1,0,0,QQQ5,,,,,,,,english,2020-07-02_10h59.29.586,Experiment_English,3.2.4,Win32,60,,,,,,,,,,,,,,,,,,,,,1,0,340,233,1,339,ratio32_9_15_9.png,,,,,,,,,,,,
,,,,,,,,,,,,Many,All,Few,Less than half,Half,Most,More than half,None,Some,-0.06875,-0.034722222,1,0,0,QQQ5,,,,,,,,english,2020-07-02_10h59.29.586,Experiment_English,3.2.4,Win32,60,,,,,,,,,,,,,,,,,,,,,1,0,340,170,1,339,ratio21_6_9_8.png,,,,,,,,,,,,
,,,,,,,,,,,,All,Few,Half,Less than half,Many,More than half,Some,None,Most,-0.018055556,-0.365972222,1,0,0,QQQ6,,,,,,,,english,2020-07-02_10h59.29.586,Experiment_English,3.2.4,Win32,60,,,,,,,,,,,,,,,,,,,,,1,0,340,299,1,339,ratio43_8_14_17.png,,,,,,,,,,,,
,,,,,,,,,,,,All,Some,Few,Half,Less than half,Many,More than half,Most,None,-0.499305556,-0.066666667,1,0,0,QQQ8,,,,,,,,english,2020-07-02_10h59.29.586,Experiment_English,3.2.4,Win32,60,,,,,,,,,,,,,,,,,,,,,1,0,340,315,1,339,ratio51_15_18_10.png,,,,,,,,,,,,
,,,,,,,,,,,,Half,More than half,Most,Less than half,Many,None,Few,All,Some,-0.481944444,-0.020833333,1,0,0,QQQ8,,,,,,,,english,2020-07-02_10h59.29.586,Experiment_English,3.2.4,Win32,60,,,,,,,,,,,,,,,,,,,,,1,0,340,41,1,339,ratioX0_4_4_9.png,,,,,,,,,,,,
,,,,,,,,,,,,Few,More than half,Less than half,All,Many,Half,None,Most,Some,-0.469444444,-0.043055556,1,0,0,QQQ8,,,,,,,,english,2020-07-02_10h59.29.586,Experiment_English,3.2.4,Win32,60,,,,,,,,,,,,,,,,,,,,,1,0,340,215,1,339,ratio31_12_16_8.png,,,,,,,,,,,,
,,,,,,,,,,,,All,Most,Less than half,None,More than half,Half,Few,Some,Many,0.511805556,-0.010416667,1,0,0,QQQ2,,,,,,,,english,2020-07-02_10h59.29.586,Experiment_English,3.2.4,Win32,60,,,,,,,,,,,,,,,,,,,,,1,0,340,213,1,339,ratio31_12_16_2.png,,,,,,,,,,,,
,,,,,,,,,,,,None,More than half,All,Some,Half,Most,Many,Less than half,Few,-0.070833333,-0.284722222,1,0,0,QQQ6,,,,,,,,english,2020-07-02_10h59.29.586,Experiment_English,3.2.4,Win32,60,,,,,,,,,,,,,,,,,,,,,1,0,340,272,1,339,ratio41_12_15_7.png,,,,,,,,,,,,
,,,,,,,,,,,,Most,Half,Many,All,Less than half,Few,Some,More than half,None,-0.034722222,-0.317361111,1,0,0,QQQ6,,,,,,,,english,2020-07-02_10h59.29.586,Experiment_English,3.2.4,Win32,60,,,,,,,,,,,,,,,,,,,,,1,0,340,128,1,339,ratio15_2_12_8.png,,,,,,,,,,,,
,,,,,,,,,,,,All,Few,Most,Less than half,Some,More than half,Many,Half,None,0.483333333,-0.329861111,1,0,0,QQQ3,,,,,,,,english,2020-07-02_10h59.29.586,Experiment_English,3.2.4,Win32,60,,,,,,,,,,,,,,,,,,,,,1,0,340,267,1,339,ratio41_8_10_4.png,,,,,,,,,,,,
,,,,,,,,,,,,All,Half,Some,Few,Most,None,Many,Less than half,More than half,-0.498611111,0.266666667,1,0,0,QQQ7,,,,,,,,english,2020-07-02_10h59.29.586,Experiment_English,3.2.4,Win32,60,,,,,,,,,,,,,,,,,,,,,1,0,340,232,1,339,ratio32_9_15_8.png,,,,,,,,,,,,
,,,,,,,,,,,,Some,None,Most,All,Few,More than half,Many,Less than half,Half,-0.464583333,0.261805556,1,0,0,QQQ7,,,,,,,,english,2020-07-02_10h59.29.586,Experiment_English,3.2.4,Win32,60,,,,,,,,,,,,,,,,,,,,,1,0,340,333,1,339,ratio91_18_20_6.png,,,,,,,,,,,,
,,,,,,,,,,,,Few,None,Less than half,Half,Most,Many,More than half,All,Some,0.046527778,-0.061111111,1,0,0,QQQ5,,,,,,,,english,2020-07-02_10h59.29.586,Experiment_English,3.2.4,Win32,60,,,,,,,,,,,,,,,,,,,,,1,0,340,298,1,339,ratio43_8_14_14.png,,,,,,,,,,,,
,,,,,,,,,,,,More than half,None,All,Many,Half,Few,Some,Most,Less than half,0.0375,-0.088888889,1,0,0,QQQ5,,,,,,,,english,2020-07-02_10h59.29.586,Experiment_English,3.2.4,Win32,60,,,,,,,,,,,,,,,,,,,,,1,0,340,221,1,339,ratio32_3_5_3.png,,,,,,,,,,,,
,,,,,,,,,,,,All,Some,Less than half,More than half,Many,Few,None,Most,Half,0.036111111,-0.088888889,1,0,0,QQQ5,,,,,,,,english,2020-07-02_10h59.29.586,Experiment_English,3.2.4,Win32,60,,,,,,,,,,,,,,,,,,,,,1,0,340,51,1,339,ratioX0_12_12_9.png,,,,,,,,,,,,
,,,,,,,,,,,,None,Some,All,Few,Half,Most,More than half,Less than half,Many,0.005555556,0.314583333,1,0,0,QQQ4,,,,,,,,english,2020-07-02_10h59.29.586,Experiment_English,3.2.4,Win32,60,,,,,,,,,,,,,,,,,,,,,1,0,340,116,1,339,ratio14_4_20_3.png,0.334027778,-0.366666667,1,0,0,continue_button_pause,1,0,1,0,1,0
,,,,,,,,,,,,,,,,,,,,,,,,,,,,,,,,,,english,2020-07-02_10h59.29.586,Experiment_English,3.2.4,Win32,60,,,,,,,,,,,,,,,,,,,,,1,0,340,116,1,339,ratio14_4_20_3.png,,,,,,,,,,,,
,,,,,,,,,,,,Some,Less than half,All,None,Few,More than half,Many,Half,Most,-0.117361111,-0.08125,1,0,0,QQQ5,,,,,,,,english,2020-07-02_10h59.29.586,Experiment_English,3.2.4,Win32,60,,,,,,,,,,,,,,,,,,,,,1,0,340,183,1,339,ratio23_2_5_9.png,,,,,,,,,,,,
,,,,,,,,,,,,None,Half,More than half,All,Less than half,Few,Many,Most,Some,0.390277778,-0.020833333,1,0,0,QQQ2,,,,,,,,english,2020-07-02_10h59.29.586,Experiment_English,3.2.4,Win32,60,,,,,,,,,,,,,,,,,,,,,1,0,340,290,1,339,ratio43_8_14_3.png,,,,,,,,,,,,
,,,,,,,,,,,,Few,Some,Half,Many,Less than half,Most,More than half,None,All,-0.094444444,-0.077083333,1,0,0,QQQ5,,,,,,,,english,2020-07-02_10h59.29.586,Experiment_English,3.2.4,Win32,60,,,,,,,,,,,,,,,,,,,,,1,0,340,11,1,339,ratio12_4_12_7.png,,,,,,,,,,,,
,,,,,,,,,,,,Some,Many,Half,None,Few,All,More than half,Less than half,Most,-0.077777778,0.017361111,1,0,0,QQQ5,,,,,,,,english,2020-07-02_10h59.29.586,Experiment_English,3.2.4,Win32,60,,,,,,,,,,,,,,,,,,,,,1,0,340,123,1,339,ratio15_1_6_12.png,,,,,,,,,,,,
,,,,,,,,,,,,Few,Less than half,Most,Half,All,None,Many,More than half,Some,-0.474305556,0.265972222,1,0,0,QQQ7,,,,,,,,english,2020-07-02_10h59.29.586,Experiment_English,3.2.4,Win32,60,,,,,,,,,,,,,,,,,,,,,1,0,340,209,1,339,ratio31_9_12_6.png,,,,,,,,,,,,
,,,,,,,,,,,,Many,None,Few,More than half,Less than half,Most,Some,All,Half,0.627777778,-0.345833333,1,0,0,QQQ3,,,,,,,,english,2020-07-02_10h59.29.586,Experiment_English,3.2.4,Win32,60,,,,,,,,,,,,,,,,,,,,,1,0,340,80,1,339,ratio13_1_4_3.png,,,,,,,,,,,,
,,,,,,,,,,,,Less than half,More than half,Few,Half,Many,Some,Most,None,All,0.020138889,0.275694444,1,0,0,QQQ4,,,,,,,,english,2020-07-02_10h59.29.586,Experiment_English,3.2.4,Win32,60,,,,,,,,,,,,,,,,,,,,,1,0,340,228,1,339,ratio32_6_10_7.png,,,,,,,,,,,,
,,,,,,,,,,,,Less than half,All,Few,More than half,Many,Some,Half,Most,None,0.043055556,-0.059027778,1,0,0,QQQ5,,,,,,,,english,2020-07-02_10h59.29.586,Experiment_English,3.2.4,Win32,60,,,,,,,,,,,,,,,,,,,,,1,0,340,35,1,339,ratio11_8_16_10.png,,,,,,,,,,,,
,,,,,,,,,,,,More than half,Less than half,Many,Some,Few,None,All,Half,Most,0.580555556,-0.325,1,0,0,QQQ3,,,,,,,,english,2020-07-02_10h59.29.586,Experiment_English,3.2.4,Win32,60,,,,,,,,,,,,,,,,,,,,,1,0,340,37,1,339,ratio11_9_18_8.png,,,,,,,,,,,,
,,,,,,,,,,,,All,More than half,Most,Few,Less than half,Some,None,Half,Many,-0.046527778,0.245138889,1,0,0,QQQ4,,,,,,,,english,2020-07-02_10h59.29.586,Experiment_English,3.2.4,Win32,60,,,,,,,,,,,,,,,,,,,,,1,0,340,1,1,339,ratio12_1_3_7.png,,,,,,,,,,,,
,,,,,,,,,,,,None,Less than half,Few,All,Most,More than half,Many,Half,Some,0.532638889,0.282638889,1,0,0,QQQ1,,,,,,,,english,2020-07-02_10h59.29.586,Experiment_English,3.2.4,Win32,60,,,,,,,,,,,,,,,,,,,,,1,0,340,77,1,339,ratio0Y_0_18_3.png,,,,,,,,,,,,
,,,,,,,,,,,,More than half,Most,None,Some,Many,Half,Less than half,Few,All,-0.463194444,0.250694444,1,0,0,QQQ7,,,,,,,,english,2020-07-02_10h59.29.586,Experiment_English,3.2.4,Win32,60,,,,,,,,,,,,,,,,,,,,,1,0,340,257,1,339,ratio34_6_14_12.png,,,,,,,,,,,,
,,,,,,,,,,,,Half,More than half,Most,Less than half,None,All,Some,Many,Few,0.423611111,-0.020138889,1,0,0,QQQ2,,,,,,,,english,2020-07-02_10h59.29.586,Experiment_English,3.2.4,Win32,60,,,,,,,,,,,,,,,,,,,,,1,0,340,265,1,339,ratio41_8_10_1.png,,,,,,,,,,,,
,,,,,,,,,,,,All,Less than half,Many,More than half,Few,Most,None,Some,Half,0.075,0.248611111,1,0,0,QQQ4,,,,,,,,english,2020-07-02_10h59.29.586,Experiment_English,3.2.4,Win32,60,,,,,,,,,,,,,,,,,,,,,1,0,340,238,1,339,ratio32_12_20_9.png,,,,,,,,,,,,
,,,,,,,,,,,,Some,Half,None,Most,Less than half,All,More than half,Few,Many,-0.489583333,0.230555556,1,0,0,QQQ7,,,,,,,,english,2020-07-02_10h59.29.586,Experiment_English,3.2.4,Win32,60,,,,,,,,,,,,,,,,,,,,,1,0,340,174,1,339,ratio21_10_15_1.png,,,,,,,,,,,,
,,,,,,,,,,,,Most,All,Some,Less than half,Few,Half,Many,None,More than half,-0.015972222,-0.325694444,1,0,0,QQQ6,,,,,,,,english,2020-07-02_10h59.29.586,Experiment_English,3.2.4,Win32,60,,,,,,,,,,,,,,,,,,,,,1,0,340,28,1,339,ratio11_5_10_9.png,,,,,,,,,,,,
,,,,,,,,,,,,None,Few,All,Less than half,Half,Most,Some,More than half,Many,-0.078472222,0.270138889,1,0,0,QQQ4,,,,,,,,english,2020-07-02_10h59.29.586,Experiment_English,3.2.4,Win32,60,,,,,,,,,,,,,,,,,,,,,1,0,340,188,1,339,ratio23_4_10_6.png,,,,,,,,,,,,
,,,,,,,,,,,,Most,None,Less than half,Half,More than half,All,Few,Some,Many,0.054861111,-0.05,1,0,0,QQQ5,,,,,,,,english,2020-07-02_10h59.29.586,Experiment_English,3.2.4,Win32,60,,,,,,,,,,,,,,,,,,,,,1,0,340,161,1,339,ratio21_2_3_8.png,,,,,,,,,,,,
,,,,,,,,,,,,Some,None,More than half,Many,All,Less than half,Few,Half,Most,-0.569444444,0.315972222,1,0,0,QQQ7,,,,,,,,english,2020-07-02_10h59.29.586,Experiment_English,3.2.4,Win32,60,,,,,,,,,,,,,,,,,,,,,1,0,340,84,1,339,ratio13_2_8_1.png,,,,,,,,,,,,
,,,,,,,,,,,,Few,Most,Less than half,Many,None,More than half,Some,All,Half,0.034027778,0.269444444,1,0,0,QQQ4,,,,,,,,english,2020-07-02_10h59.29.586,Experiment_English,3.2.4,Win32,60,,,,,,,,,,,,,,,,,,,,,1,0,340,308,1,339,ratio51_10_12_9.png,,,,,,,,,,,,
,,,,,,,,,,,,Half,Some,None,Less than half,All,Most,More than half,Few,Many,-0.471527778,-0.067361111,1,0,0,QQQ8,,,,,,,,english,2020-07-02_10h59.29.586,Experiment_English,3.2.4,Win32,60,,,,,,,,,,,,,,,,,,,,,1,0,340,98,1,339,ratio13_5_20_3.png,,,,,,,,,,,,
,,,,,,,,,,,,All,Most,Some,None,Many,Less than half,More than half,Few,Half,0.442361111,-0.276388889,1,0,0,QQQ3,,,,,,,,english,2020-07-02_10h59.29.586,Experiment_English,3.2.4,Win32,60,,,,,,,,,,,,,,,,,,,,,1,0,340,229,1,339,ratio32_6_10_9.png,,,,,,,,,,,,
,,,,,,,,,,,,Most,Some,Half,More than half,Few,None,Many,All,Less than half,0.536111111,-0.294444444,1,0,0,QQQ3,,,,,,,,english,2020-07-02_10h59.29.586,Experiment_English,3.2.4,Win32,60,,,,,,,,,,,,,,,,,,,,,1,0,340,243,1,339,ratio34_3_7_8.png,,,,,,,,,,,,
,,,,,,,,,,,,Few,All,Some,More than half,None,Less than half,Most,Half,Many,0.528472222,0.322222222,1,0,0,QQQ1,,,,,,,,english,2020-07-02_10h59.29.586,Experiment_English,3.2.4,Win32,60,,,,,,,,,,,,,,,,,,,,,1,0,340,111,1,339,ratio14_3_15_3.png,,,,,,,,,,,,
,,,,,,,,,,,,Some,Few,None,All,Most,Many,Less than half,Half,More than half,-0.479166667,0.3375,1,0,0,QQQ7,,,,,,,,english,2020-07-02_10h59.29.586,Experiment_English,3.2.4,Win32,60,,,,,,,,,,,,,,,,,,,,,1,0,340,242,1,339,ratio34_3_7_6.png,,,,,,,,,,,,
,,,,,,,,,,,,Most,None,Few,Less than half,Half,Some,All,More than half,Many,0.458333333,-0.23125,1,0,0,QQQ3,,,,,,,,english,2020-07-02_10h59.29.586,Experiment_English,3.2.4,Win32,60,,,,,,,,,,,,,,,,,,,,,1,0,340,81,1,339,ratio13_1_4_5.png,,,,,,,,,,,,
,,,,,,,,,,,,All,Some,Few,None,Many,Less than half,Half,Most,More than half,0.374305556,-0.268055556,1,0,0,QQQ3,,,,,,,,english,2020-07-02_10h59.29.586,Experiment_English,3.2.4,Win32,60,,,,,,,,,,,,,,,,,,,,,1,0,340,107,1,339,ratio14_2_10_5.png,,,,,,,,,,,,
,,,,,,,,,,,,All,Most,Many,Some,None,Less than half,Few,More than half,Half,-0.1125,-0.032638889,1,0,0,QQQ5,,,,,,,,english,2020-07-02_10h59.29.586,Experiment_English,3.2.4,Win32,60,,,,,,,,,,,,,,,,,,,,,1,0,340,70,1,339,ratio0Y_0_12_5.png,,,,,,,,,,,,
,,,,,,,,,,,,Many,Some,Half,All,Most,None,Few,More than half,Less than half,-0.125,-0.039583333,1,0,0,QQQ5,,,,,,,,english,2020-07-02_10h59.29.586,Experiment_English,3.2.4,Win32,60,,,,,,,,,,,,,,,,,,,,,1,0,340,338,1,339,ratio91_18_20_18.png,,,,,,,,,,,,
,,,,,,,,,,,,Half,None,Most,More than half,Many,Some,All,Less than half,Few,0.614583333,-0.032638889,1,0,0,QQQ2,,,,,,,,english,2020-07-02_10h59.29.586,Experiment_English,3.2.4,Win32,60,,,,,,,,,,,,,,,,,,,,,1,0,340,79,1,339,ratio0Y_0_20_4.png,,,,,,,,,,,,
,,,,,,,,,,,,Most,Many,Few,Less than half,Half,More than half,None,All,Some,0.5375,0.314583333,1,0,0,QQQ1,,,,,,,,english,2020-07-02_10h59.29.586,Experiment_English,3.2.4,Win32,60,,,,,,,,,,,,,,,,,,,,,1,0,340,202,1,339,ratio31_3_4_8.png,,,,,,,,,,,,
,,,,,,,,,,,,All,Most,Less than half,More than half,Half,Few,Some,Many,None,-0.011805556,-0.006944444,1,0,0,QQQ5,,,,,,,,english,2020-07-02_10h59.29.586,Experiment_English,3.2.4,Win32,60,,,,,,,,,,,,,,,,,,,,,1,0,340,207,1,339,ratio31_6_8_9.png,,,,,,,,,,,,
,,,,,,,,,,,,Less than half,Many,Most,All,None,Few,Half,More than half,Some,-0.438888889,-0.027777778,1,0,0,QQQ8,,,,,,,,english,2020-07-02_10h59.29.586,Experiment_English,3.2.4,Win32,60,,,,,,,,,,,,,,,,,,,,,1,0,340,218,1,339,ratio31_15_20_7.png,,,,,,,,,,,,
,,,,,,,,,,,,More than half,Some,None,Half,Many,All,Few,Less than half,Most,0.418055556,0.270138889,1,0,0,QQQ1,,,,,,,,english,2020-07-02_10h59.29.586,Experiment_English,3.2.4,Win32,60,,,,,,,,,,,,,,,,,,,,,1,0,340,36,1,339,ratio11_9_18_1.png,0.326388889,-0.391666667,1,0,0,continue_button_pause,1,0,1,0,1,0
,,,,,,,,,,,,,,,,,,,,,,,,,,,,,,,,,,english,2020-07-02_10h59.29.586,Experiment_English,3.2.4,Win32,60,,,,,,,,,,,,,,,,,,,,,1,0,340,36,1,339,ratio11_9_18_1.png,,,,,,,,,,,,
,,,,,,,,,,,,Many,Few,Most,None,All,Some,More than half,Half,Less than half,-0.05,-0.067361111,1,0,0,QQQ5,,,,,,,,english,2020-07-02_10h59.29.586,Experiment_English,3.2.4,Win32,60,,,,,,,,,,,,,,,,,,,,,1,0,340,42,1,339,ratioX0_5_5_5.png,,,,,,,,,,,,
,,,,,,,,,,,,Few,Most,Some,Many,Half,Less than half,More than half,None,All,0.072916667,0.306944444,1,0,0,QQQ4,,,,,,,,english,2020-07-02_10h59.29.586,Experiment_English,3.2.4,Win32,60,,,,,,,,,,,,,,,,,,,,,1,0,340,326,1,339,ratio91_9_10_10.png,,,,,,,,,,,,
,,,,,,,,,,,,None,Many,Less than half,More than half,Most,All,Some,Half,Few,0,-0.063888889,1,0,0,QQQ5,,,,,,,,english,2020-07-02_10h59.29.586,Experiment_English,3.2.4,Win32,60,,,,,,,,,,,,,,,,,,,,,1,0,340,296,1,339,ratio43_8_14_12.png,,,,,,,,,,,,
,,,,,,,,,,,,Some,None,Most,More than half,Less than half,All,Few,Many,Half,0.085416667,-0.0375,1,0,0,QQQ5,,,,,,,,english,2020-07-02_10h59.29.586,Experiment_English,3.2.4,Win32,60,,,,,,,,,,,,,,,,,,,,,1,0,340,246,1,339,ratio34_3_7_11.png,,,,,,,,,,,,
,,,,,,,,,,,,Most,Some,Few,None,Half,More than half,Many,All,Less than half,0.044444444,-0.047916667,1,0,0,QQQ5,,,,,,,,english,2020-07-02_10h59.29.586,Experiment_English,3.2.4,Win32,60,,,,,,,,,,,,,,,,,,,,,1,0,340,223,1,339,ratio32_3_5_5.png,,,,,,,,,,,,
,,,,,,,,,,,,Half,Many,All,Most,Less than half,Some,Few,None,More than half,0.044444444,-0.047916667,1,0,0,QQQ5,,,,,,,,english,2020-07-02_10h59.29.586,Experiment_English,3.2.4,Win32,60,,,,,,,,,,,,,,,,,,,,,1,0,340,94,1,339,ratio13_4_16_8.png,,,,,,,,,,,,
,,,,,,,,,,,,All,Most,More than half,Less than half,Half,Some,None,Few,Many,0.591666667,-0.005555556,1,0,0,QQQ2,,,,,,,,english,2020-07-02_10h59.29.586,Experiment_English,3.2.4,Win32,60,,,,,,,,,,,,,,,,,,,,,1,0,340,208,1,339,ratio31_9_12_3.png,,,,,,,,,,,,
,,,,,,,,,,,,Less than half,Most,Half,None,Few,Many,All,Some,More than half,-0.015972222,-0.001388889,1,0,0,QQQ5,,,,,,,,english,2020-07-02_10h59.29.586,Experiment_English,3.2.4,Win32,60,,,,,,,,,,,,,,,,,,,,,1,0,340,89,1,339,ratio13_3_12_6.png,,,,,,,,,,,,
,,,,,,,,,,,,Many,Most,All,Some,Half,More than half,Less than half,Few,None,-0.485416667,-0.00625,1,0,0,QQQ8,,,,,,,,english,2020-07-02_10h59.29.586,Experiment_English,3.2.4,Win32,60,,,,,,,,,,,,,,,,,,,,,1,0,340,122,1,339,ratio15_1_6_7.png,,,,,,,,,,,,
,,,,,,,,,,,,None,Few,Some,Less than half,Most,All,More than half,Half,Many,0.058333333,-0.022222222,1,0,0,QQQ5,,,,,,,,english,2020-07-02_10h59.29.586,Experiment_English,3.2.4,Win32,60,,,,,,,,,,,,,,,,,,,,,1,0,340,204,1,339,ratio31_6_8_1.png,,,,,,,,,,,,
,,,,,,,,,,,,More than half,Few,Some,None,All,Half,Many,Most,Less than half,-0.466666667,-0.007638889,1,0,0,QQQ8,,,,,,,,english,2020-07-02_10h59.29.586,Experiment_English,3.2.4,Win32,60,,,,,,,,,,,,,,,,,,,,,1,0,340,175,1,339,ratio21_10_15_2.png,,,,,,,,,,,,
,,,,,,,,,,,,Less than half,None,Many,More than half,Some,Most,Half,Few,All,-0.548611111,-0.021527778,1,0,0,QQQ8,,,,,,,,english,2020-07-02_10h59.29.586,Experiment_English,3.2.4,Win32,60,,,,,,,,,,,,,,,,,,,,,1,0,340,132,1,339,ratio15_2_12_16.png,,,,,,,,,,,,
,,,,,,,,,,,,Some,Half,Most,All,Many,None,Few,Less than half,More than half,0.040972222,-0.020833333,1,0,0,QQQ5,,,,,,,,english,2020-07-02_10h59.29.586,Experiment_English,3.2.4,Win32,60,,,,,,,,,,,,,,,,,,,,,1,0,340,211,1,339,ratio31_9_12_10.png,,,,,,,,,,,,
,,,,,,,,,,,,Many,Some,All,Few,Less than half,More than half,Half,None,Most,0.509722222,-0.286805556,1,0,0,QQQ3,,,,,,,,english,2020-07-02_10h59.29.586,Experiment_English,3.2.4,Win32,60,,,,,,,,,,,,,,,,,,,,,1,0,340,46,1,339,ratioX0_9_9_3.png,,,,,,,,,,,,
,,,,,,,,,,,,More than half,All,Few,None,Less than half,Most,Half,Many,Some,0.564583333,-0.25625,1,0,0,QQQ3,,,,,,,,english,2020-07-02_10h59.29.586,Experiment_English,3.2.4,Win32,60,,,,,,,,,,,,,,,,,,,,,1,0,340,156,1,339,ratio19_2_20_14.png,,,,,,,,,,,,
,,,,,,,,,,,,Half,None,More than half,Some,Many,Less than half,Few,All,Most,0.116666667,-0.297916667,1,0,0,QQQ6,,,,,,,,english,2020-07-02_10h59.29.586,Experiment_English,3.2.4,Win32,60,,,,,,,,,,,,,,,,,,,,,1,0,340,194,1,339,ratio23_6_15_10.png,,,,,,,,,,,,
,,,,,,,,,,,,More than half,None,Most,Some,Half,Many,All,Few,Less than half,-0.550694444,0.055555556,1,0,0,QQQ8,,,,,,,,english,2020-07-02_10h59.29.586,Experiment_English,3.2.4,Win32,60,,,,,,,,,,,,,,,,,,,,,1,0,340,100,1,339,ratio14_1_5_3.png,,,,,,,,,,,,
,,,,,,,,,,,,Less than half,Some,More than half,Half,Most,Many,None,Few,All,-0.513194444,-0.304861111,1,0,0,QQQ9,,,,,,,,english,2020-07-02_10h59.29.586,Experiment_English,3.2.4,Win32,60,,,,,,,,,,,,,,,,,,,,,1,0,340,52,1,339,ratioX0_13_13_10.png,,,,,,,,,,,,
,,,,,,,,,,,,Many,More than half,Some,Most,All,Few,Half,None,Less than half,-0.096527778,-0.340972222,1,0,0,QQQ6,,,,,,,,english,2020-07-02_10h59.29.586,Experiment_English,3.2.4,Win32,60,,,,,,,,,,,,,,,,,,,,,1,0,340,133,1,339,ratio15_3_18_3.png,,,,,,,,,,,,
,,,,,,,,,,,,Most,Some,Half,Less than half,More than half,All,Few,Many,None,-0.490277778,0.320833333,1,0,0,QQQ7,,,,,,,,english,2020-07-02_10h59.29.586,Experiment_English,3.2.4,Win32,60,,,,,,,,,,,,,,,,,,,,,1,0,340,5,1,339,ratio12_2_6_9.png,,,,,,,,,,,,
,,,,,,,,,,,,Most,Less than half,Half,Few,More than half,Many,All,None,Some,0.426388889,-0.052777778,1,0,0,QQQ2,,,,,,,,english,2020-07-02_10h59.29.586,Experiment_English,3.2.4,Win32,60,,,,,,,,,,,,,,,,,,,,,1,0,340,96,1,339,ratio13_5_20_1.png,,,,,,,,,,,,
,,,,,,,,,,,,Many,Half,Most,Few,None,Some,More than half,All,Less than half,-0.033333333,0.290277778,1,0,0,QQQ4,,,,,,,,english,2020-07-02_10h59.29.586,Experiment_English,3.2.4,Win32,60,,,,,,,,,,,,,,,,,,,,,1,0,340,113,1,339,ratio14_3_15_8.png,,,,,,,,,,,,
,,,,,,,,,,,,All,None,Half,Few,Many,Most,Less than half,Some,More than half,-0.089583333,0.232638889,1,0,0,QQQ4,,,,,,,,english,2020-07-02_10h59.29.586,Experiment_English,3.2.4,Win32,60,,,,,,,,,,,,,,,,,,,,,1,0,340,145,1,339,ratio19_1_10_15.png,,,,,,,,,,,,
,,,,,,,,,,,,None,Half,All,More than half,Some,Most,Less than half,Few,Many,0.020833333,-0.314583333,1,0,0,QQQ6,,,,,,,,english,2020-07-02_10h59.29.586,Experiment_English,3.2.4,Win32,60,,,,,,,,,,,,,,,,,,,,,1,0,340,323,1,339,ratio91_9_10_5.png,,,,,,,,,,,,
,,,,,,,,,,,,More than half,None,Many,All,Half,Less than half,Few,Some,Most,-0.493055556,-0.3875,1,0,0,QQQ9,,,,,,,,english,2020-07-02_10h59.29.586,Experiment_English,3.2.4,Win32,60,,,,,,,,,,,,,,,,,,,,,1,0,340,303,1,339,ratio51_5_6_6.png,,,,,,,,,,,,
,,,,,,,,,,,,Less than half,More than half,Half,Few,None,All,Many,Some,Most,0.024305556,0.325694444,1,0,0,QQQ4,,,,,,,,english,2020-07-02_10h59.29.586,Experiment_English,3.2.4,Win32,60,,,,,,,,,,,,,,,,,,,,,1,0,340,126,1,339,ratio15_2_12_1.png,,,,,,,,,,,,
,,,,,,,,,,,,Few,Less than half,All,More than half,None,Most,Half,Many,Some,-0.104861111,-0.321527778,1,0,0,QQQ6,,,,,,,,english,2020-07-02_10h59.29.586,Experiment_English,3.2.4,Win32,60,,,,,,,,,,,,,,,,,,,,,1,0,340,335,1,339,ratio91_18_20_11.png,,,,,,,,,,,,
,,,,,,,,,,,,All,Few,Half,Less than half,More than half,Some,Most,None,Many,-0.0375,0.247916667,1,0,0,QQQ4,,,,,,,,english,2020-07-02_10h59.29.586,Experiment_English,3.2.4,Win32,60,,,,,,,,,,,,,,,,,,,,,1,0,340,185,1,339,ratio23_4_10_1.png,,,,,,,,,,,,
,,,,,,,,,,,,Most,Less than half,More than half,Some,Few,All,Many,None,Half,0.486805556,-0.020833333,1,0,0,QQQ2,,,,,,,,english,2020-07-02_10h59.29.586,Experiment_English,3.2.4,Win32,60,,,,,,,,,,,,,,,,,,,,,1,0,340,97,1,339,ratio13_5_20_2.png,,,,,,,,,,,,
,,,,,,,,,,,,More than half,Few,Most,Half,None,Many,Some,Less than half,All,0.029861111,0.249305556,1,0,0,QQQ4,,,,,,,,english,2020-07-02_10h59.29.586,Experiment_English,3.2.4,Win32,60,,,,,,,,,,,,,,,,,,,,,1,0,340,286,1,339,ratio43_4_7_15.png,,,,,,,,,,,,
,,,,,,,,,,,,Half,Few,All,Many,None,More than half,Less than half,Most,Some,-0.029861111,-0.3,1,0,0,QQQ6,,,,,,,,english,2020-07-02_10h59.29.586,Experiment_English,3.2.4,Win32,60,,,,,,,,,,,,,,,,,,,,,1,0,340,293,1,339,ratio43_8_14_7.png,,,,,,,,,,,,
,,,,,,,,,,,,Many,All,Some,Most,Less than half,More than half,Half,Few,None,-0.64375,0.042361111,1,0,0,QQQ8,,,,,,,,english,2020-07-02_10h59.29.586,Experiment_English,3.2.4,Win32,60,,,,,,,,,,,,,,,,,,,,,1,0,340,114,1,339,ratio14_3_15_10.png,,,,,,,,,,,,
,,,,,,,,,,,,Few,None,Most,Some,Many,More than half,Less than half,All,Half,0.502777778,-0.048611111,1,0,0,QQQ2,,,,,,,,english,2020-07-02_10h59.29.586,Experiment_English,3.2.4,Win32,60,,,,,,,,,,,,,,,,,,,,,1,0,340,71,1,339,ratio0Y_0_12_10.png,,,,,,,,,,,,
,,,,,,,,,,,,None,Many,More than half,Few,Half,All,Less than half,Some,Most,-0.564583333,-0.288888889,1,0,0,QQQ9,,,,,,,,english,2020-07-02_10h59.29.586,Experiment_English,3.2.4,Win32,60,,,,,,,,,,,,,,,,,,,,,1,0,340,177,1,339,ratio21_12_18_1.png,,,,,,,,,,,,
