continue_mouse.x,continue_mouse.y,continue_mouse.leftButton,continue_mouse.midButton,continue_mouse.rightButton,continue_mouse.clicked_name,continue_mouse_2.x,continue_mouse_2.y,continue_mouse_2.leftButton,continue_mouse_2.midButton,continue_mouse_2.rightButton,continue_mouse_2.clicked_name,Q1,Q2,Q3,Q4,Q5,Q6,Q7,Q8,Q9,select_answer.x,select_answer.y,select_answer.leftButton,select_answer.midButton,select_answer.rightButton,select_answer.clicked_name,trial.thisRepN,trial.thisTrialN,trial.thisN,trial.thisIndex,trial.ran,trial.order,trials,Native tongue*,date,expName,psychopyVersion,OS,frameRate,key_resp.keys,key_resp.rt,Actual_Experiment.thisRepN,Actual_Experiment.thisTrialN,Actual_Experiment.thisN,Actual_Experiment.thisIndex,Actual_Experiment.ran,Actual_Experiment.order,Pic,mouse_pause.x,mouse_pause.y,mouse_pause.leftButton,mouse_pause.midButton,mouse_pause.rightButton,mouse_pause.clicked_name,pause.thisRepN,pause.thisTrialN,pause.thisN,pause.thisIndex,pause.ran,pause.order
0.362962982,-0.42592594,1,0,0,continue_button,0.363888908,-0.414814828,1,0,0,continue_button_2,More than half,Half,None,Few,Some,All,Many,Less than half,Most,-0.01759258,0.304629627,1,0,0,QQQ4,1,0,16,0,1,15,ratio91_9_10_19.png,English,2020-07-02_11h05.34.905,Experiment_English,3.2.4,Win32,60,,,,,,,,,,,,,,,,,,,,,
,,,,,,,,,,,,Few,None,Many,All,Most,More than half,Half,Some,Less than half,0.505555576,0.296296293,1,0,0,QQQ1,1,0,16,6,1,15,ratio31_12_16_7.png,English,2020-07-02_11h05.34.905,Experiment_English,3.2.4,Win32,60,,,,,,,,,,,,,,,,,,,,,
,,,,,,,,,,,,Few,All,None,Some,Less than half,Many,Half,Most,More than half,-0.055555543,0.337962961,1,0,0,QQQ4,1,0,16,5,1,15,ratio32_6_10_2.png,English,2020-07-02_11h05.34.905,Experiment_English,3.2.4,Win32,60,,,,,,,,,,,,,,,,,,,,,
,,,,,,,,,,,,None,Many,All,Most,More than half,Some,Less than half,Half,Few,0.003703717,-0.299074086,1,0,0,QQQ6,1,0,16,1,1,15,ratio51_5_6_8.png,English,2020-07-02_11h05.34.905,Experiment_English,3.2.4,Win32,60,,,,,,,,,,,,,,,,,,,,,
,,,,,,,,,,,,Most,All,Few,Many,Half,Some,More than half,Less than half,None,0.002777791,-0.006481489,1,0,0,QQQ5,1,0,16,8,1,15,ratio21_12_18_3.png,English,2020-07-02_11h05.34.905,Experiment_English,3.2.4,Win32,60,,,,,,,,,,,,,,,,,,,,,
,,,,,,,,,,,,Most,Some,None,Less than half,Many,All,Half,More than half,Few,-0.50092592,-0.295370382,1,0,0,QQQ9,,,,,,,,English,2020-07-02_11h05.34.905,Experiment_English,3.2.4,Win32,60,b,12.93499994,1,0,340,134,1,339,ratio15_3_18_5.png,,,,,,,,,,,,
,,,,,,,,,,,,Half,All,Many,Few,Most,None,More than half,Some,Less than half,-0.488888883,0.302777761,1,0,0,QQQ7,,,,,,,,English,2020-07-02_11h05.34.905,Experiment_English,3.2.4,Win32,60,,,1,0,340,168,1,339,ratio21_6_9_3.png,,,,,,,,,,,,
,,,,,,,,,,,,None,Few,Some,More than half,Less than half,Many,Half,Most,All,-0.486111105,-0.269444456,1,0,0,QQQ9,,,,,,,,English,2020-07-02_11h05.34.905,Experiment_English,3.2.4,Win32,60,,,1,0,340,76,1,339,ratio0Y_0_17_10.png,,,,,,,,,,,,
,,,,,,,,,,,,Most,Less than half,All,More than half,Some,Many,None,Few,Half,-0.482407401,0.299074071,1,0,0,QQQ7,,,,,,,,English,2020-07-02_11h05.34.905,Experiment_English,3.2.4,Win32,60,,,1,0,340,61,1,339,ratio0Y_0_4_7.png,,,,,,,,,,,,
,,,,,,,,,,,,All,Many,Most,Less than half,Few,More than half,Some,Half,None,0.004629643,0.286111108,1,0,0,QQQ4,,,,,,,,English,2020-07-02_11h05.34.905,Experiment_English,3.2.4,Win32,60,,,1,0,340,244,1,339,ratio34_3_7_9.png,,,,,,,,,,,,
,,,,,,,,,,,,More than half,Few,Less than half,Half,Some,Most,None,All,Many,0.044444458,-0.279629698,1,0,0,QQQ6,,,,,,,,English,2020-07-02_11h05.34.905,Experiment_English,3.2.4,Win32,60,,,1,0,340,324,1,339,ratio91_9_10_7.png,,,,,,,,,,,,
,,,,,,,,,,,,Less than half,All,None,Many,Half,Most,More than half,Some,Few,-0.460185179,0.276851849,1,0,0,QQQ7,,,,,,,,English,2020-07-02_11h05.34.905,Experiment_English,3.2.4,Win32,60,,,1,0,340,228,1,339,ratio32_6_10_7.png,,,,,,,,,,,,
,,,,,,,,,,,,All,Less than half,Some,None,More than half,Few,Half,Many,Most,0.525000021,0.01203703,1,0,0,QQQ2,,,,,,,,English,2020-07-02_11h05.34.905,Experiment_English,3.2.4,Win32,60,,,1,0,340,94,1,339,ratio13_4_16_8.png,,,,,,,,,,,,
,,,,,,,,,,,,Less than half,All,Few,Most,Half,Many,Some,More than half,None,-0.51018518,-0.003703711,1,0,0,QQQ8,,,,,,,,English,2020-07-02_11h05.34.905,Experiment_English,3.2.4,Win32,60,,,1,0,340,165,1,339,ratio21_4_6_10.png,,,,,,,,,,,,
,,,,,,,,,,,,Some,All,None,Less than half,Most,Half,Few,Many,More than half,0.006481551,0.299999997,1,0,0,QQQ4,,,,,,,,English,2020-07-02_11h05.34.905,Experiment_English,3.2.4,Win32,60,,,1,0,340,194,1,339,ratio23_6_15_10.png,,,,,,,,,,,,
,,,,,,,,,,,,Many,Most,Few,All,Some,More than half,Less than half,Half,None,0.02129631,-0.294444456,1,0,0,QQQ6,,,,,,,,English,2020-07-02_11h05.34.905,Experiment_English,3.2.4,Win32,60,,,1,0,340,280,1,339,ratio43_4_7_2.png,,,,,,,,,,,,
,,,,,,,,,,,,Half,Some,Most,All,Many,None,Few,Less than half,More than half,0.488888909,-0.289814827,1,0,0,QQQ3,,,,,,,,English,2020-07-02_11h05.34.905,Experiment_English,3.2.4,Win32,60,,,1,0,340,274,1,339,ratio41_12_15_9.png,,,,,,,,,,,,
,,,,,,,,,,,,None,All,Half,Most,Many,Less than half,Some,More than half,Few,-0.01296295,-0.003703711,1,0,0,QQQ5,,,,,,,,English,2020-07-02_11h05.34.905,Experiment_English,3.2.4,Win32,60,,,1,0,340,318,1,339,ratio51_15_18_18.png,,,,,,,,,,,,
,,,,,,,,,,,,Few,Less than half,Some,Many,Half,None,More than half,Most,All,0.492592613,0.300925923,1,0,0,QQQ1,,,,,,,,English,2020-07-02_11h05.34.905,Experiment_English,3.2.4,Win32,60,,,1,0,340,192,1,339,ratio23_6_15_8.png,,,,,,,,,,,,
,,,,,,,,,,,,Half,All,Less than half,Some,Most,More than half,Many,None,Few,0.062962977,0.021296289,1,0,0,QQQ5,,,,,,,,English,2020-07-02_11h05.34.905,Experiment_English,3.2.4,Win32,60,,,1,0,340,211,1,339,ratio31_9_12_10.png,,,,,,,,,,,,
,,,,,,,,,,,,Most,Less than half,More than half,Many,Few,None,Half,Some,All,0.516666688,-0.299074086,1,0,0,QQQ3,,,,,,,,English,2020-07-02_11h05.34.905,Experiment_English,3.2.4,Win32,60,,,1,0,340,161,1,339,ratio21_2_3_8.png,,,,,,,,,,,,
,,,,,,,,,,,,All,Some,Half,More than half,Less than half,Many,Few,Most,None,0.026851865,0.29259259,1,0,0,QQQ4,,,,,,,,English,2020-07-02_11h05.34.905,Experiment_English,3.2.4,Win32,60,,,1,0,340,222,1,339,ratio32_3_5_4.png,,,,,,,,,,,,
,,,,,,,,,,,,Half,None,Many,Some,Less than half,Most,All,Few,More than half,0.473148168,0.30740739,1,0,0,QQQ1,,,,,,,,English,2020-07-02_11h05.34.905,Experiment_English,3.2.4,Win32,60,,,1,0,340,235,1,339,ratio32_12_20_1.png,,,,,,,,,,,,
,,,,,,,,,,,,Most,Few,More than half,Some,Less than half,Many,All,Half,None,-0.49444441,0.301851849,1,0,0,QQQ7,,,,,,,,English,2020-07-02_11h05.34.905,Experiment_English,3.2.4,Win32,60,,,1,0,340,43,1,339,ratioX0_6_6_9.png,,,,,,,,,,,,
,,,,,,,,,,,,Half,None,Few,More than half,Most,Some,Less than half,Many,All,0.006481551,-0.296296308,1,0,0,QQQ6,,,,,,,,English,2020-07-02_11h05.34.905,Experiment_English,3.2.4,Win32,60,,,1,0,340,151,1,339,ratio19_2_20_4.png,,,,,,,,,,,,
,,,,,,,,,,,,Many,Less than half,All,Some,Most,Few,More than half,None,Half,0.488888909,-0.001851859,1,0,0,QQQ2,,,,,,,,English,2020-07-02_11h05.34.905,Experiment_English,3.2.4,Win32,60,,,1,0,340,199,1,339,ratio23_8_20_8.png,,,,,,,,,,,,
,,,,,,,,,,,,None,Less than half,Many,Half,Few,All,Some,Most,More than half,0.521296317,0.286111108,1,0,0,QQQ1,,,,,,,,English,2020-07-02_11h05.34.905,Experiment_English,3.2.4,Win32,60,,,1,0,340,72,1,339,ratio0Y_0_13_4.png,,,,,,,,,,,,
,,,,,,,,,,,,Less than half,More than half,Half,None,Some,Most,Few,Many,All,0.493518539,-0.000925933,1,0,0,QQQ2,,,,,,,,English,2020-07-02_11h05.34.905,Experiment_English,3.2.4,Win32,60,,,1,0,340,288,1,339,ratio43_4_7_18.png,,,,,,,,,,,,
,,,,,,,,,,,,All,Many,None,Some,Less than half,Half,Most,Few,More than half,0.0296297,-0.004629637,1,0,0,QQQ5,,,,,,,,English,2020-07-02_11h05.34.905,Experiment_English,3.2.4,Win32,60,,,1,0,340,246,1,339,ratio34_3_7_11.png,,,,,,,,,,,,
,,,,,,,,,,,,Few,All,More than half,Most,Some,None,Many,Half,Less than half,-0.019444431,0.302777761,1,0,0,QQQ4,,,,,,,,English,2020-07-02_11h05.34.905,Experiment_English,3.2.4,Win32,60,,,1,0,340,264,1,339,ratio41_4_5_6.png,,,,,,,,,,,,
,,,,,,,,,,,,Few,Most,Some,Less than half,All,None,More than half,Many,Half,-0.487962957,-7.4558E-09,1,0,0,QQQ8,,,,,,,,English,2020-07-02_11h05.34.905,Experiment_English,3.2.4,Win32,60,,,1,0,340,231,1,339,ratio32_9_15_2.png,,,,,,,,,,,,
,,,,,,,,,,,,Many,All,None,Half,Few,Most,Less than half,More than half,Some,-0.506481476,0.295370367,1,0,0,QQQ7,,,,,,,,English,2020-07-02_11h05.34.905,Experiment_English,3.2.4,Win32,60,,,1,0,340,287,1,339,ratio43_4_7_17.png,,,,,,,,,,,,
,,,,,,,,,,,,Some,Few,Less than half,All,Half,More than half,None,Many,Most,-0.495370365,0.003703696,1,0,0,QQQ8,,,,,,,,English,2020-07-02_11h05.34.905,Experiment_English,3.2.4,Win32,60,,,1,0,340,260,1,339,ratio41_4_5_2.png,,,,,,,,,,,,
,,,,,,,,,,,,Less than half,All,Most,None,Few,Some,Half,More than half,Many,-0.495370365,0.003703696,1,0,0,QQQ8,,,,,,,,English,2020-07-02_11h05.34.905,Experiment_English,3.2.4,Win32,60,,,1,0,340,91,1,339,ratio13_3_12_10.png,,,,,,,,,,,,
,,,,,,,,,,,,Half,Many,None,Few,Some,More than half,All,Less than half,Most,-0.506481476,0.299074071,1,0,0,QQQ7,,,,,,,,English,2020-07-02_11h05.34.905,Experiment_English,3.2.4,Win32,60,,,1,0,340,58,1,339,ratioX0_19_19_4.png,,,,,,,,,,,,
,,,,,,,,,,,,Some,Less than half,Many,More than half,None,Most,Few,Half,All,0.012962976,-0.300000012,1,0,0,QQQ6,,,,,,,,English,2020-07-02_11h05.34.905,Experiment_English,3.2.4,Win32,60,,,1,0,340,325,1,339,ratio91_9_10_8.png,,,,,,,,,,,,
,,,,,,,,,,,,More than half,Many,All,Less than half,Half,Few,Some,Most,None,0.014814828,-0.312037106,1,0,0,QQQ6,,,,,,,,English,2020-07-02_11h05.34.905,Experiment_English,3.2.4,Win32,60,,,1,0,340,80,1,339,ratio13_1_4_3.png,,,,,,,,,,,,
,,,,,,,,,,,,Few,Many,None,Less than half,Half,All,Most,Some,More than half,-0.471296262,-0.277777789,1,0,0,QQQ9,,,,,,,,English,2020-07-02_11h05.34.905,Experiment_English,3.2.4,Win32,60,,,1,0,340,223,1,339,ratio32_3_5_5.png,,,,,,,,,,,,
,,,,,,,,,,,,Some,More than half,Half,Less than half,All,Many,None,Most,Few,-0.529629624,-0.008333341,1,0,0,QQQ8,,,,,,,,English,2020-07-02_11h05.34.905,Experiment_English,3.2.4,Win32,60,,,1,0,340,15,1,339,ratio12_5_15_5.png,0.372222241,-0.399074087,1,0,0,continue_button_pause,1,0,1,0,1,0
,,,,,,,,,,,,,,,,,,,,,,,,,,,,,,,,,,English,2020-07-02_11h05.34.905,Experiment_English,3.2.4,Win32,60,,,1,0,340,15,1,339,ratio12_5_15_5.png,,,,,,,,,,,,
,,,,,,,,,,,,None,Many,Most,All,More than half,Few,Half,Less than half,Some,-0.002216051,0.021883649,1,0,0,QQQ5,,,,,,,,English,2020-07-02_11h05.34.905,Experiment_English,3.2.4,Win32,60,,,1,0,340,84,1,339,ratio13_2_8_1.png,,,,,,,,,,,,
,,,,,,,,,,,,Few,All,Most,More than half,None,Many,Less than half,Some,Half,0.516343514,-0.299445995,1,0,0,QQQ3,,,,,,,,English,2020-07-02_11h05.34.905,Experiment_English,3.2.4,Win32,60,,,1,0,340,331,1,339,ratio91_18_20_3.png,,,,,,,,,,,,
,,,,,,,,,,,,Many,Half,Some,All,More than half,Most,None,Less than half,Few,-0.489750684,0.286703598,1,0,0,QQQ7,,,,,,,,English,2020-07-02_11h05.34.905,Experiment_English,3.2.4,Win32,60,,,1,0,340,78,1,339,ratio0Y_0_19_1.png,,,,,,,,,,,,
,,,,,,,,,,,,Many,More than half,All,Less than half,Half,None,Some,Few,Most,0.505263181,0.030747882,1,0,0,QQQ2,,,,,,,,English,2020-07-02_11h05.34.905,Experiment_English,3.2.4,Win32,60,,,1,0,340,226,1,339,ratio32_6_10_5.png,,,,,,,,,,,,
,,,,,,,,,,,,Less than half,Many,None,Few,All,Half,More than half,Most,Some,-0.455401653,0.288919648,1,0,0,QQQ7,,,,,,,,English,2020-07-02_11h05.34.905,Experiment_English,3.2.4,Win32,60,,,1,0,340,281,1,339,ratio43_4_7_4.png,,,,,,,,,,,,
,,,,,,,,,,,,Few,Less than half,Some,More than half,Most,Many,Half,None,All,-0.019944515,-0.009141282,1,0,0,QQQ5,,,,,,,,English,2020-07-02_11h05.34.905,Experiment_English,3.2.4,Win32,60,,,1,0,340,172,1,339,ratio21_8_12_6.png,,,,,,,,,,,,
,,,,,,,,,,,,Few,All,Many,Half,Some,None,Most,More than half,Less than half,-0.506371183,-0.278393363,1,0,0,QQQ9,,,,,,,,English,2020-07-02_11h05.34.905,Experiment_English,3.2.4,Win32,60,,,1,0,340,250,1,339,ratio34_6_14_1.png,,,,,,,,,,,,
,,,,,,,,,,,,Half,Less than half,Some,More than half,None,Many,All,Most,Few,0.003324116,0.317728529,1,0,0,QQQ4,,,,,,,,English,2020-07-02_11h05.34.905,Experiment_English,3.2.4,Win32,60,,,1,0,340,330,1,339,ratio91_18_20_2.png,,,,,,,,,,,,
,,,,,,,,,,,,None,More than half,All,Many,Half,Some,Most,Less than half,Few,0.530748081,-0.025761781,1,0,0,QQQ2,,,,,,,,English,2020-07-02_11h05.34.905,Experiment_English,3.2.4,Win32,60,,,1,0,340,292,1,339,ratio43_8_14_6.png,,,,,,,,,,,,
,,,,,,,,,,,,All,Many,Half,Most,More than half,Less than half,Some,Few,None,-0.481994451,-0.307202228,1,0,0,QQQ9,,,,,,,,English,2020-07-02_11h05.34.905,Experiment_English,3.2.4,Win32,60,,,1,0,340,66,1,339,ratio0Y_0_9_8.png,,,,,,,,,,,,
,,,,,,,,,,,,Few,More than half,Less than half,Half,Most,None,Some,All,Many,0.481994483,-0.300554029,1,0,0,QQQ3,,,,,,,,English,2020-07-02_11h05.34.905,Experiment_English,3.2.4,Win32,60,,,1,0,340,3,1,339,ratio12_2_6_3.png,,,,,,,,,,,,
,,,,,,,,,,,,None,Less than half,All,More than half,Some,Most,Half,Few,Many,0.435457086,-0.016897515,1,0,0,QQQ2,,,,,,,,English,2020-07-02_11h05.34.905,Experiment_English,3.2.4,Win32,60,,,1,0,340,259,1,339,ratio34_6_14_19.png,,,,,,,,,,,,
,,,,,,,,,,,,Less than half,All,Half,Many,None,Most,More than half,Few,Some,0.422160687,0.250138484,1,0,0,QQQ1,,,,,,,,English,2020-07-02_11h05.34.905,Experiment_English,3.2.4,Win32,60,,,1,0,340,90,1,339,ratio13_3_12_7.png,,,,,,,,,,,,
,,,,,,,,,,,,Some,Many,More than half,All,None,Few,Most,Half,Less than half,-0.50193905,-0.263988999,1,0,0,QQQ9,,,,,,,,English,2020-07-02_11h05.34.905,Experiment_English,3.2.4,Win32,60,,,1,0,340,110,1,339,ratio14_3_15_2.png,,,,,,,,,,,,
,,,,,,,,,,,,More than half,Many,Less than half,Most,All,Few,None,Some,Half,0.459833818,-0.33157896,1,0,0,QQQ3,,,,,,,,English,2020-07-02_11h05.34.905,Experiment_English,3.2.4,Win32,60,,,1,0,340,5,1,339,ratio12_2_6_9.png,,,,,,,,,,,,
,,,,,,,,,,,,None,Few,Half,Less than half,More than half,Most,All,Some,Many,-0.490858717,0.282271448,1,0,0,QQQ7,,,,,,,,English,2020-07-02_11h05.34.905,Experiment_English,3.2.4,Win32,60,,,1,0,340,52,1,339,ratioX0_13_13_10.png,,,,,,,,,,,,
,,,,,,,,,,,,More than half,Some,Most,Few,Less than half,Half,None,All,Many,0.074238244,-0.009141282,1,0,0,QQQ5,,,,,,,,English,2020-07-02_11h05.34.905,Experiment_English,3.2.4,Win32,60,,,1,0,340,126,1,339,ratio15_2_12_1.png,,,,,,,,,,,,
,,,,,,,,,,,,Many,Less than half,Few,Some,All,Half,Most,None,More than half,0.514127583,0.010803317,1,0,0,QQQ2,,,,,,,,English,2020-07-02_11h05.34.905,Experiment_English,3.2.4,Win32,60,,,1,0,340,98,1,339,ratio13_5_20_3.png,,,,,,,,,,,,
,,,,,,,,,,,,Some,All,Less than half,Few,None,More than half,Many,Most,Half,0.437673153,-0.044598346,1,0,0,QQQ2,,,,,,,,English,2020-07-02_11h05.34.905,Experiment_English,3.2.4,Win32,60,,,1,0,340,42,1,339,ratioX0_5_5_5.png,,,,,,,,,,,,
,,,,,,,,,,,,Half,More than half,Few,Many,None,Some,All,Less than half,Most,-0.563988878,-0.008033282,1,0,0,QQQ8,,,,,,,,English,2020-07-02_11h05.34.905,Experiment_English,3.2.4,Win32,60,,,1,0,340,291,1,339,ratio43_8_14_5.png,,,,,,,,,,,,
,,,,,,,,,,,,More than half,Some,Less than half,Most,Half,Many,Few,None,All,-0.489750684,0.007479217,1,0,0,QQQ8,,,,,,,,English,2020-07-02_11h05.34.905,Experiment_English,3.2.4,Win32,60,,,1,0,340,67,1,339,ratio0Y_0_10_10.png,,,,,,,,,,,,
,,,,,,,,,,,,Most,None,Few,Less than half,All,Some,More than half,Many,Half,0.534072046,0.311080313,1,0,0,QQQ1,,,,,,,,English,2020-07-02_11h05.34.905,Experiment_English,3.2.4,Win32,60,,,1,0,340,334,1,339,ratio91_18_20_9.png,,,,,,,,,,,,
,,,,,,,,,,,,Some,More than half,Less than half,Many,All,Few,Half,None,Most,0.021052648,-0.265096964,1,0,0,QQQ6,,,,,,,,English,2020-07-02_11h05.34.905,Experiment_English,3.2.4,Win32,60,,,1,0,340,129,1,339,ratio15_2_12_9.png,,,,,,,,,,,,
,,,,,,,,,,,,None,Many,All,Most,Few,Less than half,Some,More than half,Half,0.021052648,0.235734017,1,0,0,QQQ4,,,,,,,,English,2020-07-02_11h05.34.905,Experiment_English,3.2.4,Win32,60,,,1,0,340,234,1,339,ratio32_9_15_10.png,,,,,,,,,,,,
,,,,,,,,,,,,Most,Many,None,Less than half,Half,More than half,Some,All,Few,-0.469806085,0.243490284,1,0,0,QQQ7,,,,,,,,English,2020-07-02_11h05.34.905,Experiment_English,3.2.4,Win32,60,,,1,0,340,13,1,339,ratio12_5_15_3.png,,,,,,,,,,,,
,,,,,,,,,,,,Half,Most,Many,Few,More than half,Less than half,All,Some,None,0.008864282,0.007479217,1,0,0,QQQ5,,,,,,,,English,2020-07-02_11h05.34.905,Experiment_English,3.2.4,Win32,60,,,1,0,340,239,1,339,ratio32_12_20_10.png,,,,,,,,,,,,
,,,,,,,,,,,,All,Few,More than half,Less than half,None,Many,Half,Some,Most,-0.022160649,0.259002766,1,0,0,QQQ4,,,,,,,,English,2020-07-02_11h05.34.905,Experiment_English,3.2.4,Win32,60,,,1,0,340,4,1,339,ratio12_2_6_5.png,,,,,,,,,,,,
,,,,,,,,,,,,More than half,All,Less than half,Many,Half,None,Few,Some,Most,-0.439889187,0.286703598,1,0,0,QQQ7,,,,,,,,English,2020-07-02_11h05.34.905,Experiment_English,3.2.4,Win32,60,,,1,0,340,146,1,339,ratio19_1_10_17.png,,,,,,,,,,,,
,,,,,,,,,,,,None,Less than half,More than half,Some,Most,Half,All,Few,Many,0.519667749,-0.054570645,1,0,0,QQQ2,,,,,,,,English,2020-07-02_11h05.34.905,Experiment_English,3.2.4,Win32,60,,,1,0,340,130,1,339,ratio15_2_12_12.png,,,,,,,,,,,,
,,,,,,,,,,,,None,Few,Less than half,Half,Some,Most,All,More than half,Many,-0.469806085,0.311080313,1,0,0,QQQ7,,,,,,,,English,2020-07-02_11h05.34.905,Experiment_English,3.2.4,Win32,60,,,1,0,340,48,1,339,ratioX0_10_10_1.png,,,,,,,,,,,,
,,,,,,,,,,,,Half,All,Some,None,Less than half,Most,Many,Few,More than half,-0.570637112,-0.350415525,1,0,0,QQQ9,,,,,,,,English,2020-07-02_11h05.34.905,Experiment_English,3.2.4,Win32,60,,,1,0,340,206,1,339,ratio31_6_8_6.png,,,,,,,,,,,,
,,,,,,,,,,,,Few,Less than half,All,Many,More than half,Half,Some,Most,None,0.475346419,-0.002493116,1,0,0,QQQ2,,,,,,,,English,2020-07-02_11h05.34.905,Experiment_English,3.2.4,Win32,60,,,1,0,340,242,1,339,ratio34_3_7_6.png,,,,,,,,,,,,
,,,,,,,,,,,,Less than half,Half,Many,Most,Few,None,Some,More than half,All,0.444321352,0.311080313,1,0,0,QQQ1,,,,,,,,English,2020-07-02_11h05.34.905,Experiment_English,3.2.4,Win32,60,,,1,0,340,248,1,339,ratio34_3_7_19.png,,,,,,,,,,,,
,,,,,,,,,,,,Some,Most,Less than half,All,Many,None,More than half,Half,Few,0.489750716,-0.32160666,1,0,0,QQQ3,,,,,,,,English,2020-07-02_11h05.34.905,Experiment_English,3.2.4,Win32,60,,,1,0,340,35,1,339,ratio11_8_16_10.png,0.418836587,-0.459002784,1,0,0,continue_button_pause,1,0,1,0,1,0
,,,,,,,,,,,,,,,,,,,,,,,,,,,,,,,,,,English,2020-07-02_11h05.34.905,Experiment_English,3.2.4,Win32,60,,,1,0,340,35,1,339,ratio11_8_16_10.png,,,,,,,,,,,,
,,,,,,,,,,,,All,Few,Less than half,Most,Many,Half,Some,More than half,None,0.577285343,-0.302770163,1,0,0,QQQ3,,,,,,,,English,2020-07-02_11h05.34.905,Experiment_English,3.2.4,Win32,60,,,1,0,340,19,1,339,ratio12_6_18_9.png,,,,,,,,,,,,
,,,,,,,,,,,,Many,None,More than half,Less than half,All,Few,Most,Some,Half,0.036565113,0.027423816,1,0,0,QQQ5,,,,,,,,English,2020-07-02_11h05.34.905,Experiment_English,3.2.4,Win32,60,,,1,0,340,53,1,339,ratioX0_14_14_8.png,,,,,,,,,,,,
,,,,,,,,,,,,None,Few,Less than half,More than half,Many,Most,Some,All,Half,-0.050969514,0.243490284,1,0,0,QQQ4,,,,,,,,English,2020-07-02_11h05.34.905,Experiment_English,3.2.4,Win32,60,,,1,0,340,173,1,339,ratio21_8_12_9.png,,,,,,,,,,,,
,,,,,,,,,,,,More than half,Some,Less than half,Half,Many,Most,None,All,Few,0.386703758,0.267867033,1,0,0,QQQ1,,,,,,,,English,2020-07-02_11h05.34.905,Experiment_English,3.2.4,Win32,60,,,1,0,340,217,1,339,ratio31_15_20_5.png,,,,,,,,,,,,
,,,,,,,,,,,,All,None,More than half,Most,Many,Some,Less than half,Half,Few,-0.01883655,0.259002766,1,0,0,QQQ4,,,,,,,,English,2020-07-02_11h05.34.905,Experiment_English,3.2.4,Win32,60,,,1,0,340,322,1,339,ratio91_9_10_3.png,,,,,,,,,,,,
,,,,,,,,,,,,None,Most,Few,Some,Less than half,Half,More than half,Many,All,-0.044321314,0.006371184,1,0,0,QQQ5,,,,,,,,English,2020-07-02_11h05.34.905,Experiment_English,3.2.4,Win32,60,,,1,0,340,22,1,339,ratio11_3_6_6.png,,,,,,,,,,,,
,,,,,,,,,,,,Few,More than half,Many,None,All,Half,Less than half,Most,Some,0.567313044,0.286703598,1,0,0,QQQ1,,,,,,,,English,2020-07-02_11h05.34.905,Experiment_English,3.2.4,Win32,60,,,1,0,340,147,1,339,ratio19_1_10_18.png,,,,,,,,,,,,
,,,,,,,,,,,,None,Less than half,Few,Most,Half,All,More than half,Some,Many,-0.50193905,-0.338227159,1,0,0,QQQ9,,,,,,,,English,2020-07-02_11h05.34.905,Experiment_English,3.2.4,Win32,60,,,1,0,340,210,1,339,ratio31_9_12_9.png,,,,,,,,,,,,
,,,,,,,,,,,,Half,Few,Less than half,Many,Some,Most,All,None,More than half,0.036565113,0.309972296,1,0,0,QQQ4,,,,,,,,English,2020-07-02_11h05.34.905,Experiment_English,3.2.4,Win32,60,,,1,0,340,307,1,339,ratio51_10_12_1.png,,,,,,,,,,,,
,,,,,,,,,,,,None,Few,Most,Many,Half,Some,More than half,Less than half,All,0.554016645,-0.309418295,1,0,0,QQQ3,,,,,,,,English,2020-07-02_11h05.34.905,Experiment_English,3.2.4,Win32,60,,,1,0,340,277,1,339,ratio41_16_20_8.png,,,,,,,,,,,,
,,,,,,,,,,,,None,Some,Few,More than half,Less than half,Many,Half,All,Most,-0.509695283,-0.288365663,1,0,0,QQQ9,,,,,,,,English,2020-07-02_11h05.34.905,Experiment_English,3.2.4,Win32,60,,,1,0,340,34,1,339,ratio11_8_16_8.png,,,,,,,,,,,,
,,,,,,,,,,,,Many,None,Most,Some,All,Half,Less than half,More than half,Few,0.479778416,-0.32160666,1,0,0,QQQ3,,,,,,,,English,2020-07-02_11h05.34.905,Experiment_English,3.2.4,Win32,60,,,1,0,340,215,1,339,ratio31_12_16_8.png,,,,,,,,,,,,
,,,,,,,,,,,,Many,Most,All,None,Few,Half,More than half,Less than half,Some,0.488642682,-0.260664831,1,0,0,QQQ3,,,,,,,,English,2020-07-02_11h05.34.905,Experiment_English,3.2.4,Win32,60,,,1,0,340,47,1,339,ratioX0_9_9_4.png,,,,,,,,,,,,
,,,,,,,,,,,,None,Most,Many,Half,All,Some,Less than half,More than half,Few,-0.437673121,0.273407199,1,0,0,QQQ7,,,,,,,,English,2020-07-02_11h05.34.905,Experiment_English,3.2.4,Win32,60,,,1,0,340,258,1,339,ratio34_6_14_14.png,,,,,,,,,,,,
,,,,,,,,,,,,More than half,Few,Some,Less than half,Many,All,Half,None,Most,-0.006648184,0.298891964,1,0,0,QQQ4,,,,,,,,English,2020-07-02_11h05.34.905,Experiment_English,3.2.4,Win32,60,,,1,0,340,1,1,339,ratio12_1_3_7.png,,,,,,,,,,,,
,,,,,,,,,,,,All,Less than half,Many,Some,Half,None,More than half,Few,Most,0.425484922,0.005263151,1,0,0,QQQ2,,,,,,,,English,2020-07-02_11h05.34.905,Experiment_English,3.2.4,Win32,60,,,1,0,340,10,1,339,ratio12_4_12_4.png,,,,,,,,,,,,
,,,,,,,,,,,,More than half,All,Half,Some,None,Less than half,Many,Most,Few,0.009972315,-0.310526328,1,0,0,QQQ6,,,,,,,,English,2020-07-02_11h05.34.905,Experiment_English,3.2.4,Win32,60,,,1,0,340,14,1,339,ratio12_5_15_4.png,,,,,,,,,,,,
,,,,,,,,,,,,More than half,Some,Half,Most,Many,None,Less than half,Few,All,-0.540720214,0.324376729,1,0,0,QQQ7,,,,,,,,English,2020-07-02_11h05.34.905,Experiment_English,3.2.4,Win32,60,,,1,0,340,198,1,339,ratio23_8_20_7.png,,,,,,,,,,,,
,,,,,,,,,,,,Most,Some,Few,More than half,Many,None,Half,Less than half,All,0.066482011,0.297783931,1,0,0,QQQ4,,,,,,,,English,2020-07-02_11h05.34.905,Experiment_English,3.2.4,Win32,60,,,1,0,340,261,1,339,ratio41_4_5_3.png,,,,,,,,,,,,
,,,,,,,,,,,,Few,More than half,None,Most,Many,Half,All,Less than half,Some,-0.514127382,0.297783931,1,0,0,QQQ7,,,,,,,,English,2020-07-02_11h05.34.905,Experiment_English,3.2.4,Win32,60,,,1,0,340,50,1,339,ratioX0_12_12_3.png,,,,,,,,,,,,
,,,,,,,,,,,,Few,None,More than half,Most,Less than half,All,Many,Some,Half,0.066482011,-0.022437681,1,0,0,QQQ5,,,,,,,,English,2020-07-02_11h05.34.905,Experiment_English,3.2.4,Win32,60,,,1,0,340,108,1,339,ratio14_2_10_6.png,,,,,,,,,,,,
,,,,,,,,,,,,Most,Half,Some,None,Few,Less than half,Many,More than half,All,0.00221615,-0.360387824,1,0,0,QQQ6,,,,,,,,English,2020-07-02_11h05.34.905,Experiment_English,3.2.4,Win32,60,,,1,0,340,100,1,339,ratio14_1_5_3.png,,,,,,,,,,,,
,,,,,,,,,,,,Many,Less than half,None,All,Few,Most,Some,More than half,Half,0.454293651,0.290027698,1,0,0,QQQ1,,,,,,,,English,2020-07-02_11h05.34.905,Experiment_English,3.2.4,Win32,60,,,1,0,340,320,1,339,ratio91_9_10_1.png,,,,,,,,,,,,
,,,,,,,,,,,,Half,More than half,Few,Less than half,None,Some,All,Many,Most,0.455401685,-0.304986162,1,0,0,QQQ3,,,,,,,,English,2020-07-02_11h05.34.905,Experiment_English,3.2.4,Win32,60,,,1,0,340,124,1,339,ratio15_1_6_16.png,,,,,,,,,,,,
,,,,,,,,,,,,Most,None,Less than half,Few,Many,Half,More than half,Some,All,0.059833812,-0.005817182,1,0,0,QQQ5,,,,,,,,English,2020-07-02_11h05.34.905,Experiment_English,3.2.4,Win32,60,,,1,0,340,278,1,339,ratio41_16_20_9.png,,,,,,,,,,,,
,,,,,,,,,,,,Most,Less than half,Half,None,Many,Some,Few,All,More than half,0.541828414,0.270083099,1,0,0,QQQ1,,,,,,,,English,2020-07-02_11h05.34.905,Experiment_English,3.2.4,Win32,60,,,1,0,340,225,1,339,ratio32_6_10_4.png,,,,,,,,,,,,
,,,,,,,,,,,,More than half,Less than half,All,Most,Half,None,Few,Many,Some,-0.439889187,-0.023545714,1,0,0,QQQ8,,,,,,,,English,2020-07-02_11h05.34.905,Experiment_English,3.2.4,Win32,60,,,1,0,340,214,1,339,ratio31_12_16_5.png,,,,,,,,,,,,
,,,,,,,,,,,,Less than half,Most,Few,Many,More than half,None,Half,All,Some,0.484210549,-0.298337962,1,0,0,QQQ3,,,,,,,,English,2020-07-02_11h05.34.905,Experiment_English,3.2.4,Win32,60,,,1,0,340,132,1,339,ratio15_2_12_16.png,,,,,,,,,,,,
,,,,,,,,,,,,Many,More than half,None,Few,Less than half,Some,Half,All,Most,0.455401685,0.013019383,1,0,0,QQQ2,,,,,,,,English,2020-07-02_11h05.34.905,Experiment_English,3.2.4,Win32,60,,,1,0,340,297,1,339,ratio43_8_14_13.png,,,,,,,,,,,,
,,,,,,,,,,,,Few,Some,More than half,Many,Most,None,All,Half,Less than half,-0.013296383,0.323268695,1,0,0,QQQ4,,,,,,,,English,2020-07-02_11h05.34.905,Experiment_English,3.2.4,Win32,60,,,1,0,340,200,1,339,ratio31_3_4_4.png,,,,,,,,,,,,
,,,,,,,,,,,,None,All,Less than half,More than half,Half,Many,Some,Most,Few,0.487534649,0.329916895,1,0,0,QQQ1,,,,,,,,English,2020-07-02_11h05.34.905,Experiment_English,3.2.4,Win32,60,,,1,0,340,73,1,339,ratio0Y_0_14_7.png,,,,,,,,,,,,
,,,,,,,,,,,,Some,Few,Most,Many,Less than half,Half,None,More than half,All,0.487534649,-0.280609498,1,0,0,QQQ3,,,,,,,,English,2020-07-02_11h05.34.905,Experiment_English,3.2.4,Win32,60,,,1,0,340,339,1,339,ratio91_18_20_19.png,,,,,,,,,,,,
,,,,,,,,,,,,All,Most,Many,None,Few,Some,Less than half,Half,More than half,-0.458725753,-0.318282561,1,0,0,QQQ9,,,,,,,,English,2020-07-02_11h05.34.905,Experiment_English,3.2.4,Win32,60,,,1,0,340,296,1,339,ratio43_8_14_12.png,,,,,,,,,,,,
,,,,,,,,,,,,Many,Few,More than half,None,All,Half,Less than half,Some,Most,0.491966917,-0.298337962,1,0,0,QQQ3,,,,,,,,English,2020-07-02_11h05.34.905,Experiment_English,3.2.4,Win32,60,,,1,0,340,28,1,339,ratio11_5_10_9.png,0.422160687,-0.446814486,1,0,0,continue_button_pause,1,0,1,0,1,0
,,,,,,,,,,,,,,,,,,,,,,,,,,,,,,,,,,English,2020-07-02_11h05.34.905,Experiment_English,3.2.4,Win32,60,,,1,0,340,28,1,339,ratio11_5_10_9.png,,,,,,,,,,,,
,,,,,,,,,,,,Half,Few,More than half,Most,Less than half,Some,All,Many,None,0.055401679,-0.034626047,1,0,0,QQQ5,,,,,,,,English,2020-07-02_11h05.34.905,Experiment_English,3.2.4,Win32,60,,,1,0,340,92,1,339,ratio13_4_16_3.png,,,,,,,,,,,,
,,,,,,,,,,,,Half,All,Few,Most,Less than half,Many,More than half,None,Some,0.621606673,0.028531849,1,0,0,QQQ2,,,,,,,,English,2020-07-02_11h05.34.905,Experiment_English,3.2.4,Win32,60,,,1,0,340,51,1,339,ratioX0_12_12_9.png,,,,,,,,,,,,
,,,,,,,,,,,,More than half,Less than half,Some,Many,All,None,Few,Most,Half,-0.047645347,0.014127383,1,0,0,QQQ5,,,,,,,,English,2020-07-02_11h05.34.905,Experiment_English,3.2.4,Win32,60,,,1,0,340,203,1,339,ratio31_3_4_9.png,,,,,,,,,,,,
,,,,,,,,,,,,Less than half,Many,Some,Few,More than half,All,Half,Most,None,-0.036565014,0.010803317,1,0,0,QQQ5,,,,,,,,English,2020-07-02_11h05.34.905,Experiment_English,3.2.4,Win32,60,,,1,0,340,233,1,339,ratio32_9_15_9.png,,,,,,,,,,,,
,,,,,,,,,,,,All,Less than half,More than half,Half,Some,Few,Many,Most,None,-0.503047049,-0.322714694,1,0,0,QQQ9,,,,,,,,English,2020-07-02_11h05.34.905,Experiment_English,3.2.4,Win32,60,,,1,0,340,63,1,339,ratio0Y_0_6_8.png,,,,,,,,,,,,
,,,,,,,,,,,,None,Less than half,Many,Some,Half,Few,Most,More than half,All,0.514127583,-0.006925215,1,0,0,QQQ2,,,,,,,,English,2020-07-02_11h05.34.905,Experiment_English,3.2.4,Win32,60,,,1,0,340,254,1,339,ratio34_6_14_9.png,,,,,,,,,,,,
,,,,,,,,,,,,None,All,Most,More than half,Many,Some,Less than half,Few,Half,-0.511911349,0.024099716,1,0,0,QQQ8,,,,,,,,English,2020-07-02_11h05.34.905,Experiment_English,3.2.4,Win32,60,,,1,0,340,125,1,339,ratio15_1_6_19.png,,,,,,,,,,,,
,,,,,,,,,,,,Half,Most,All,More than half,None,Few,Many,Some,Less than half,0.536288248,-0.008033282,1,0,0,QQQ2,,,,,,,,English,2020-07-02_11h05.34.905,Experiment_English,3.2.4,Win32,60,,,1,0,340,205,1,339,ratio31_6_8_2.png,,,,,,,,,,,,
,,,,,,,,,,,,None,All,Half,Less than half,Most,More than half,Some,Many,Few,0.018836649,0.277839315,1,0,0,QQQ4,,,,,,,,English,2020-07-02_11h05.34.905,Experiment_English,3.2.4,Win32,60,,,1,0,340,18,1,339,ratio12_6_18_7.png,,,,,,,,,,,,
,,,,,,,,,,,,All,Half,Most,None,Many,Few,Less than half,Some,More than half,-0.01883655,-0.326038793,1,0,0,QQQ6,,,,,,,,English,2020-07-02_11h05.34.905,Experiment_English,3.2.4,Win32,60,,,1,0,340,81,1,339,ratio13_1_4_5.png,,,,,,,,,,,,
,,,,,,,,,,,,All,Less than half,Many,Some,Few,More than half,None,Half,Most,-0.486426584,0.323268695,1,0,0,QQQ7,,,,,,,,English,2020-07-02_11h05.34.905,Experiment_English,3.2.4,Win32,60,,,1,0,340,60,1,339,ratio0Y_0_3_5.png,,,,,,,,,,,,
,,,,,,,,,,,,Half,More than half,All,Some,None,Most,Many,Few,Less than half,0.52853188,-0.306094195,1,0,0,QQQ3,,,,,,,,English,2020-07-02_11h05.34.905,Experiment_English,3.2.4,Win32,60,,,1,0,340,40,1,339,ratioX0_3_3_5.png,,,,,,,,,,,,
,,,,,,,,,,,,All,More than half,Most,Few,Half,Some,Many,None,Less than half,0.454293651,-0.027977847,1,0,0,QQQ2,,,,,,,,English,2020-07-02_11h05.34.905,Experiment_English,3.2.4,Win32,60,,,1,0,340,230,1,339,ratio32_9_15_1.png,,,,,,,,,,,,
,,,,,,,,,,,,Some,Half,Few,More than half,Many,All,Less than half,None,Most,0.03878118,0.262326866,1,0,0,QQQ4,,,,,,,,English,2020-07-02_11h05.34.905,Experiment_English,3.2.4,Win32,60,,,1,0,340,33,1,339,ratio11_7_14_8.png,,,,,,,,,,,,
,,,,,,,,,,,,Most,More than half,Few,Some,Less than half,Half,Many,All,None,0.00221615,-0.000277016,1,0,0,QQQ5,,,,,,,,English,2020-07-02_11h05.34.905,Experiment_English,3.2.4,Win32,60,,,1,0,340,185,1,339,ratio23_4_10_1.png,,,,,,,,,,,,
,,,,,,,,,,,,Some,Many,Half,All,Few,Less than half,More than half,Most,None,-0.531855948,0.006371184,1,0,0,QQQ8,,,,,,,,English,2020-07-02_11h05.34.905,Experiment_English,3.2.4,Win32,60,,,1,0,340,335,1,339,ratio91_18_20_11.png,,,,,,,,,,,,
,,,,,,,,,,,,All,Many,Few,More than half,Half,None,Most,Some,Less than half,0.409972321,-0.261772865,1,0,0,QQQ3,,,,,,,,English,2020-07-02_11h05.34.905,Experiment_English,3.2.4,Win32,60,,,1,0,340,139,1,339,ratio15_3_18_20.png,,,,,,,,,,,,
,,,,,,,,,,,,Some,Half,None,Less than half,Many,Most,All,Few,More than half,0.005540182,0.30443213,1,0,0,QQQ4,,,,,,,,English,2020-07-02_11h05.34.905,Experiment_English,3.2.4,Win32,60,,,1,0,340,197,1,339,ratio23_8_20_6.png,,,,,,,,,,,,
,,,,,,,,,,,,Some,Few,Many,Most,Less than half,More than half,None,All,Half,-0.508587216,-0.031301947,1,0,0,QQQ8,,,,,,,,English,2020-07-02_11h05.34.905,Experiment_English,3.2.4,Win32,60,,,1,0,340,55,1,339,ratioX0_16_16_3.png,,,,,,,,,,,,
,,,,,,,,,,,,Some,All,Few,Less than half,Many,Most,More than half,Half,None,0.499723015,-0.003601116,1,0,0,QQQ2,,,,,,,,English,2020-07-02_11h05.34.905,Experiment_English,3.2.4,Win32,60,,,1,0,340,59,1,339,ratioX0_20_20_9.png,,,,,,,,,,,,
,,,,,,,,,,,,None,Most,Few,Half,Many,All,Less than half,More than half,Some,0.450969552,0.004155117,1,0,0,QQQ2,,,,,,,,English,2020-07-02_11h05.34.905,Experiment_English,3.2.4,Win32,60,,,1,0,340,262,1,339,ratio41_4_5_4.png,,,,,,,,,,,,
,,,,,,,,,,,,All,Many,None,Less than half,Most,Some,Half,More than half,Few,-0.449861487,-0.290581729,1,0,0,QQQ9,,,,,,,,English,2020-07-02_11h05.34.905,Experiment_English,3.2.4,Win32,60,,,1,0,340,159,1,339,ratio19_2_20_20.png,,,,,,,,,,,,
,,,,,,,,,,,,Less than half,None,Half,All,Many,More than half,Few,Some,Most,0.006648215,-0.308310329,1,0,0,QQQ6,,,,,,,,English,2020-07-02_11h05.34.905,Experiment_English,3.2.4,Win32,60,,,1,0,340,283,1,339,ratio43_4_7_8.png,,,,,,,,,,,,
,,,,,,,,,,,,Half,Many,None,Less than half,More than half,All,Few,Most,Some,-0.432132955,0.260110783,1,0,0,QQQ7,,,,,,,,English,2020-07-02_11h05.34.905,Experiment_English,3.2.4,Win32,60,,,1,0,340,150,1,339,ratio19_2_20_1.png,,,,,,,,,,,,
,,,,,,,,,,,,More than half,Many,Half,Few,None,All,Most,Some,Less than half,-0.528531848,0.292243764,1,0,0,QQQ7,,,,,,,,English,2020-07-02_11h05.34.905,Experiment_English,3.2.4,Win32,60,,,1,0,340,301,1,339,ratio51_5_6_4.png,,,,,,,,,,,,
,,,,,,,,,,,,All,Few,Most,Less than half,Some,None,More than half,Many,Half,0.456509718,-0.304986162,1,0,0,QQQ3,,,,,,,,English,2020-07-02_11h05.34.905,Experiment_English,3.2.4,Win32,60,,,1,0,340,272,1,339,ratio41_12_15_7.png,,,,,,,,,,,,
,,,,,,,,,,,,Many,Few,None,Less than half,Some,All,More than half,Half,Most,-0.518559549,-0.308310329,1,0,0,QQQ9,,,,,,,,English,2020-07-02_11h05.34.905,Experiment_English,3.2.4,Win32,60,,,1,0,340,338,1,339,ratio91_18_20_18.png,,,,,,,,,,,,
,,,,,,,,,,,,Less than half,Few,Many,None,Half,All,Most,More than half,Some,-0.582825478,-0.022437681,1,0,0,QQQ8,,,,,,,,English,2020-07-02_11h05.34.905,Experiment_English,3.2.4,Win32,60,,,1,0,340,31,1,339,ratio11_6_12_9.png,,,,,,,,,,,,
,,,,,,,,,,,,Many,Few,All,None,Most,More than half,Half,Less than half,Some,0.519667749,-0.340443226,1,0,0,QQQ3,,,,,,,,English,2020-07-02_11h05.34.905,Experiment_English,3.2.4,Win32,60,,,1,0,340,54,1,339,ratioX0_15_15_5.png,,,,,,,,,,,,
,,,,,,,,,,,,Less than half,Few,More than half,Many,Half,None,All,Some,Most,0.008864282,0.252354516,1,0,0,QQQ4,,,,,,,,English,2020-07-02_11h05.34.905,Experiment_English,3.2.4,Win32,60,,,1,0,340,212,1,339,ratio31_12_16_1.png,,,,,,,,,,,,
,,,,,,,,,,,,Half,Few,Less than half,None,Many,Most,All,More than half,Some,0.493074815,-0.324930828,1,0,0,QQQ3,,,,,,,,English,2020-07-02_11h05.34.905,Experiment_English,3.2.4,Win32,60,,,1,0,340,16,1,339,ratio12_5_15_6.png,,,,,,,,,,,,
,,,,,,,,,,,,All,Few,More than half,Less than half,Most,Half,None,Many,Some,0.485318583,-0.29168983,1,0,0,QQQ3,,,,,,,,English,2020-07-02_11h05.34.905,Experiment_English,3.2.4,Win32,60,,,1,0,340,221,1,339,ratio32_3_5_3.png,,,,,,,,,,,,
,,,,,,,,,,,,None,More than half,Few,Many,Most,All,Half,Less than half,Some,0.440997252,-0.064543046,1,0,0,QQQ2,,,,,,,,English,2020-07-02_11h05.34.905,Experiment_English,3.2.4,Win32,60,,,1,0,340,164,1,339,ratio21_4_6_6.png,,,,,,,,,,,,
,,,,,,,,,,,,Less than half,Most,Some,All,None,Many,Half,Few,More than half,-0.500831017,0.014127383,1,0,0,QQQ8,,,,,,,,English,2020-07-02_11h05.34.905,Experiment_English,3.2.4,Win32,60,,,1,0,340,156,1,339,ratio19_2_20_14.png,0.496398915,-0.443490319,1,0,0,continue_button_pause,1,0,1,0,1,0
,,,,,,,,,,,,,,,,,,,,,,,,,,,,,,,,,,English,2020-07-02_11h05.34.905,Experiment_English,3.2.4,Win32,60,,,1,0,340,156,1,339,ratio19_2_20_14.png,,,,,,,,,,,,
,,,,,,,,,,,,Few,Many,All,Some,Less than half,None,More than half,Most,Half,0.517451547,0.29113568,1,0,0,QQQ1,,,,,,,,English,2020-07-02_11h05.34.905,Experiment_English,3.2.4,Win32,60,,,1,0,340,123,1,339,ratio15_1_6_12.png,,,,,,,,,,,,
,,,,,,,,,,,,Few,Some,Less than half,All,More than half,Many,None,Most,Half,0.416620521,-0.209695301,1,0,0,QQQ3,,,,,,,,English,2020-07-02_11h05.34.905,Experiment_English,3.2.4,Win32,60,,,1,0,340,11,1,339,ratio12_4_12_7.png,,,,,,,,,,,,
,,,,,,,,,,,,All,Most,More than half,Many,Some,None,Half,Few,Less than half,0.422160687,-0.227423834,1,0,0,QQQ3,,,,,,,,English,2020-07-02_11h05.34.905,Experiment_English,3.2.4,Win32,60,,,1,0,340,282,1,339,ratio43_4_7_7.png,,,,,,,,,,,,
,,,,,,,,,,,,Less than half,All,None,Some,Few,Most,More than half,Half,Many,-0.507479216,0.311080313,1,0,0,QQQ7,,,,,,,,English,2020-07-02_11h05.34.905,Experiment_English,3.2.4,Win32,60,,,1,0,340,167,1,339,ratio21_6_9_2.png,,,,,,,,,,,,
,,,,,,,,,,,,All,Some,More than half,None,Less than half,Half,Most,Many,Few,0.401108055,-0.28393353,1,0,0,QQQ3,,,,,,,,English,2020-07-02_11h05.34.905,Experiment_English,3.2.4,Win32,60,,,1,0,340,176,1,339,ratio21_10_15_3.png,,,,,,,,,,,,
,,,,,,,,,,,,None,Some,All,Half,Few,More than half,Many,Most,Less than half,-0.412188356,0.028531849,1,0,0,QQQ8,,,,,,,,English,2020-07-02_11h05.34.905,Experiment_English,3.2.4,Win32,60,,,1,0,340,336,1,339,ratio91_18_20_12.png,,,,,,,,,,,,
,,,,,,,,,,,,Most,Less than half,None,All,More than half,Few,Half,Many,Some,0.454293651,-0.024653781,1,0,0,QQQ2,,,,,,,,English,2020-07-02_11h05.34.905,Experiment_English,3.2.4,Win32,60,,,1,0,340,181,1,339,ratio23_2_5_6.png,,,,,,,,,,,,
,,,,,,,,,,,,Most,Few,More than half,Some,Half,Many,Less than half,None,All,0.491966917,-0.363711992,1,0,0,QQQ3,,,,,,,,English,2020-07-02_11h05.34.905,Experiment_English,3.2.4,Win32,60,,,1,0,340,270,1,339,ratio41_12_15_3.png,,,,,,,,,,,,
,,,,,,,,,,,,Many,Some,More than half,Half,Few,Less than half,All,None,Most,0.014404448,-0.288365663,1,0,0,QQQ6,,,,,,,,English,2020-07-02_11h05.34.905,Experiment_English,3.2.4,Win32,60,,,1,0,340,255,1,339,ratio34_6_14_10.png,,,,,,,,,,,,
,,,,,,,,,,,,Half,Some,None,All,Few,More than half,Less than half,Most,Many,-0.026592782,-0.004709149,1,0,0,QQQ5,,,,,,,,English,2020-07-02_11h05.34.905,Experiment_English,3.2.4,Win32,60,,,1,0,340,114,1,339,ratio14_3_15_10.png,,,,,,,,,,,,
,,,,,,,,,,,,Some,Half,Few,Many,All,None,Less than half,More than half,Most,-0.479778385,-0.293905829,1,0,0,QQQ9,,,,,,,,English,2020-07-02_11h05.34.905,Experiment_English,3.2.4,Win32,60,,,1,0,340,171,1,339,ratio21_8_12_4.png,,,,,,,,,,,,
,,,,,,,,,,,,Half,None,Less than half,Most,Few,Some,Many,All,More than half,0.021052648,0.280055348,1,0,0,QQQ4,,,,,,,,English,2020-07-02_11h05.34.905,Experiment_English,3.2.4,Win32,60,,,1,0,340,316,1,339,ratio51_15_18_11.png,,,,,,,,,,,,
,,,,,,,,,,,,None,More than half,Most,Few,Many,Half,All,Some,Less than half,-0.49861495,-0.300554029,1,0,0,QQQ9,,,,,,,,English,2020-07-02_11h05.34.905,Experiment_English,3.2.4,Win32,60,,,1,0,340,37,1,339,ratio11_9_18_8.png,,,,,,,,,,,,
,,,,,,,,,,,,All,None,Half,Less than half,More than half,Most,Few,Some,Many,-0.048753447,0.000831017,1,0,0,QQQ5,,,,,,,,English,2020-07-02_11h05.34.905,Experiment_English,3.2.4,Win32,60,,,1,0,340,273,1,339,ratio41_12_15_8.png,,,,,,,,,,,,
,,,,,,,,,,,,None,Less than half,Most,Half,Many,All,Some,More than half,Few,0.618282574,-0.021329648,1,0,0,QQQ2,,,,,,,,English,2020-07-02_11h05.34.905,Experiment_English,3.2.4,Win32,60,,,1,0,340,257,1,339,ratio34_6_14_12.png,,,,,,,,,,,,
,,,,,,,,,,,,Some,Less than half,Most,Few,None,Many,All,Half,More than half,0.025484781,0.308864263,1,0,0,QQQ4,,,,,,,,English,2020-07-02_11h05.34.905,Experiment_English,3.2.4,Win32,60,,,1,0,340,140,1,339,ratio19_1_10_1.png,,,,,,,,,,,,
,,,,,,,,,,,,Many,All,None,Less than half,Half,Few,Most,Some,More than half,-0.521883648,0.322160645,1,0,0,QQQ7,,,,,,,,English,2020-07-02_11h05.34.905,Experiment_English,3.2.4,Win32,60,,,1,0,340,169,1,339,ratio21_6_9_7.png,,,,,,,,,,,,
,,,,,,,,,,,,All,Few,Most,More than half,Less than half,Half,Some,Many,None,0.507479248,0.273407199,1,0,0,QQQ1,,,,,,,,English,2020-07-02_11h05.34.905,Experiment_English,3.2.4,Win32,60,,,1,0,340,20,1,339,ratio11_2_4_3.png,,,,,,,,,,,,
,,,,,,,,,,,,More than half,Half,Few,None,All,Many,Less than half,Most,Some,-0.433240988,0.325484762,1,0,0,QQQ7,,,,,,,,English,2020-07-02_11h05.34.905,Experiment_English,3.2.4,Win32,60,,,1,0,340,247,1,339,ratio34_3_7_12.png,,,,,,,,,,,,
,,,,,,,,,,,,Some,Most,Many,Less than half,All,Half,Few,More than half,None,-0.554016613,0.01855955,1,0,0,QQQ8,,,,,,,,English,2020-07-02_11h05.34.905,Experiment_English,3.2.4,Win32,60,,,1,0,340,279,1,339,ratio41_16_20_10.png,,,,,,,,,,,,
,,,,,,,,,,,,All,None,Few,More than half,Some,Half,Most,Many,Less than half,-0.045429348,0.329916895,1,0,0,QQQ4,,,,,,,,English,2020-07-02_11h05.34.905,Experiment_English,3.2.4,Win32,60,,,1,0,340,209,1,339,ratio31_9_12_6.png,,,,,,,,,,,,
,,,,,,,,,,,,All,None,Half,Most,Few,Some,More than half,Many,Less than half,-0.044321314,0.317728529,1,0,0,QQQ4,,,,,,,,English,2020-07-02_11h05.34.905,Experiment_English,3.2.4,Win32,60,,,1,0,340,319,1,339,ratio51_15_18_20.png,,,,,,,,,,,,
,,,,,,,,,,,,None,Less than half,More than half,Most,Some,Few,Half,Many,All,0.447645587,-0.286149664,1,0,0,QQQ3,,,,,,,,English,2020-07-02_11h05.34.905,Experiment_English,3.2.4,Win32,60,,,1,0,340,294,1,339,ratio43_8_14_9.png,,,,,,,,,,,,
,,,,,,,,,,,,Some,Many,Few,All,More than half,None,Half,Less than half,Most,-0.569529045,-0.03240998,1,0,0,QQQ8,,,,,,,,English,2020-07-02_11h05.34.905,Experiment_English,3.2.4,Win32,60,,,1,0,340,240,1,339,ratio34_3_7_4.png,,,,,,,,,,,,
,,,,,,,,,,,,Many,Half,All,Some,More than half,None,Less than half,Few,Most,0.008864282,-0.034626047,1,0,0,QQQ5,,,,,,,,English,2020-07-02_11h05.34.905,Experiment_English,3.2.4,Win32,60,,,1,0,340,202,1,339,ratio31_3_4_8.png,,,,,,,,,,,,
,,,,,,,,,,,,All,Most,Many,Few,None,Less than half,More than half,Some,Half,-0.039889181,-0.271745164,1,0,0,QQQ6,,,,,,,,English,2020-07-02_11h05.34.905,Experiment_English,3.2.4,Win32,60,,,1,0,340,0,1,339,ratio12_1_3_3.png,,,,,,,,,,,,
,,,,,,,,,,,,Less than half,All,Most,Many,Few,More than half,Half,None,Some,0.495290882,0.266758982,1,0,0,QQQ1,,,,,,,,English,2020-07-02_11h05.34.905,Experiment_English,3.2.4,Win32,60,,,1,0,340,2,1,339,ratio12_1_3_10.png,,,,,,,,,,,,
,,,,,,,,,,,,All,Many,More than half,Less than half,Half,Some,Most,Few,None,0.45872592,-0.072299178,1,0,0,QQQ2,,,,,,,,English,2020-07-02_11h05.34.905,Experiment_English,3.2.4,Win32,60,,,1,0,340,109,1,339,ratio14_2_10_9.png,,,,,,,,,,,,
,,,,,,,,,,,,Some,Half,Many,All,Most,Less than half,More than half,Few,None,0.011080348,0.292243764,1,0,0,QQQ4,,,,,,,,English,2020-07-02_11h05.34.905,Experiment_English,3.2.4,Win32,60,,,1,0,340,46,1,339,ratioX0_9_9_3.png,,,,,,,,,,,,
,,,,,,,,,,,,More than half,Many,Most,All,Few,Some,None,Less than half,Half,0.479778416,0.293351781,1,0,0,QQQ1,,,,,,,,English,2020-07-02_11h05.34.905,Experiment_English,3.2.4,Win32,60,,,1,0,340,298,1,339,ratio43_8_14_14.png,,,,,,,,,,,,
,,,,,,,,,,,,All,Some,More than half,Most,None,Less than half,Half,Many,Few,-0.052077547,-0.254016632,1,0,0,QQQ6,,,,,,,,English,2020-07-02_11h05.34.905,Experiment_English,3.2.4,Win32,60,,,1,0,340,180,1,339,ratio23_2_5_4.png,,,,,,,,,,,,
,,,,,,,,,,,,Few,Most,Half,More than half,Many,All,Less than half,Some,None,-0.007756217,-0.257340732,1,0,0,QQQ6,,,,,,,,English,2020-07-02_11h05.34.905,Experiment_English,3.2.4,Win32,60,,,1,0,340,49,1,339,ratioX0_11_11_2.png,,,,,,,,,,,,
,,,,,,,,,,,,None,Few,Less than half,All,Most,Half,Some,More than half,Many,-0.559556779,0.067313013,1,0,0,QQQ8,,,,,,,,English,2020-07-02_11h05.34.905,Experiment_English,3.2.4,Win32,60,,,1,0,340,36,1,339,ratio11_9_18_1.png,,,,,,,,,,,,
,,,,,,,,,,,,Less than half,None,Some,Most,Half,Many,All,Few,More than half,0.036565113,-0.043490313,1,0,0,QQQ5,,,,,,,,English,2020-07-02_11h05.34.905,Experiment_English,3.2.4,Win32,60,,,1,0,340,29,1,339,ratio11_6_12_1.png,0.436565255,-0.459002784,1,0,0,continue_button_pause,1,0,1,0,1,0
,,,,,,,,,,,,,,,,,,,,,,,,,,,,,,,,,,English,2020-07-02_11h05.34.905,Experiment_English,3.2.4,Win32,60,,,1,0,340,29,1,339,ratio11_6_12_1.png,,,,,,,,,,,,
,,,,,,,,,,,,Few,All,Half,Some,Many,Most,None,Less than half,More than half,-0.004432117,-0.051246546,1,0,0,QQQ5,,,,,,,,English,2020-07-02_11h05.34.905,Experiment_English,3.2.4,Win32,60,,,1,0,340,310,1,339,ratio51_10_12_12.png,,,,,,,,,,,,
,,,,,,,,,,,,Some,None,Half,Less than half,More than half,Few,Most,Many,All,1.5855E-08,-0.052354613,1,0,0,QQQ5,,,,,,,,English,2020-07-02_11h05.34.905,Experiment_English,3.2.4,Win32,60,,,1,0,340,286,1,339,ratio43_4_7_15.png,,,,,,,,,,,,
,,,,,,,,,,,,Many,All,Most,Few,Some,More than half,Less than half,Half,None,0.00221615,-0.052354613,1,0,0,QQQ5,,,,,,,,English,2020-07-02_11h05.34.905,Experiment_English,3.2.4,Win32,60,,,1,0,340,87,1,339,ratio13_2_8_8.png,,,,,,,,,,,,
,,,,,,,,,,,,Most,Half,Many,Few,All,More than half,Some,Less than half,None,0.00221615,-0.052354613,1,0,0,QQQ5,,,,,,,,English,2020-07-02_11h05.34.905,Experiment_English,3.2.4,Win32,60,,,1,0,340,268,1,339,ratio41_8_10_5.png,,,,,,,,,,,,
,,,,,,,,,,,,Most,Few,More than half,Less than half,All,Some,Many,Half,None,0.00221615,-0.052354613,1,0,0,QQQ5,,,,,,,,English,2020-07-02_11h05.34.905,Experiment_English,3.2.4,Win32,60,,,1,0,340,219,1,339,ratio31_15_20_10.png,,,,,,,,,,,,
,,,,,,,,,,,,Few,Some,More than half,Half,Less than half,All,Many,None,Most,0.438781186,-0.303878128,1,0,0,QQQ3,,,,,,,,English,2020-07-02_11h05.34.905,Experiment_English,3.2.4,Win32,60,,,1,0,340,275,1,339,ratio41_16_20_2.png,,,,,,,,,,,,
,,,,,,,,,,,,Most,None,All,Many,More than half,Less than half,Some,Half,Few,-0.490858717,-0.026869814,1,0,0,QQQ8,,,,,,,,English,2020-07-02_11h05.34.905,Experiment_English,3.2.4,Win32,60,,,1,0,340,21,1,339,ratio11_2_4_10.png,,,,,,,,,,,,
,,,,,,,,,,,,More than half,Some,Many,None,Less than half,Most,Few,Half,All,0.026592814,-0.306094195,1,0,0,QQQ6,,,,,,,,English,2020-07-02_11h05.34.905,Experiment_English,3.2.4,Win32,60,,,1,0,340,175,1,339,ratio21_10_15_2.png,,,,,,,,,,,,
,,,,,,,,,,,,Many,None,Most,All,Some,More than half,Half,Less than half,Few,0.025484781,-0.302770163,1,0,0,QQQ6,,,,,,,,English,2020-07-02_11h05.34.905,Experiment_English,3.2.4,Win32,60,,,1,0,340,174,1,339,ratio21_10_15_1.png,,,,,,,,,,,,
,,,,,,,,,,,,Few,Some,Many,Less than half,None,Most,More than half,All,Half,-0.052077547,0.221329619,1,0,0,QQQ4,,,,,,,,English,2020-07-02_11h05.34.905,Experiment_English,3.2.4,Win32,60,,,1,0,340,95,1,339,ratio13_4_16_10.png,,,,,,,,,,,,
,,,,,,,,,,,,Many,Half,Some,All,More than half,None,Few,Less than half,Most,-0.422160655,-0.009141282,1,0,0,QQQ8,,,,,,,,English,2020-07-02_11h05.34.905,Experiment_English,3.2.4,Win32,60,,,1,0,340,9,1,339,ratio12_3_9_5.png,,,,,,,,,,,,
,,,,,,,,,,,,More than half,Some,Many,None,Few,Most,All,Half,Less than half,0.442105421,0.260110783,1,0,0,QQQ1,,,,,,,,English,2020-07-02_11h05.34.905,Experiment_English,3.2.4,Win32,60,,,1,0,340,162,1,339,ratio21_2_3_9.png,,,,,,,,,,,,
,,,,,,,,,,,,None,Some,Many,Most,All,More than half,Few,Less than half,Half,0.035457148,-0.251800565,1,0,0,QQQ6,,,,,,,,English,2020-07-02_11h05.34.905,Experiment_English,3.2.4,Win32,60,,,1,0,340,229,1,339,ratio32_6_10_9.png,,,,,,,,,,,,
,,,,,,,,,,,,Few,Some,Less than half,Most,More than half,Half,None,All,Many,0.013296483,-0.078947377,1,0,0,QQQ5,,,,,,,,English,2020-07-02_11h05.34.905,Experiment_English,3.2.4,Win32,60,,,1,0,340,308,1,339,ratio51_10_12_9.png,,,,,,,,,,,,
,,,,,,,,,,,,More than half,All,None,Half,Less than half,Some,Few,Many,Most,-0.496398884,-0.001385049,1,0,0,QQQ8,,,,,,,,English,2020-07-02_11h05.34.905,Experiment_English,3.2.4,Win32,60,,,1,0,340,332,1,339,ratio91_18_20_4.png,,,,,,,,,,,,
,,,,,,,,,,,,All,Most,Few,Some,More than half,Half,None,Less than half,Many,0.501939082,-0.304986162,1,0,0,QQQ3,,,,,,,,English,2020-07-02_11h05.34.905,Experiment_English,3.2.4,Win32,60,,,1,0,340,120,1,339,ratio15_1_6_1.png,,,,,,,,,,,,
,,,,,,,,,,,,More than half,Most,Half,All,Many,Some,Less than half,None,Few,-0.028808849,-0.030193948,1,0,0,QQQ5,,,,,,,,English,2020-07-02_11h05.34.905,Experiment_English,3.2.4,Win32,60,,,1,0,340,6,1,339,ratio12_3_9_1.png,,,,,,,,,,,,
,,,,,,,,,,,,Half,Some,Many,Less than half,Few,All,None,Most,More than half,-0.01218835,-0.072299178,1,0,0,QQQ5,,,,,,,,English,2020-07-02_11h05.34.905,Experiment_English,3.2.4,Win32,60,,,1,0,340,32,1,339,ratio11_7_14_5.png,,,,,,,,,,,,
,,,,,,,,,,,,None,Half,Less than half,More than half,Most,Some,All,Few,Many,-0.024376716,-0.034626047,1,0,0,QQQ5,,,,,,,,English,2020-07-02_11h05.34.905,Experiment_English,3.2.4,Win32,60,,,1,0,340,154,1,339,ratio19_2_20_11.png,,,,,,,,,,,,
,,,,,,,,,,,,None,Some,Few,All,Many,More than half,Half,Less than half,Most,0.453185753,-0.301662062,0,1,0,QQQ3,,,,,,,,English,2020-07-02_11h05.34.905,Experiment_English,3.2.4,Win32,60,,,1,0,340,121,1,339,ratio15_1_6_4.png,,,,,,,,,,,,
,,,,,,,,,,,,Few,Most,None,Half,Less than half,More than half,Many,Some,All,0.50304725,0.292243764,1,0,0,QQQ1,,,,,,,,English,2020-07-02_11h05.34.905,Experiment_English,3.2.4,Win32,60,,,1,0,340,142,1,339,ratio19_1_10_6.png,,,,,,,,,,,,
,,,,,,,,,,,,All,Many,Few,More than half,Half,None,Less than half,Most,Some,-0.473130185,-0.316066494,1,0,0,QQQ9,,,,,,,,English,2020-07-02_11h05.34.905,Experiment_English,3.2.4,Win32,60,,,1,0,340,158,1,339,ratio19_2_20_17.png,,,,,,,,,,,,
,,,,,,,,,,,,Many,Few,Half,Some,None,Most,Less than half,More than half,All,-0.522991682,0.285595514,1,0,0,QQQ7,,,,,,,,English,2020-07-02_11h05.34.905,Experiment_English,3.2.4,Win32,60,,,1,0,340,122,1,339,ratio15_1_6_7.png,,,,,,,,,,,,
,,,,,,,,,,,,All,Few,Most,None,Many,More than half,Some,Less than half,Half,1.5855E-08,-0.026869814,1,0,0,QQQ5,,,,,,,,English,2020-07-02_11h05.34.905,Experiment_English,3.2.4,Win32,60,,,1,0,340,213,1,339,ratio31_12_16_2.png,,,,,,,,,,,,
,,,,,,,,,,,,Many,Some,All,None,Less than half,More than half,Few,Half,Most,0.024376815,0.005263151,1,0,0,QQQ5,,,,,,,,English,2020-07-02_11h05.34.905,Experiment_English,3.2.4,Win32,60,,,1,0,340,106,1,339,ratio14_2_10_2.png,,,,,,,,,,,,
,,,,,,,,,,,,More than half,Many,All,Most,None,Some,Less than half,Half,Few,-0.499722983,-0.270637131,1,0,0,QQQ9,,,,,,,,English,2020-07-02_11h05.34.905,Experiment_English,3.2.4,Win32,60,,,1,0,340,118,1,339,ratio14_4_20_8.png,,,,,,,,,,,,
,,,,,,,,,,,,Some,Few,Half,Less than half,More than half,Many,Most,None,All,0.45872592,-0.03240998,1,0,0,QQQ2,,,,,,,,English,2020-07-02_11h05.34.905,Experiment_English,3.2.4,Win32,60,,,1,0,340,143,1,339,ratio19_1_10_9.png,,,,,,,,,,,,
,,,,,,,,,,,,Most,Many,Few,All,Half,None,Less than half,Some,More than half,0.52853188,0.30443213,1,0,0,QQQ1,,,,,,,,English,2020-07-02_11h05.34.905,Experiment_English,3.2.4,Win32,60,,,1,0,340,238,1,339,ratio32_12_20_9.png,,,,,,,,,,,,
,,,,,,,,,,,,All,Many,Some,None,Half,Few,Most,Less than half,More than half,0.488642682,0.004155117,1,0,0,QQQ2,,,,,,,,English,2020-07-02_11h05.34.905,Experiment_English,3.2.4,Win32,60,,,1,0,340,266,1,339,ratio41_8_10_2.png,,,,,,,,,,,,
,,,,,,,,,,,,Many,Few,All,Less than half,None,Half,Most,More than half,Some,-0.494182817,0.298891964,1,0,0,QQQ7,,,,,,,,English,2020-07-02_11h05.34.905,Experiment_English,3.2.4,Win32,60,,,1,0,340,333,1,339,ratio91_18_20_6.png,,,,,,,,,,,,
,,,,,,,,,,,,Half,None,Few,Many,More than half,Less than half,All,Most,Some,1.5855E-08,0.001939051,1,0,0,QQQ5,,,,,,,,English,2020-07-02_11h05.34.905,Experiment_English,3.2.4,Win32,60,,,1,0,340,227,1,339,ratio32_6_10_6.png,,,,,,,,,,,,
,,,,,,,,,,,,Less than half,None,Few,Some,Most,Half,More than half,Many,All,-0.456509686,0.293351781,1,0,0,QQQ7,,,,,,,,English,2020-07-02_11h05.34.905,Experiment_English,3.2.4,Win32,60,,,1,0,340,293,1,339,ratio43_8_14_7.png,,,,,,,,,,,,
,,,,,,,,,,,,None,Many,Less than half,More than half,All,Half,Few,Some,Most,0.522991713,0.319944596,1,0,0,QQQ1,,,,,,,,English,2020-07-02_11h05.34.905,Experiment_English,3.2.4,Win32,60,,,1,0,340,69,1,339,ratio0Y_0_11_6.png,,,,,,,,,,,,
,,,,,,,,,,,,Half,Some,More than half,Most,Less than half,All,Many,Few,None,-0.055401647,-0.009141282,1,0,0,QQQ5,,,,,,,,English,2020-07-02_11h05.34.905,Experiment_English,3.2.4,Win32,60,,,1,0,340,253,1,339,ratio34_6_14_5.png,0.366666685,-0.392592606,1,0,0,continue_button_pause,1,0,1,0,1,0
,,,,,,,,,,,,,,,,,,,,,,,,,,,,,,,,,,English,2020-07-02_11h05.34.905,Experiment_English,3.2.4,Win32,60,,,1,0,340,253,1,339,ratio34_6_14_5.png,,,,,,,,,,,,
,,,,,,,,,,,,Most,None,Less than half,More than half,Some,All,Half,Few,Many,0.472222243,0.001851844,1,0,0,QQQ2,,,,,,,,English,2020-07-02_11h05.34.905,Experiment_English,3.2.4,Win32,60,,,1,0,340,64,1,339,ratio0Y_0_7_1.png,,,,,,,,,,,,
,,,,,,,,,,,,All,Many,Less than half,More than half,Few,None,Some,Most,Half,0.005555569,0.047222215,1,0,0,QQQ5,,,,,,,,English,2020-07-02_11h05.34.905,Experiment_English,3.2.4,Win32,60,,,1,0,340,136,1,339,ratio15_3_18_8.png,,,,,,,,,,,,
,,,,,,,,,,,,Few,None,All,Many,Some,Less than half,Half,Most,More than half,-0.422222215,-0.253703715,1,0,0,QQQ9,,,,,,,,English,2020-07-02_11h05.34.905,Experiment_English,3.2.4,Win32,60,,,1,0,340,166,1,339,ratio21_6_9_1.png,,,,,,,,,,,,
,,,,,,,,,,,,Some,Many,Less than half,More than half,Few,None,Most,Half,All,-0.468518512,0.272222219,1,0,0,QQQ7,,,,,,,,English,2020-07-02_11h05.34.905,Experiment_English,3.2.4,Win32,60,,,1,0,340,263,1,339,ratio41_4_5_5.png,,,,,,,,,,,,
,,,,,,,,,,,,More than half,All,Few,Half,Many,Less than half,Most,None,Some,0.430555575,-0.245370381,1,0,0,QQQ3,,,,,,,,English,2020-07-02_11h05.34.905,Experiment_English,3.2.4,Win32,60,,,1,0,340,119,1,339,ratio14_4_20_10.png,,,,,,,,,,,,
,,,,,,,,,,,,Less than half,Few,Half,Many,None,All,Some,More than half,Most,0.45000002,0.015740734,1,0,0,QQQ2,,,,,,,,English,2020-07-02_11h05.34.905,Experiment_English,3.2.4,Win32,60,,,1,0,340,8,1,339,ratio12_3_9_4.png,,,,,,,,,,,,
,,,,,,,,,,,,Few,Less than half,Most,Half,All,More than half,Some,Many,None,0.429629762,0.262962959,1,0,0,QQQ1,,,,,,,,English,2020-07-02_11h05.34.905,Experiment_English,3.2.4,Win32,60,,,1,0,340,141,1,339,ratio19_1_10_2.png,,,,,,,,,,,,
,,,,,,,,,,,,Most,Many,Half,More than half,All,Some,None,Few,Less than half,-0.457407373,-0.280555567,1,0,0,QQQ9,,,,,,,,English,2020-07-02_11h05.34.905,Experiment_English,3.2.4,Win32,60,,,1,0,340,113,1,339,ratio14_3_15_8.png,,,,,,,,,,,,
,,,,,,,,,,,,All,Most,None,Some,Many,Half,Few,More than half,Less than half,0.477777798,-0.008333341,1,0,0,QQQ2,,,,,,,,English,2020-07-02_11h05.34.905,Experiment_English,3.2.4,Win32,60,,,1,0,340,329,1,339,ratio91_9_10_20.png,,,,,,,,,,,,
,,,,,,,,,,,,Many,Half,Few,None,All,Some,Less than half,More than half,Most,0.498148169,-0.256481549,1,0,0,QQQ3,,,,,,,,English,2020-07-02_11h05.34.905,Experiment_English,3.2.4,Win32,60,,,1,0,340,128,1,339,ratio15_2_12_8.png,,,,,,,,,,,,
,,,,,,,,,,,,All,Less than half,Half,None,Most,Many,More than half,Some,Few,0.413888908,-0.025925934,1,0,0,QQQ2,,,,,,,,English,2020-07-02_11h05.34.905,Experiment_English,3.2.4,Win32,60,,,1,0,340,24,1,339,ratio11_4_8_3.png,,,,,,,,,,,,
,,,,,,,,,,,,Half,Less than half,Many,Some,None,More than half,All,Few,Most,0.410185205,-0.005555563,1,0,0,QQQ2,,,,,,,,English,2020-07-02_11h05.34.905,Experiment_English,3.2.4,Win32,60,,,1,0,340,23,1,339,ratio11_3_6_9.png,,,,,,,,,,,,
,,,,,,,,,,,,None,Most,Some,Less than half,More than half,Many,Half,Few,All,-0.090740672,0.01203703,1,0,0,QQQ5,,,,,,,,English,2020-07-02_11h05.34.905,Experiment_English,3.2.4,Win32,60,,,1,0,340,290,1,339,ratio43_8_14_3.png,,,,,,,,,,,,
,,,,,,,,,,,,Some,Half,Few,Most,None,Less than half,All,Many,More than half,0.006481551,-0.245370381,1,0,0,QQQ6,,,,,,,,English,2020-07-02_11h05.34.905,Experiment_English,3.2.4,Win32,60,,,1,0,340,224,1,339,ratio32_3_5_10.png,,,,,,,,,,,,
,,,,,,,,,,,,All,Half,Few,Less than half,None,More than half,Some,Most,Many,0.051851866,-0.23796303,1,0,0,QQQ6,,,,,,,,English,2020-07-02_11h05.34.905,Experiment_English,3.2.4,Win32,60,,,1,0,340,97,1,339,ratio13_5_20_2.png,,,,,,,,,,,,
,,,,,,,,,,,,More than half,Many,Most,Less than half,Few,Half,None,All,Some,0.051851866,-0.23796303,1,0,0,QQQ6,,,,,,,,English,2020-07-02_11h05.34.905,Experiment_English,3.2.4,Win32,60,,,1,0,340,115,1,339,ratio14_4_20_1.png,,,,,,,,,,,,
,,,,,,,,,,,,Many,Half,Most,Few,None,Less than half,Some,More than half,All,0.412962982,-0.281481493,1,0,0,QQQ3,,,,,,,,English,2020-07-02_11h05.34.905,Experiment_English,3.2.4,Win32,60,,,1,0,340,207,1,339,ratio31_6_8_9.png,,,,,,,,,,,,
,,,,,,,,,,,,More than half,All,Many,Few,Less than half,None,Some,Most,Half,0.013888902,-0.000925933,1,0,0,QQQ5,,,,,,,,English,2020-07-02_11h05.34.905,Experiment_English,3.2.4,Win32,60,,,1,0,340,182,1,339,ratio23_2_5_7.png,,,,,,,,,,,,
,,,,,,,,,,,,Some,Less than half,Half,Many,Most,None,Few,More than half,All,0.425000133,-0.016666674,1,0,0,QQQ2,,,,,,,,English,2020-07-02_11h05.34.905,Experiment_English,3.2.4,Win32,60,,,1,0,340,7,1,339,ratio12_3_9_2.png,,,,,,,,,,,,
,,,,,,,,,,,,Few,Less than half,Many,None,Most,More than half,Half,All,Some,0.453703724,0.301851849,1,0,0,QQQ1,,,,,,,,English,2020-07-02_11h05.34.905,Experiment_English,3.2.4,Win32,60,,,1,0,340,153,1,339,ratio19_2_20_8.png,,,,,,,,,,,,
,,,,,,,,,,,,All,Many,More than half,Less than half,None,Some,Half,Few,Most,-0.428703697,-0.296296308,1,0,0,QQQ9,,,,,,,,English,2020-07-02_11h05.34.905,Experiment_English,3.2.4,Win32,60,,,1,0,340,177,1,339,ratio21_12_18_1.png,,,,,,,,,,,,
,,,,,,,,,,,,More than half,Most,Half,Less than half,Many,None,Few,Some,All,0.051851866,-0.237037048,1,0,0,QQQ6,,,,,,,,English,2020-07-02_11h05.34.905,Experiment_English,3.2.4,Win32,60,,,1,0,340,321,1,339,ratio91_9_10_2.png,,,,,,,,,,,,
,,,,,,,,,,,,None,Some,Few,Half,Many,Less than half,Most,All,More than half,0.423148168,-0.259259271,1,0,0,QQQ3,,,,,,,,English,2020-07-02_11h05.34.905,Experiment_English,3.2.4,Win32,60,,,1,0,340,111,1,339,ratio14_3_15_3.png,,,,,,,,,,,,
,,,,,,,,,,,,Many,None,Few,Half,Some,Most,All,Less than half,More than half,-0.4074074,0.006481474,1,0,0,QQQ8,,,,,,,,English,2020-07-02_11h05.34.905,Experiment_English,3.2.4,Win32,60,,,1,0,340,245,1,339,ratio34_3_7_10.png,,,,,,,,,,,,
,,,,,,,,,,,,Few,None,All,Most,More than half,Some,Less than half,Many,Half,-0.424074067,0.0074074,1,0,0,QQQ8,,,,,,,,English,2020-07-02_11h05.34.905,Experiment_English,3.2.4,Win32,60,,,1,0,340,183,1,339,ratio23_2_5_9.png,,,,,,,,,,,,
,,,,,,,,,,,,Few,Half,None,All,Less than half,Some,Many,Most,More than half,-0.445370364,-0.270370438,0,1,0,QQQ9,,,,,,,,English,2020-07-02_11h05.34.905,Experiment_English,3.2.4,Win32,60,,,1,0,340,284,1,339,ratio43_4_7_11.png,,,,,,,,,,,,
,,,,,,,,,,,,More than half,Few,Some,All,Half,Many,Most,None,Less than half,0.425925946,0.259259256,1,0,0,QQQ1,,,,,,,,English,2020-07-02_11h05.34.905,Experiment_English,3.2.4,Win32,60,,,1,0,340,303,1,339,ratio51_5_6_6.png,,,,,,,,,,,,
,,,,,,,,,,,,Half,None,More than half,Many,Few,All,Most,Some,Less than half,0.447222242,-0.250000011,1,0,0,QQQ3,,,,,,,,English,2020-07-02_11h05.34.905,Experiment_English,3.2.4,Win32,60,,,1,0,340,265,1,339,ratio41_8_10_1.png,,,,,,,,,,,,
,,,,,,,,,,,,Half,More than half,Some,None,Less than half,Many,All,Few,Most,-0.449999993,-0.000925933,1,0,0,QQQ8,,,,,,,,English,2020-07-02_11h05.34.905,Experiment_English,3.2.4,Win32,60,,,1,0,340,157,1,339,ratio19_2_20_16.png,,,,,,,,,,,,
,,,,,,,,,,,,Most,More than half,None,Few,All,Half,Less than half,Some,Many,-0.020370357,0.284259242,1,0,0,QQQ4,,,,,,,,English,2020-07-02_11h05.34.905,Experiment_English,3.2.4,Win32,60,,,1,0,340,116,1,339,ratio14_4_20_3.png,,,,,,,,,,,,
,,,,,,,,,,,,More than half,Few,Some,All,None,Many,Less than half,Half,Most,0.459259279,0.027777771,1,0,0,QQQ2,,,,,,,,English,2020-07-02_11h05.34.905,Experiment_English,3.2.4,Win32,60,,,1,0,340,137,1,339,ratio15_3_18_16.png,,,,,,,,,,,,
,,,,,,,,,,,,Some,Few,Less than half,Half,Many,Most,All,More than half,None,-0.013888876,0.315740738,1,0,0,QQQ4,,,,,,,,English,2020-07-02_11h05.34.905,Experiment_English,3.2.4,Win32,60,,,1,0,340,285,1,339,ratio43_4_7_14.png,,,,,,,,,,,,
,,,,,,,,,,,,None,Few,Less than half,Many,More than half,Some,Most,All,Half,-0.478703698,0.302777761,1,0,0,QQQ7,,,,,,,,English,2020-07-02_11h05.34.905,Experiment_English,3.2.4,Win32,60,,,1,0,340,328,1,339,ratio91_9_10_15.png,,,,,,,,,,,,
,,,,,,,,,,,,Some,None,Most,All,Half,Many,Few,More than half,Less than half,-0.506481476,0.303703701,1,0,0,QQQ7,,,,,,,,English,2020-07-02_11h05.34.905,Experiment_English,3.2.4,Win32,60,,,1,0,340,149,1,339,ratio19_1_10_20.png,0.363888908,-0.399074087,1,0,0,continue_button_pause,1,0,1,0,1,0
,,,,,,,,,,,,,,,,,,,,,,,,,,,,,,,,,,English,2020-07-02_11h05.34.905,Experiment_English,3.2.4,Win32,60,,,1,0,340,149,1,339,ratio19_1_10_20.png,,,,,,,,,,,,
,,,,,,,,,,,,Some,Many,All,Most,Less than half,Few,Half,More than half,None,-0.451851845,-0.014814822,1,0,0,QQQ8,,,,,,,,English,2020-07-02_11h05.34.905,Experiment_English,3.2.4,Win32,60,,,1,0,340,160,1,339,ratio21_2_3_2.png,,,,,,,,,,,,
,,,,,,,,,,,,Some,Few,More than half,Many,All,None,Most,Half,Less than half,-0.426851845,0.270370353,1,0,0,QQQ7,,,,,,,,English,2020-07-02_11h05.34.905,Experiment_English,3.2.4,Win32,60,,,1,0,340,327,1,339,ratio91_9_10_11.png,,,,,,,,,,,,
,,,,,,,,,,,,Few,Less than half,All,Half,More than half,Some,None,Most,Many,-0.488888883,-0.000925933,1,0,0,QQQ8,,,,,,,,English,2020-07-02_11h05.34.905,Experiment_English,3.2.4,Win32,60,,,1,0,340,271,1,339,ratio41_12_15_6.png,,,,,,,,,,,,
,,,,,,,,,,,,Most,Less than half,Many,Half,More than half,Few,All,Some,None,0.519444465,-0.000925933,1,0,0,QQQ2,,,,,,,,English,2020-07-02_11h05.34.905,Experiment_English,3.2.4,Win32,60,,,1,0,340,241,1,339,ratio34_3_7_5.png,,,,,,,,,,,,
,,,,,,,,,,,,None,All,Less than half,Some,Many,More than half,Few,Half,Most,-0.004629616,-0.006481489,1,0,0,QQQ5,,,,,,,,English,2020-07-02_11h05.34.905,Experiment_English,3.2.4,Win32,60,,,1,0,340,317,1,339,ratio51_15_18_13.png,,,,,,,,,,,,
,,,,,,,,,,,,Less than half,Some,More than half,Half,Most,None,Few,All,Many,-0.004629616,-0.006481489,1,0,0,QQQ5,,,,,,,,English,2020-07-02_11h05.34.905,Experiment_English,3.2.4,Win32,60,,,1,0,340,309,1,339,ratio51_10_12_10.png,,,,,,,,,,,,
,,,,,,,,,,,,Most,All,Less than half,Few,None,Half,Some,Many,More than half,0.443518651,-0.309259271,1,0,0,QQQ3,,,,,,,,English,2020-07-02_11h05.34.905,Experiment_English,3.2.4,Win32,60,,,1,0,340,186,1,339,ratio23_4_10_2.png,,,,,,,,,,,,
,,,,,,,,,,,,Few,More than half,All,None,Half,Many,Less than half,Some,Most,0.481481502,0.319444442,1,0,0,QQQ1,,,,,,,,English,2020-07-02_11h05.34.905,Experiment_English,3.2.4,Win32,60,,,1,0,340,107,1,339,ratio14_2_10_5.png,,,,,,,,,,,,
,,,,,,,,,,,,Most,More than half,All,Few,None,Less than half,Half,Some,Many,-0.018518506,-0.307407476,1,0,0,QQQ6,,,,,,,,English,2020-07-02_11h05.34.905,Experiment_English,3.2.4,Win32,60,,,1,0,340,191,1,339,ratio23_6_15_7.png,,,,,,,,,,,,
,,,,,,,,,,,,Most,Half,All,Some,Many,Less than half,More than half,None,Few,0.375000019,0.272222219,1,0,0,QQQ1,,,,,,,,English,2020-07-02_11h05.34.905,Experiment_English,3.2.4,Win32,60,,,1,0,340,323,1,339,ratio91_9_10_5.png,,,,,,,,,,,,
,,,,,,,,,,,,Less than half,None,Few,Some,Most,Many,More than half,Half,All,0.501851873,-7.4558E-09,1,0,0,QQQ2,,,,,,,,English,2020-07-02_11h05.34.905,Experiment_English,3.2.4,Win32,60,,,1,0,340,74,1,339,ratio0Y_0_15_10.png,,,,,,,,,,,,
,,,,,,,,,,,,Most,None,Some,Few,Less than half,Half,All,Many,More than half,0.026851865,0.031481446,1,0,0,QQQ5,,,,,,,,English,2020-07-02_11h05.34.905,Experiment_English,3.2.4,Win32,60,,,1,0,340,96,1,339,ratio13_5_20_1.png,,,,,,,,,,,,
,,,,,,,,,,,,None,More than half,Less than half,Most,Many,Some,Half,Few,All,0.456481502,-0.286111123,1,0,0,QQQ3,,,,,,,,English,2020-07-02_11h05.34.905,Experiment_English,3.2.4,Win32,60,,,1,0,340,249,1,339,ratio34_3_7_20.png,,,,,,,,,,,,
,,,,,,,,,,,,None,Half,Few,All,Most,Some,More than half,Many,Less than half,-0.029629617,-0.018518526,1,0,0,QQQ5,,,,,,,,English,2020-07-02_11h05.34.905,Experiment_English,3.2.4,Win32,60,,,1,0,340,267,1,339,ratio41_8_10_4.png,,,,,,,,,,,,
,,,,,,,,,,,,All,None,Half,Few,Less than half,Many,Most,Some,More than half,-0.456481475,-0.300925938,1,0,0,QQQ9,,,,,,,,English,2020-07-02_11h05.34.905,Experiment_English,3.2.4,Win32,60,,,1,0,340,236,1,339,ratio32_12_20_2.png,,,,,,,,,,,,
,,,,,,,,,,,,Half,Most,Many,Few,Less than half,None,Some,All,More than half,-0.007407338,-0.304629642,1,0,0,QQQ6,,,,,,,,English,2020-07-02_11h05.34.905,Experiment_English,3.2.4,Win32,60,,,1,0,340,75,1,339,ratio0Y_0_16_10.png,,,,,,,,,,,,
,,,,,,,,,,,,Many,Most,Half,Some,More than half,Less than half,None,Few,All,0.031481495,-0.019444452,1,0,0,QQQ5,,,,,,,,English,2020-07-02_11h05.34.905,Experiment_English,3.2.4,Win32,60,,,1,0,340,295,1,339,ratio43_8_14_11.png,,,,,,,,,,,,
,,,,,,,,,,,,More than half,Half,None,Some,Few,Many,All,Less than half,Most,0.028703717,-0.019444452,1,0,0,QQQ5,,,,,,,,English,2020-07-02_11h05.34.905,Experiment_English,3.2.4,Win32,60,,,1,0,340,127,1,339,ratio15_2_12_2.png,,,,,,,,,,,,
,,,,,,,,,,,,More than half,None,Some,Half,Few,All,Most,Many,Less than half,-0.000925913,0.010185178,1,0,0,QQQ5,,,,,,,,English,2020-07-02_11h05.34.905,Experiment_English,3.2.4,Win32,60,,,1,0,340,148,1,339,ratio19_1_10_19.png,,,,,,,,,,,,
,,,,,,,,,,,,Half,Less than half,Most,None,Some,Many,All,More than half,Few,-0.497222216,-0.002777785,1,0,0,QQQ8,,,,,,,,English,2020-07-02_11h05.34.905,Experiment_English,3.2.4,Win32,60,,,1,0,340,232,1,339,ratio32_9_15_8.png,,,,,,,,,,,,
,,,,,,,,,,,,Less than half,Half,All,More than half,Most,Many,Some,Few,None,0.462962983,0.299074071,1,0,0,QQQ1,,,,,,,,English,2020-07-02_11h05.34.905,Experiment_English,3.2.4,Win32,60,,,1,0,340,251,1,339,ratio34_6_14_2.png,,,,,,,,,,,,
,,,,,,,,,,,,More than half,All,Many,Few,Less than half,Some,Most,None,Half,-0.49629629,0.297222219,1,0,0,QQQ7,,,,,,,,English,2020-07-02_11h05.34.905,Experiment_English,3.2.4,Win32,60,,,1,0,340,300,1,339,ratio51_5_6_1.png,,,,,,,,,,,,
,,,,,,,,,,,,Most,Many,More than half,Few,None,Less than half,Half,Some,All,0.017592606,0.29259259,1,0,0,QQQ4,,,,,,,,English,2020-07-02_11h05.34.905,Experiment_English,3.2.4,Win32,60,,,1,0,340,82,1,339,ratio13_1_4_7.png,,,,,,,,,,,,
,,,,,,,,,,,,More than half,Some,Most,All,Few,Half,None,Less than half,Many,-0.497222216,-0.303703716,1,0,0,QQQ9,,,,,,,,English,2020-07-02_11h05.34.905,Experiment_English,3.2.4,Win32,60,,,1,0,340,216,1,339,ratio31_15_20_3.png,,,,,,,,,,,,
,,,,,,,,,,,,All,More than half,Some,None,Few,Many,Most,Less than half,Half,-0.433333327,-0.043518527,1,0,0,QQQ8,,,,,,,,English,2020-07-02_11h05.34.905,Experiment_English,3.2.4,Win32,60,,,1,0,340,12,1,339,ratio12_4_12_10.png,,,,,,,,,,,,
,,,,,,,,,,,,None,Many,Half,Most,Few,Less than half,All,Some,More than half,0.500925947,0.280555552,1,0,0,QQQ1,,,,,,,,English,2020-07-02_11h05.34.905,Experiment_English,3.2.4,Win32,60,,,1,0,340,77,1,339,ratio0Y_0_18_3.png,,,,,,,,,,,,
,,,,,,,,,,,,Less than half,Half,Many,Few,All,Most,More than half,None,Some,0.420370503,0.254629626,1,0,0,QQQ1,,,,,,,,English,2020-07-02_11h05.34.905,Experiment_English,3.2.4,Win32,60,,,1,0,340,306,1,339,ratio51_5_6_18.png,,,,,,,,,,,,
,,,,,,,,,,,,Half,All,Most,More than half,Few,Less than half,Many,Some,None,-0.509259254,-0.298148217,1,0,0,QQQ9,,,,,,,,English,2020-07-02_11h05.34.905,Experiment_English,3.2.4,Win32,60,,,1,0,340,62,1,339,ratio0Y_0_5_4.png,,,,,,,,,,,,
,,,,,,,,,,,,None,All,Some,Many,Less than half,More than half,Most,Half,Few,-0.485185151,0.286111108,1,0,0,QQQ7,,,,,,,,English,2020-07-02_11h05.34.905,Experiment_English,3.2.4,Win32,60,,,1,0,340,276,1,339,ratio41_16_20_4.png,,,,,,,,,,,,
,,,,,,,,,,,,Some,Few,All,None,Many,More than half,Half,Less than half,Most,0.039814829,-0.309259271,1,0,0,QQQ6,,,,,,,,English,2020-07-02_11h05.34.905,Experiment_English,3.2.4,Win32,60,,,1,0,340,299,1,339,ratio43_8_14_17.png,,,,,,,,,,,,
,,,,,,,,,,,,All,Few,Less than half,Most,Half,Many,None,More than half,Some,0.035185199,0.282407404,1,0,0,QQQ4,,,,,,,,English,2020-07-02_11h05.34.905,Experiment_English,3.2.4,Win32,60,,,1,0,340,337,1,339,ratio91_18_20_16.png,,,,,,,,,,,,
,,,,,,,,,,,,None,Most,Many,More than half,All,Some,Few,Half,Less than half,0.481481502,0.0074074,1,0,0,QQQ2,,,,,,,,English,2020-07-02_11h05.34.905,Experiment_English,3.2.4,Win32,60,,,1,0,340,269,1,339,ratio41_8_10_6.png,,,,,,,,,,,,
,,,,,,,,,,,,Most,Less than half,More than half,Many,None,Few,Some,Half,All,0.476851872,0.006481474,1,0,0,QQQ2,,,,,,,,English,2020-07-02_11h05.34.905,Experiment_English,3.2.4,Win32,60,,,1,0,340,99,1,339,ratio13_5_20_4.png,,,,,,,,,,,,
,,,,,,,,,,,,None,All,Many,Half,Most,More than half,Some,Less than half,Few,-0.475925892,-0.283333345,1,0,0,QQQ9,,,,,,,,English,2020-07-02_11h05.34.905,Experiment_English,3.2.4,Win32,60,,,1,0,340,85,1,339,ratio13_2_8_5.png,0.365740759,-0.39537044,1,0,0,continue_button_pause,1,0,1,0,1,0
,,,,,,,,,,,,,,,,,,,,,,,,,,,,,,,,,,English,2020-07-02_11h05.34.905,Experiment_English,3.2.4,Win32,60,,,1,0,340,85,1,339,ratio13_2_8_5.png,,,,,,,,,,,,
,,,,,,,,,,,,None,Most,Few,Some,Less than half,More than half,All,Many,Half,0.063888903,-0.001851859,1,0,0,QQQ5,,,,,,,,English,2020-07-02_11h05.34.905,Experiment_English,3.2.4,Win32,60,,,1,0,340,117,1,339,ratio14_4_20_6.png,,,,,,,,,,,,
,,,,,,,,,,,,Half,All,Some,Less than half,Few,Many,Most,None,More than half,0.000925939,0.010185178,1,0,0,QQQ5,,,,,,,,English,2020-07-02_11h05.34.905,Experiment_English,3.2.4,Win32,60,,,1,0,340,104,1,339,ratio14_1_5_10.png,,,,,,,,,,,,
,,,,,,,,,,,,Some,Most,More than half,Half,Many,Less than half,All,None,Few,-0.436111104,-0.011111119,1,0,0,QQQ8,,,,,,,,English,2020-07-02_11h05.34.905,Experiment_English,3.2.4,Win32,60,,,1,0,340,71,1,339,ratio0Y_0_12_10.png,,,,,,,,,,,,
,,,,,,,,,,,,Many,More than half,Some,Less than half,All,None,Few,Half,Most,0.400925945,0.005555548,1,0,0,QQQ2,,,,,,,,English,2020-07-02_11h05.34.905,Experiment_English,3.2.4,Win32,60,,,1,0,340,204,1,339,ratio31_6_8_1.png,,,,,,,,,,,,
,,,,,,,,,,,,Most,Few,Less than half,Many,More than half,None,Some,All,Half,0.388888908,0.008333326,1,0,0,QQQ2,,,,,,,,English,2020-07-02_11h05.34.905,Experiment_English,3.2.4,Win32,60,,,1,0,340,145,1,339,ratio19_1_10_15.png,,,,,,,,,,,,
,,,,,,,,,,,,More than half,Few,Less than half,Many,All,None,Some,Most,Half,-0.476851846,-0.037962971,1,0,0,QQQ8,,,,,,,,English,2020-07-02_11h05.34.905,Experiment_English,3.2.4,Win32,60,,,1,0,340,326,1,339,ratio91_9_10_10.png,,,,,,,,,,,,
,,,,,,,,,,,,All,Less than half,Half,More than half,Most,None,Some,Many,Few,-0.007407338,0.264814811,1,0,0,QQQ4,,,,,,,,English,2020-07-02_11h05.34.905,Experiment_English,3.2.4,Win32,60,,,1,0,340,289,1,339,ratio43_4_7_20.png,,,,,,,,,,,,
,,,,,,,,,,,,Some,All,Few,Less than half,Most,None,Many,Half,More than half,0.018518532,-0.276851863,1,0,0,QQQ6,,,,,,,,English,2020-07-02_11h05.34.905,Experiment_English,3.2.4,Win32,60,,,1,0,340,79,1,339,ratio0Y_0_20_4.png,,,,,,,,,,,,
,,,,,,,,,,,,Most,More than half,All,Half,Few,Less than half,Many,Some,None,0.431481501,-0.009259267,1,0,0,QQQ2,,,,,,,,English,2020-07-02_11h05.34.905,Experiment_English,3.2.4,Win32,60,,,1,0,340,170,1,339,ratio21_6_9_8.png,,,,,,,,,,,,
,,,,,,,,,,,,All,Many,Some,Few,Most,Less than half,More than half,Half,None,0.057407478,0.242592589,1,0,0,QQQ4,,,,,,,,English,2020-07-02_11h05.34.905,Experiment_English,3.2.4,Win32,60,,,1,0,340,102,1,339,ratio14_1_5_8.png,,,,,,,,,,,,
,,,,,,,,,,,,None,Most,Many,Less than half,Half,More than half,Some,All,Few,0.47500002,-0.003703711,1,0,0,QQQ2,,,,,,,,English,2020-07-02_11h05.34.905,Experiment_English,3.2.4,Win32,60,,,1,0,340,312,1,339,ratio51_10_12_16.png,,,,,,,,,,,,
,,,,,,,,,,,,Many,Some,None,Most,More than half,Half,Less than half,All,Few,-0.024999987,0.005555548,1,0,0,QQQ5,,,,,,,,English,2020-07-02_11h05.34.905,Experiment_English,3.2.4,Win32,60,,,1,0,340,39,1,339,ratio11_10_20_6.png,,,,,,,,,,,,
,,,,,,,,,,,,Many,Most,None,All,Half,Less than half,More than half,Some,Few,-0.473148142,-0.280555567,1,0,0,QQQ9,,,,,,,,English,2020-07-02_11h05.34.905,Experiment_English,3.2.4,Win32,60,,,1,0,340,89,1,339,ratio13_3_12_6.png,,,,,,,,,,,,
,,,,,,,,,,,,None,Many,All,Few,More than half,Most,Less than half,Some,Half,-0.010185172,-0.010185193,1,0,0,QQQ5,,,,,,,,English,2020-07-02_11h05.34.905,Experiment_English,3.2.4,Win32,60,,,1,0,340,201,1,339,ratio31_3_4_7.png,,,,,,,,,,,,
,,,,,,,,,,,,Few,All,None,Some,Most,Many,More than half,Less than half,Half,-0.41666666,0.280555552,1,0,0,QQQ7,,,,,,,,English,2020-07-02_11h05.34.905,Experiment_English,3.2.4,Win32,60,,,1,0,340,163,1,339,ratio21_4_6_1.png,,,,,,,,,,,,
,,,,,,,,,,,,All,Some,Less than half,Half,Most,More than half,Many,Few,None,-0.012036967,0.0074074,1,0,0,QQQ5,,,,,,,,English,2020-07-02_11h05.34.905,Experiment_English,3.2.4,Win32,60,,,1,0,340,315,1,339,ratio51_15_18_10.png,,,,,,,,,,,,
,,,,,,,,,,,,Most,Many,More than half,Half,None,Less than half,All,Some,Few,-0.020370357,-0.272222234,1,0,0,QQQ6,,,,,,,,English,2020-07-02_11h05.34.905,Experiment_English,3.2.4,Win32,60,,,1,0,340,195,1,339,ratio23_8_20_1.png,,,,,,,,,,,,
,,,,,,,,,,,,Most,Half,All,More than half,None,Many,Few,Less than half,Some,-0.442592586,0.0074074,1,0,0,QQQ8,,,,,,,,English,2020-07-02_11h05.34.905,Experiment_English,3.2.4,Win32,60,,,1,0,340,220,1,339,ratio32_3_5_1.png,,,,,,,,,,,,
,,,,,,,,,,,,Most,None,Some,Many,Half,Few,All,Less than half,More than half,-0.436111104,-0.264814826,1,0,0,QQQ9,,,,,,,,English,2020-07-02_11h05.34.905,Experiment_English,3.2.4,Win32,60,,,1,0,340,208,1,339,ratio31_9_12_3.png,,,,,,,,,,,,
,,,,,,,,,,,,Some,Half,All,None,Many,Few,More than half,Less than half,Most,-0.467592586,0.04629629,1,0,0,QQQ8,,,,,,,,English,2020-07-02_11h05.34.905,Experiment_English,3.2.4,Win32,60,,,1,0,340,188,1,339,ratio23_4_10_6.png,,,,,,,,,,,,
,,,,,,,,,,,,More than half,Half,Some,None,Many,Few,All,Less than half,Most,0.452777911,0.28796296,1,0,0,QQQ1,,,,,,,,English,2020-07-02_11h05.34.905,Experiment_English,3.2.4,Win32,60,,,1,0,340,179,1,339,ratio21_12_18_8.png,,,,,,,,,,,,
,,,,,,,,,,,,Most,Few,None,Less than half,Half,More than half,All,Some,Many,0.01203705,0.263888885,1,0,0,QQQ4,,,,,,,,English,2020-07-02_11h05.34.905,Experiment_English,3.2.4,Win32,60,,,1,0,340,313,1,339,ratio51_15_18_2.png,,,,,,,,,,,,
,,,,,,,,,,,,Some,None,Few,All,Many,More than half,Most,Half,Less than half,0.50462965,-0.289814827,1,0,0,QQQ3,,,,,,,,English,2020-07-02_11h05.34.905,Experiment_English,3.2.4,Win32,60,,,1,0,340,152,1,339,ratio19_2_20_6.png,,,,,,,,,,,,
,,,,,,,,,,,,None,Half,Most,Some,More than half,Few,All,Many,Less than half,-0.49629629,-0.253703715,1,0,0,QQQ9,,,,,,,,English,2020-07-02_11h05.34.905,Experiment_English,3.2.4,Win32,60,,,1,0,340,193,1,339,ratio23_6_15_9.png,,,,,,,,,,,,
,,,,,,,,,,,,Half,Most,More than half,Many,None,Some,Few,Less than half,All,-0.482407401,-0.015740748,1,0,0,QQQ8,,,,,,,,English,2020-07-02_11h05.34.905,Experiment_English,3.2.4,Win32,60,,,1,0,340,135,1,339,ratio15_3_18_7.png,,,,,,,,,,,,
,,,,,,,,,,,,None,More than half,Half,Some,Most,All,Few,Many,Less than half,-0.448148113,0.262962959,1,0,0,QQQ7,,,,,,,,English,2020-07-02_11h05.34.905,Experiment_English,3.2.4,Win32,60,,,1,0,340,83,1,339,ratio13_1_4_10.png,,,,,,,,,,,,
,,,,,,,,,,,,Less than half,More than half,Some,Half,All,Most,Many,None,Few,0.001851922,0.293518501,1,0,0,QQQ4,,,,,,,,English,2020-07-02_11h05.34.905,Experiment_English,3.2.4,Win32,60,,,1,0,340,237,1,339,ratio32_12_20_5.png,,,,,,,,,,,,
,,,,,,,,,,,,Most,Half,Less than half,Some,None,Few,All,More than half,Many,0.525000021,-0.013888897,1,0,0,QQQ2,,,,,,,,English,2020-07-02_11h05.34.905,Experiment_English,3.2.4,Win32,60,,,1,0,340,27,1,339,ratio11_5_10_7.png,,,,,,,,,,,,
,,,,,,,,,,,,None,Most,Few,Half,Some,More than half,Less than half,Many,All,-0.492592587,0.279629612,1,0,0,QQQ7,,,,,,,,English,2020-07-02_11h05.34.905,Experiment_English,3.2.4,Win32,60,,,1,0,340,243,1,339,ratio34_3_7_8.png,,,,,,,,,,,,
,,,,,,,,,,,,Few,Some,Less than half,Most,All,Many,More than half,Half,None,-0.430555549,0.006481474,1,0,0,QQQ8,,,,,,,,English,2020-07-02_11h05.34.905,Experiment_English,3.2.4,Win32,60,,,1,0,340,38,1,339,ratio11_10_20_5.png,,,,,,,,,,,,
,,,,,,,,,,,,None,More than half,Few,Most,Some,Half,Many,All,Less than half,0.039814829,0.282407404,1,0,0,QQQ4,,,,,,,,English,2020-07-02_11h05.34.905,Experiment_English,3.2.4,Win32,60,,,1,0,340,311,1,339,ratio51_10_12_14.png,,,,,,,,,,,,
,,,,,,,,,,,,Less than half,Many,More than half,Half,All,None,Most,Few,Some,-0.012036967,-0.008333341,1,0,0,QQQ5,,,,,,,,English,2020-07-02_11h05.34.905,Experiment_English,3.2.4,Win32,60,,,1,0,340,56,1,339,ratioX0_17_17_10.png,,,,,,,,,,,,
,,,,,,,,,,,,Some,Few,All,Less than half,None,More than half,Many,Most,Half,-0.423148141,0.018518511,1,0,0,QQQ8,,,,,,,,English,2020-07-02_11h05.34.905,Experiment_English,3.2.4,Win32,60,,,1,0,340,305,1,339,ratio51_5_6_14.png,,,,,,,,,,,,
,,,,,,,,,,,,All,Less than half,None,Many,Few,Half,Some,Most,More than half,0.439814835,-0.000925933,1,0,0,QQQ2,,,,,,,,English,2020-07-02_11h05.34.905,Experiment_English,3.2.4,Win32,60,,,1,0,340,184,1,339,ratio23_2_5_10.png,0.345370389,-0.40000007,1,0,0,continue_button_pause,1,0,1,0,1,0
,,,,,,,,,,,,,,,,,,,,,,,,,,,,,,,,,,English,2020-07-02_11h05.34.905,Experiment_English,3.2.4,Win32,60,,,1,0,340,184,1,339,ratio23_2_5_10.png,,,,,,,,,,,,
,,,,,,,,,,,,All,Few,Some,Less than half,Many,None,Half,Most,More than half,-0.014814802,0.243518515,1,0,0,QQQ4,,,,,,,,English,2020-07-02_11h05.34.905,Experiment_English,3.2.4,Win32,60,,,1,0,340,88,1,339,ratio13_3_12_5.png,,,,,,,,,,,,
,,,,,,,,,,,,Less than half,All,More than half,Half,Many,Some,None,Few,Most,-0.421296289,-0.025925934,1,0,0,QQQ8,,,,,,,,English,2020-07-02_11h05.34.905,Experiment_English,3.2.4,Win32,60,,,1,0,340,101,1,339,ratio14_1_5_7.png,,,,,,,,,,,,
,,,,,,,,,,,,Half,Some,More than half,Less than half,Few,None,All,Most,Many,0.380555574,-0.24259266,1,0,0,QQQ3,,,,,,,,English,2020-07-02_11h05.34.905,Experiment_English,3.2.4,Win32,60,,,1,0,340,302,1,339,ratio51_5_6_5.png,,,,,,,,,,,,
,,,,,,,,,,,,Half,None,More than half,Many,Most,Few,All,Less than half,Some,0.02592594,0.013888882,1,0,0,QQQ5,,,,,,,,English,2020-07-02_11h05.34.905,Experiment_English,3.2.4,Win32,60,,,1,0,340,304,1,339,ratio51_5_6_13.png,,,,,,,,,,,,
,,,,,,,,,,,,Some,Most,All,None,Many,Few,Half,More than half,Less than half,-0.386111104,-0.301851864,1,0,0,QQQ9,,,,,,,,English,2020-07-02_11h05.34.905,Experiment_English,3.2.4,Win32,60,,,1,0,340,17,1,339,ratio12_6_18_5.png,,,,,,,,,,,,
,,,,,,,,,,,,All,Half,More than half,Most,Many,Some,None,Less than half,Few,-0.461111105,-0.264814826,1,0,0,QQQ9,,,,,,,,English,2020-07-02_11h05.34.905,Experiment_English,3.2.4,Win32,60,,,1,0,340,144,1,339,ratio19_1_10_11.png,,,,,,,,,,,,
,,,,,,,,,,,,Few,None,Some,Many,More than half,All,Less than half,Half,Most,0.009259273,-0.239814826,1,0,0,QQQ6,,,,,,,,English,2020-07-02_11h05.34.905,Experiment_English,3.2.4,Win32,60,,,1,0,340,41,1,339,ratioX0_4_4_9.png,,,,,,,,,,,,
,,,,,,,,,,,,None,Few,Half,Some,Many,Less than half,More than half,All,Most,-0.053703635,-0.259259271,1,0,0,QQQ6,,,,,,,,English,2020-07-02_11h05.34.905,Experiment_English,3.2.4,Win32,60,,,1,0,340,196,1,339,ratio23_8_20_5.png,,,,,,,,,,,,
,,,,,,,,,,,,Some,All,More than half,None,Half,Less than half,Most,Few,Many,-0.044444375,-0.255555567,1,0,0,QQQ6,,,,,,,,English,2020-07-02_11h05.34.905,Experiment_English,3.2.4,Win32,60,,,1,0,340,93,1,339,ratio13_4_16_7.png,,,,,,,,,,,,
,,,,,,,,,,,,All,Few,Most,Half,Some,Less than half,None,Many,More than half,-0.044444375,-0.255555567,1,0,0,QQQ6,,,,,,,,English,2020-07-02_11h05.34.905,Experiment_English,3.2.4,Win32,60,,,1,0,340,105,1,339,ratio14_2_10_1.png,,,,,,,,,,,,
,,,,,,,,,,,,Many,None,Most,More than half,Half,Some,Few,Less than half,All,-0.459259253,-0.299074086,1,0,0,QQQ9,,,,,,,,English,2020-07-02_11h05.34.905,Experiment_English,3.2.4,Win32,60,,,1,0,340,57,1,339,ratioX0_18_18_1.png,,,,,,,,,,,,
,,,,,,,,,,,,Most,Some,Many,More than half,Half,Few,None,Less than half,All,-0.478703698,0.296296293,1,0,0,QQQ7,,,,,,,,English,2020-07-02_11h05.34.905,Experiment_English,3.2.4,Win32,60,,,1,0,340,68,1,339,ratio0Y_0_11_3.png,,,,,,,,,,,,
,,,,,,,,,,,,Less than half,None,Many,All,Some,Few,Half,More than half,Most,-0.052777765,-0.228703771,1,0,0,QQQ6,,,,,,,,English,2020-07-02_11h05.34.905,Experiment_English,3.2.4,Win32,60,,,1,0,340,133,1,339,ratio15_3_18_3.png,,,,,,,,,,,,
,,,,,,,,,,,,All,Few,More than half,Some,Most,Many,Less than half,Half,None,0.440740761,-0.016666674,1,0,0,QQQ2,,,,,,,,English,2020-07-02_11h05.34.905,Experiment_English,3.2.4,Win32,60,,,1,0,340,86,1,339,ratio13_2_8_6.png,,,,,,,,,,,,
,,,,,,,,,,,,Few,Some,Many,Half,More than half,All,Less than half,None,Most,-0.4074074,0.291666664,1,0,0,QQQ7,,,,,,,,English,2020-07-02_11h05.34.905,Experiment_English,3.2.4,Win32,60,,,1,0,340,190,1,339,ratio23_6_15_3.png,,,,,,,,,,,,
,,,,,,,,,,,,All,Less than half,Some,Many,Half,None,More than half,Most,Few,-0.020370357,-0.269444456,1,0,0,QQQ6,,,,,,,,English,2020-07-02_11h05.34.905,Experiment_English,3.2.4,Win32,60,,,1,0,340,65,1,339,ratio0Y_0_8_4.png,,,,,,,,,,,,
,,,,,,,,,,,,Half,None,Most,More than half,Less than half,Few,All,Many,Some,0.012962976,0.260185182,1,0,0,QQQ4,,,,,,,,English,2020-07-02_11h05.34.905,Experiment_English,3.2.4,Win32,60,,,1,0,340,26,1,339,ratio11_5_10_4.png,,,,,,,,,,,,
,,,,,,,,,,,,All,Some,Many,More than half,Most,Few,None,Half,Less than half,-0.454629623,-0.315740753,1,0,0,QQQ9,,,,,,,,English,2020-07-02_11h05.34.905,Experiment_English,3.2.4,Win32,60,,,1,0,340,189,1,339,ratio23_4_10_8.png,,,,,,,,,,,,
,,,,,,,,,,,,All,Many,Half,None,Few,More than half,Less than half,Some,Most,-0.00833332,-0.003703711,1,0,0,QQQ5,,,,,,,,English,2020-07-02_11h05.34.905,Experiment_English,3.2.4,Win32,60,,,1,0,340,131,1,339,ratio15_2_12_14.png,,,,,,,,,,,,
,,,,,,,,,,,,None,All,Half,Few,Many,Some,Less than half,Most,More than half,-0.504629624,-0.023148156,1,0,0,QQQ8,,,,,,,,English,2020-07-02_11h05.34.905,Experiment_English,3.2.4,Win32,60,,,1,0,340,314,1,339,ratio51_15_18_4.png,,,,,,,,,,,,
,,,,,,,,,,,,More than half,Less than half,Some,Half,None,Most,Many,Few,All,0.385185204,0.256481478,1,0,0,QQQ1,,,,,,,,English,2020-07-02_11h05.34.905,Experiment_English,3.2.4,Win32,60,,,1,0,340,178,1,339,ratio21_12_18_2.png,,,,,,,,,,,,
,,,,,,,,,,,,All,Half,Many,None,More than half,Most,Some,Less than half,Few,-0.493518513,-0.286111123,1,0,0,QQQ9,,,,,,,,English,2020-07-02_11h05.34.905,Experiment_English,3.2.4,Win32,60,,,1,0,340,112,1,339,ratio14_3_15_4.png,,,,,,,,,,,,
,,,,,,,,,,,,Most,None,Half,Some,Many,All,Less than half,More than half,Few,0.426851871,-0.221296307,1,0,0,QQQ3,,,,,,,,English,2020-07-02_11h05.34.905,Experiment_English,3.2.4,Win32,60,,,1,0,340,256,1,339,ratio34_6_14_11.png,,,,,,,,,,,,
,,,,,,,,,,,,Some,Half,None,Few,Many,Most,All,More than half,Less than half,0.458333353,-0.004629637,1,0,0,QQQ2,,,,,,,,English,2020-07-02_11h05.34.905,Experiment_English,3.2.4,Win32,60,,,1,0,340,25,1,339,ratio11_4_8_10.png,,,,,,,,,,,,
,,,,,,,,,,,,Half,Few,Less than half,None,More than half,Some,All,Many,Most,-0.413888882,0.290740738,1,0,0,QQQ7,,,,,,,,English,2020-07-02_11h05.34.905,Experiment_English,3.2.4,Win32,60,,,1,0,340,44,1,339,ratioX0_7_7_5.png,,,,,,,,,,,,
,,,,,,,,,,,,Half,Few,Some,Many,All,Less than half,None,More than half,Most,-0.025925857,-0.264814826,1,0,0,QQQ6,,,,,,,,English,2020-07-02_11h05.34.905,Experiment_English,3.2.4,Win32,60,,,1,0,340,187,1,339,ratio23_4_10_5.png,,,,,,,,,,,,
,,,,,,,,,,,,Less than half,All,None,Many,Some,Half,Most,Few,More than half,0.420370503,0.243518515,1,0,0,QQQ1,,,,,,,,English,2020-07-02_11h05.34.905,Experiment_English,3.2.4,Win32,60,,,1,0,340,252,1,339,ratio34_6_14_3.png,,,,,,,,,,,,
,,,,,,,,,,,,Half,All,Few,Some,More than half,Most,Less than half,Many,None,0.487962983,-0.311111123,1,0,0,QQQ3,,,,,,,,English,2020-07-02_11h05.34.905,Experiment_English,3.2.4,Win32,60,,,1,0,340,138,1,339,ratio15_3_18_17.png,,,,,,,,,,,,
,,,,,,,,,,,,None,Some,Most,Less than half,All,Many,Half,Few,More than half,-0.49444441,0.008333326,1,0,0,QQQ8,,,,,,,,English,2020-07-02_11h05.34.905,Experiment_English,3.2.4,Win32,60,,,1,0,340,103,1,339,ratio14_1_5_9.png,,,,,,,,,,,,
,,,,,,,,,,,,Half,Many,Few,Less than half,None,All,More than half,Most,Some,-0.469444438,-0.020370378,1,0,0,QQQ8,,,,,,,,English,2020-07-02_11h05.34.905,Experiment_English,3.2.4,Win32,60,,,1,0,340,218,1,339,ratio31_15_20_7.png,,,,,,,,,,,,
,,,,,,,,,,,,Few,Most,None,Less than half,Many,Some,All,Half,More than half,0.403703723,0.254629626,1,0,0,QQQ1,,,,,,,,English,2020-07-02_11h05.34.905,Experiment_English,3.2.4,Win32,60,,,1,0,340,155,1,339,ratio19_2_20_13.png,,,,,,,,,,,,
,,,,,,,,,,,,All,Most,Less than half,Half,None,Few,Many,More than half,Some,-0.493518513,0.04629629,1,0,0,QQQ8,,,,,,,,English,2020-07-02_11h05.34.905,Experiment_English,3.2.4,Win32,60,,,1,0,340,30,1,339,ratio11_6_12_6.png,,,,,,,,,,,,
,,,,,,,,,,,,Few,None,More than half,Most,Less than half,Some,All,Half,Many,-0.428703697,0.313888886,1,0,0,QQQ7,,,,,,,,English,2020-07-02_11h05.34.905,Experiment_English,3.2.4,Win32,60,,,1,0,340,45,1,339,ratioX0_8_8_3.png,,,,,,,,,,,,
,,,,,,,,,,,,Most,More than half,None,Many,Few,Half,Less than half,All,Some,-0.428703697,0.035185178,1,0,0,QQQ8,,,,,,,,English,2020-07-02_11h05.34.905,Experiment_English,3.2.4,Win32,60,,,1,0,340,70,1,339,ratio0Y_0_12_5.png,,,,,,,,,,,,
