continue_mouse.x,continue_mouse.y,continue_mouse.leftButton,continue_mouse.midButton,continue_mouse.rightButton,continue_mouse.clicked_name,continue_mouse_2.x,continue_mouse_2.y,continue_mouse_2.leftButton,continue_mouse_2.midButton,continue_mouse_2.rightButton,continue_mouse_2.clicked_name,Q1,Q2,Q3,Q4,Q5,Q6,Q7,Q8,Q9,select_answer.x,select_answer.y,select_answer.leftButton,select_answer.midButton,select_answer.rightButton,select_answer.clicked_name,trial.thisRepN,trial.thisTrialN,trial.thisN,trial.thisIndex,trial.ran,trial.order,trials,Native tongue*,date,expName,psychopyVersion,OS,frameRate,key_resp.keys,key_resp.rt,trial_2.thisRepN,trial_2.thisTrialN,trial_2.thisN,trial_2.thisIndex,trial_2.ran,trial_2.order,continue_mouse_3.x,continue_mouse_3.y,continue_mouse_3.leftButton,continue_mouse_3.midButton,continue_mouse_3.rightButton,continue_mouse_3.clicked_name,insts.thisRepN,insts.thisTrialN,insts.thisN,insts.thisIndex,insts.ran,insts.order,Actual_Experiment.thisRepN,Actual_Experiment.thisTrialN,Actual_Experiment.thisN,Actual_Experiment.thisIndex,Actual_Experiment.ran,Actual_Experiment.order,Pic,mouse_pause.x,mouse_pause.y,mouse_pause.leftButton,mouse_pause.midButton,mouse_pause.rightButton,mouse_pause.clicked_name,pause.thisRepN,pause.thisTrialN,pause.thisN,pause.thisIndex,pause.ran,pause.order
0.332194126,-0.428385444,1,0,0,continue_button,0.332194126,-0.428385444,1,0,0,continue_button_2,Half,Some,All,Most,Less than half,None,Many,More than half,Few,0.505371135,-0.343750025,1,0,0,QQQ3,1,0,16,9,1,15,ratio19_1_10_8.png,English,2020-07-02_11h57.34.626,Experiment_English,3.2.4,Win32,60,,,,,,,,,,,,,,,,,,,,,,,,,,,,,,,,,,,,,,,
,,,,,,,,,,,,All,Few,None,Many,More than half,Less than half,Some,Most,Half,-0.008951797,0.273437493,1,0,0,QQQ4,1,0,16,4,1,15,ratio34_3_7_3.png,English,2020-07-02_11h57.34.626,Experiment_English,3.2.4,Win32,60,,,,,,,,,,,,,,,,,,,,,,,,,,,,,,,,,,,,,,,
,,,,,,,,,,,,More than half,None,All,Most,Some,Half,Few,Less than half,Many,0.019694038,-0.018229182,1,0,0,QQQ5,1,0,16,8,1,15,ratio21_12_18_3.png,English,2020-07-02_11h57.34.626,Experiment_English,3.2.4,Win32,60,,,,,,,,,,,,,,,,,,,,,,,,,,,,,,,,,,,,,,,
,,,,,,,,,,,,Half,Many,None,Most,More than half,Less than half,Few,Some,All,0.019694038,-0.018229182,1,0,0,QQQ5,1,0,16,6,1,15,ratio31_12_16_7.png,English,2020-07-02_11h57.34.626,Experiment_English,3.2.4,Win32,60,,,,,,,,,,,,,,,,,,,,,,,,,,,,,,,,,,,,,,,
,,,,,,,,,,,,Most,Less than half,Some,All,More than half,Half,None,Many,Few,0.407714882,0.265624993,1,0,0,QQQ1,1,0,16,13,1,15,ratio12_5_15_1.png,English,2020-07-02_11h57.34.626,Experiment_English,3.2.4,Win32,60,,,,,,,,,,,,,,,,,,,,,,,,,,,,,,,,,,,,,,,
,,,,,,,,,,,,More than half,Most,Half,None,Few,Some,All,Many,Less than half,-0.028483047,0.018229152,1,0,0,QQQ5,,,,,,,ratio43_8_14_19.png,English,2020-07-02_11h57.34.626,Experiment_English,3.2.4,Win32,60,a,19.546,1,0,16,2,1,15,,,,,,,,,,,,,,,,,,,,,,,,,,,,,,,
,,,,,,,,,,,,Few,Half,Less than half,Most,Some,Many,None,All,More than half,0.388183632,0.296874994,1,0,0,QQQ1,,,,,,,ratio23_2_5_8.png,English,2020-07-02_11h57.34.626,Experiment_English,3.2.4,Win32,60,,,1,0,16,7,1,15,,,,,,,,,,,,,,,,,,,,,,,,,,,,,,,
,,,,,,,,,,,,Many,All,Few,More than half,None,Most,Less than half,Half,Some,-0.00244138,-0.016927138,1,0,0,QQQ5,,,,,,,ratio0Y_0_14_10.png,English,2020-07-02_11h57.34.626,Experiment_English,3.2.4,Win32,60,,,1,0,16,15,1,15,,,,,,,,,,,,,,,,,,,,,,,,,,,,,,,
,,,,,,,,,,,,Many,None,Less than half,Some,Most,Half,Few,All,More than half,-0.490722644,0.251302076,1,0,0,QQQ7,,,,,,,ratio12_5_15_1.png,English,2020-07-02_11h57.34.626,Experiment_English,3.2.4,Win32,60,,,1,0,16,13,1,15,,,,,,,,,,,,,,,,,,,,,,,,,,,,,,,
,,,,,,,,,,,,Few,Half,Less than half,Most,Some,None,Many,All,More than half,-0.036295547,0.246093742,1,0,0,QQQ4,,,,,,,ratio41_8_10_8.png,English,2020-07-02_11h57.34.626,Experiment_English,3.2.4,Win32,60,,,1,0,16,3,1,15,,,,,,,,,,,,,,,,,,,,,,,,,,,,,,,
,,,,,,,,,,,,,,,,,,,,,,,,,,,,,,,,,,English,2020-07-02_11h57.34.626,Experiment_English,3.2.4,Win32,60,,,,,,,,,0.31396488,-0.368489609,1,0,0,continue_button_3,1,0,1,0,1,0,,,,,,,,,,,,,,,,,,,
,,,,,,,,,,,,More than half,Less than half,Half,Some,None,Few,All,Many,Most,-0.01025388,-0.350260442,1,0,0,QQQ6,,,,,,,,English,2020-07-02_11h57.34.626,Experiment_English,3.2.4,Win32,60,,,,,,,,,,,,,,,,,,,,,1,0,340,244,1,339,ratio34_3_7_9.png,,,,,,,,,,,,
,,,,,,,,,,,,Some,Less than half,More than half,All,Half,Few,None,Many,Most,0.041829455,-0.29947919,1,0,0,QQQ6,,,,,,,,English,2020-07-02_11h57.34.626,Experiment_English,3.2.4,Win32,60,,,,,,,,,,,,,,,,,,,,,1,0,340,152,1,339,ratio19_2_20_6.png,,,,,,,,,,,,
,,,,,,,,,,,,Less than half,All,More than half,Few,Half,Many,None,Some,Most,0.587402388,-0.003906265,1,0,0,QQQ2,,,,,,,,English,2020-07-02_11h57.34.626,Experiment_English,3.2.4,Win32,60,,,,,,,,,,,,,,,,,,,,,1,0,340,53,1,339,ratioX0_14_14_8.png,,,,,,,,,,,,
,,,,,,,,,,,,Few,None,Many,Some,Less than half,Half,More than half,All,Most,0.471516968,-0.313802108,1,0,0,QQQ3,,,,,,,,English,2020-07-02_11h57.34.626,Experiment_English,3.2.4,Win32,60,,,,,,,,,,,,,,,,,,,,,1,0,340,305,1,339,ratio51_5_6_14.png,,,,,,,,,,,,
,,,,,,,,,,,,Many,Some,Few,Half,None,All,Most,Less than half,More than half,0.446777384,0.005208319,1,0,0,QQQ2,,,,,,,,English,2020-07-02_11h57.34.626,Experiment_English,3.2.4,Win32,60,,,,,,,,,,,,,,,,,,,,,1,0,340,20,1,339,ratio11_2_4_3.png,,,,,,,,,,,,
,,,,,,,,,,,,Most,More than half,None,Many,Less than half,Some,Half,All,Few,-0.433430976,-0.27994794,1,0,0,QQQ9,,,,,,,,English,2020-07-02_11h57.34.626,Experiment_English,3.2.4,Win32,60,,,,,,,,,,,,,,,,,,,,,1,0,340,264,1,339,ratio41_4_5_6.png,,,,,,,,,,,,
,,,,,,,,,,,,None,Few,Most,Half,Some,Less than half,More than half,All,Many,-0.036295547,-0.032552139,1,0,0,QQQ5,,,,,,,,English,2020-07-02_11h57.34.626,Experiment_English,3.2.4,Win32,60,,,,,,,,,,,,,,,,,,,,,1,0,340,250,1,339,ratio34_6_14_1.png,,,,,,,,,,,,
,,,,,,,,,,,,Half,Less than half,Most,Some,All,More than half,Many,Few,None,-0.438639309,0.252604159,1,0,0,QQQ7,,,,,,,,English,2020-07-02_11h57.34.626,Experiment_English,3.2.4,Win32,60,,,,,,,,,,,,,,,,,,,,,1,0,340,217,1,339,ratio31_15_20_5.png,,,,,,,,,,,,
,,,,,,,,,,,,All,Some,Most,None,Half,Few,Less than half,Many,More than half,0.478027384,-0.014322932,1,0,0,QQQ2,,,,,,,,English,2020-07-02_11h57.34.626,Experiment_English,3.2.4,Win32,60,,,,,,,,,,,,,,,,,,,,,1,0,340,299,1,339,ratio43_8_14_17.png,,,,,,,,,,,,
,,,,,,,,,,,,Half,Less than half,Many,More than half,None,Some,Most,All,Few,0.4454753,-0.27213544,1,0,0,QQQ3,,,,,,,,English,2020-07-02_11h57.34.626,Experiment_English,3.2.4,Win32,60,,,,,,,,,,,,,,,,,,,,,1,0,340,331,1,339,ratio91_18_20_3.png,,,,,,,,,,,,
,,,,,,,,,,,,None,Most,All,Few,Many,Less than half,More than half,Some,Half,0.159016958,0.285156244,1,0,0,QQQ4,,,,,,,,English,2020-07-02_11h57.34.626,Experiment_English,3.2.4,Win32,60,,,,,,,,,,,,,,,,,,,,,1,0,340,88,1,339,ratio13_3_12_5.png,,,,,,,,,,,,
,,,,,,,,,,,,All,None,Half,Few,Less than half,Some,Many,Most,More than half,-0.061035132,0.292968744,1,0,0,QQQ4,,,,,,,,English,2020-07-02_11h57.34.626,Experiment_English,3.2.4,Win32,60,,,,,,,,,,,,,,,,,,,,,1,0,340,140,1,339,ratio19_1_10_1.png,,,,,,,,,,,,
,,,,,,,,,,,,All,Few,Most,Many,Some,None,More than half,Less than half,Half,0.060058622,0.031249986,1,0,0,QQQ5,,,,,,,,English,2020-07-02_11h57.34.626,Experiment_English,3.2.4,Win32,60,,,,,,,,,,,,,,,,,,,,,1,0,340,169,1,339,ratio21_6_9_7.png,,,,,,,,,,,,
,,,,,,,,,,,,Many,None,More than half,Less than half,Most,Few,Half,All,Some,-0.01806638,-0.020833389,1,0,0,QQQ5,,,,,,,,English,2020-07-02_11h57.34.626,Experiment_English,3.2.4,Win32,60,,,,,,,,,,,,,,,,,,,,,1,0,340,215,1,339,ratio31_12_16_8.png,,,,,,,,,,,,
,,,,,,,,,,,,Some,Many,Few,All,None,Most,More than half,Half,Less than half,0.457194051,-0.292968774,1,0,0,QQQ3,,,,,,,,English,2020-07-02_11h57.34.626,Experiment_English,3.2.4,Win32,60,,,,,,,,,,,,,,,,,,,,,1,0,340,84,1,339,ratio13_2_8_1.png,,,,,,,,,,,,
,,,,,,,,,,,,Less than half,Half,Many,Few,Most,More than half,Some,All,None,-0.382649724,-0.07552089,1,0,0,QQQ8,,,,,,,,English,2020-07-02_11h57.34.626,Experiment_English,3.2.4,Win32,60,,,,,,,,,,,,,,,,,,,,,1,0,340,43,1,339,ratioX0_6_6_9.png,,,,,,,,,,,,
,,,,,,,,,,,,Few,Some,Many,More than half,Less than half,Most,None,All,Half,0.468912801,0.334635402,1,0,0,QQQ1,,,,,,,,English,2020-07-02_11h57.34.626,Experiment_English,3.2.4,Win32,60,,,,,,,,,,,,,,,,,,,,,1,0,340,130,1,339,ratio15_2_12_12.png,,,,,,,,,,,,
,,,,,,,,,,,,Half,Some,Most,More than half,Many,None,Few,Less than half,All,-0.011555963,-0.013020888,1,0,0,QQQ5,,,,,,,,English,2020-07-02_11h57.34.626,Experiment_English,3.2.4,Win32,60,,,,,,,,,,,,,,,,,,,,,1,0,340,196,1,339,ratio23_8_20_5.png,,,,,,,,,,,,
,,,,,,,,,,,,All,Most,Less than half,Few,Half,More than half,None,Some,Many,-0.011555963,-0.013020888,1,0,0,QQQ5,,,,,,,,English,2020-07-02_11h57.34.626,Experiment_English,3.2.4,Win32,60,,,,,,,,,,,,,,,,,,,,,1,0,340,297,1,339,ratio43_8_14_13.png,,,,,,,,,,,,
,,,,,,,,,,,,None,More than half,Few,Less than half,Many,Most,All,Half,Some,-0.011555963,-0.013020888,1,0,0,QQQ5,,,,,,,,English,2020-07-02_11h57.34.626,Experiment_English,3.2.4,Win32,60,,,,,,,,,,,,,,,,,,,,,1,0,340,35,1,339,ratio11_8_16_10.png,,,,,,,,,,,,
,,,,,,,,,,,,Few,Less than half,Half,More than half,None,Some,All,Many,Most,-0.489420561,0.003906235,1,0,0,QQQ8,,,,,,,,English,2020-07-02_11h57.34.626,Experiment_English,3.2.4,Win32,60,,,,,,,,,,,,,,,,,,,,,1,0,340,266,1,339,ratio41_8_10_2.png,,,,,,,,,,,,
,,,,,,,,,,,,Most,Half,All,Few,More than half,Some,Less than half,None,Many,-0.378743474,-0.227864605,1,0,0,QQQ9,,,,,,,,English,2020-07-02_11h57.34.626,Experiment_English,3.2.4,Win32,60,,,,,,,,,,,,,,,,,,,,,1,0,340,326,1,339,ratio91_9_10_10.png,,,,,,,,,,,,
,,,,,,,,,,,,None,Half,Less than half,All,Some,Few,Many,More than half,Most,-0.426920559,-0.296875024,1,0,0,QQQ9,,,,,,,,English,2020-07-02_11h57.34.626,Experiment_English,3.2.4,Win32,60,,,,,,,,,,,,,,,,,,,,,1,0,340,287,1,339,ratio43_4_7_17.png,,,,,,,,,,,,
,,,,,,,,,,,,Few,Less than half,All,Some,Most,Half,More than half,Many,None,-0.042805964,-0.006510432,1,0,0,QQQ5,,,,,,,,English,2020-07-02_11h57.34.626,Experiment_English,3.2.4,Win32,60,,,,,,,,,,,,,,,,,,,,,1,0,340,207,1,339,ratio31_6_8_9.png,,,,,,,,,,,,
,,,,,,,,,,,,Many,More than half,Some,Less than half,All,Half,None,Most,Few,-0.479003894,-0.018229182,1,0,0,QQQ8,,,,,,,,English,2020-07-02_11h57.34.626,Experiment_English,3.2.4,Win32,60,,,,,,,,,,,,,,,,,,,,,1,0,340,272,1,339,ratio41_12_15_7.png,,,,,,,,,,,,
,,,,,,,,,,,,Less than half,Most,All,Some,Many,Few,None,Half,More than half,0.002766954,-0.024739639,1,0,0,QQQ5,,,,,,,,English,2020-07-02_11h57.34.626,Experiment_English,3.2.4,Win32,60,,,,,,,,,,,,,,,,,,,,,1,0,340,261,1,339,ratio41_4_5_3.png,,,,,,,,,,,,
,,,,,,,,,,,,Few,Less than half,More than half,All,Some,Many,None,Half,Most,-0.023274714,-0.248697939,1,0,0,QQQ6,,,,,,,,English,2020-07-02_11h57.34.626,Experiment_English,3.2.4,Win32,60,,,,,,,,,,,,,,,,,,,,,1,0,340,112,1,339,ratio14_3_15_4.png,,,,,,,,,,,,
,,,,,,,,,,,,Half,Some,All,Less than half,None,More than half,Most,Many,Few,-0.506347645,-0.007812515,1,0,0,QQQ8,,,,,,,,English,2020-07-02_11h57.34.626,Experiment_English,3.2.4,Win32,60,,,,,,,,,,,,,,,,,,,,,1,0,340,260,1,339,ratio41_4_5_2.png,,,,,,,,,,,,
,,,,,,,,,,,,Half,Some,Most,More than half,None,Less than half,Few,Many,All,-0.468587227,-0.026041682,1,0,0,QQQ8,,,,,,,,English,2020-07-02_11h57.34.626,Experiment_English,3.2.4,Win32,60,,,,,,,,,,,,,,,,,,,,,1,0,340,235,1,339,ratio32_12_20_1.png,,,,,,,,,,,,
,,,,,,,,,,,,Many,Some,Less than half,More than half,All,Few,None,Half,Most,-0.439941393,-0.236979189,1,0,0,QQQ9,,,,,,,,English,2020-07-02_11h57.34.626,Experiment_English,3.2.4,Win32,60,,,,,,,,,,,,,,,,,,,,,1,0,340,316,1,339,ratio51_15_18_11.png,,,,,,,,,,,,
,,,,,,,,,,,,Many,All,Less than half,More than half,Half,Most,None,Few,Some,-0.472493477,-0.332031275,1,0,0,QQQ9,,,,,,,,English,2020-07-02_11h57.34.626,Experiment_English,3.2.4,Win32,60,,,,,,,,,,,,,,,,,,,,,1,0,340,25,1,339,ratio11_4_8_10.png,,,,,,,,,,,,
,,,,,,,,,,,,Some,More than half,Few,All,Many,Half,None,Less than half,Most,0.485839885,0.26432291,1,0,0,QQQ1,,,,,,,,English,2020-07-02_11h57.34.626,Experiment_English,3.2.4,Win32,60,,,,,,,,,,,,,,,,,,,,,1,0,340,38,1,339,ratio11_10_20_5.png,,,,,,,,,,,,
,,,,,,,,,,,,Less than half,Many,None,All,Most,Some,More than half,Half,Few,-0.433430976,-0.282552107,1,0,0,QQQ9,,,,,,,,English,2020-07-02_11h57.34.626,Experiment_English,3.2.4,Win32,60,,,,,,,,,,,,,,,,,,,,,1,0,340,249,1,339,ratio34_3_7_20.png,,,,,,,,,,,,
,,,,,,,,,,,,More than half,Less than half,Half,None,All,Some,Many,Few,Most,-0.541503896,0.249999993,1,0,0,QQQ7,,,,,,,,English,2020-07-02_11h57.34.626,Experiment_English,3.2.4,Win32,60,,,,,,,,,,,,,,,,,,,,,1,0,340,178,1,339,ratio21_12_18_2.png,0.316569126,-0.406250027,1,0,0,continue_button_pause,1,0,1,0,1,0
,,,,,,,,,,,,,,,,,,,,,,,,,,,,,,,,,,English,2020-07-02_11h57.34.626,Experiment_English,3.2.4,Win32,60,,,,,,,,,,,,,,,,,,,,,1,0,340,178,1,339,ratio21_12_18_2.png,,,,,,,,,,,,
,,,,,,,,,,,,More than half,Few,Some,Less than half,Many,All,Most,Half,None,0.470214884,-0.042968766,1,0,0,QQQ2,,,,,,,,English,2020-07-02_11h57.34.626,Experiment_English,3.2.4,Win32,60,,,,,,,,,,,,,,,,,,,,,1,0,340,83,1,339,ratio13_1_4_10.png,,,,,,,,,,,,
,,,,,,,,,,,,Few,All,More than half,Many,None,Half,Less than half,Some,Most,0.471516968,-0.016927138,1,0,0,QQQ2,,,,,,,,English,2020-07-02_11h57.34.626,Experiment_English,3.2.4,Win32,60,,,,,,,,,,,,,,,,,,,,,1,0,340,56,1,339,ratioX0_17_17_10.png,,,,,,,,,,,,
,,,,,,,,,,,,Many,All,Half,Less than half,Most,None,Few,Some,More than half,0.054850289,-0.303385441,1,0,0,QQQ6,,,,,,,,English,2020-07-02_11h57.34.626,Experiment_English,3.2.4,Win32,60,,,,,,,,,,,,,,,,,,,,,1,0,340,70,1,339,ratio0Y_0_12_5.png,,,,,,,,,,,,
,,,,,,,,,,,,Most,Few,More than half,Less than half,Half,None,Some,All,Many,0.448079467,-0.003906265,1,0,0,QQQ2,,,,,,,,English,2020-07-02_11h57.34.626,Experiment_English,3.2.4,Win32,60,,,,,,,,,,,,,,,,,,,,,1,0,340,26,1,339,ratio11_5_10_4.png,,,,,,,,,,,,
,,,,,,,,,,,,More than half,Half,Most,None,Less than half,All,Some,Many,Few,-0.425618476,-0.011718765,1,0,0,QQQ8,,,,,,,,English,2020-07-02_11h57.34.626,Experiment_English,3.2.4,Win32,60,,,,,,,,,,,,,,,,,,,,,1,0,340,270,1,339,ratio41_12_15_3.png,,,,,,,,,,,,
,,,,,,,,,,,,Few,All,Half,Less than half,Many,None,More than half,Some,Most,-0.425618476,-0.011718765,1,0,0,QQQ8,,,,,,,,English,2020-07-02_11h57.34.626,Experiment_English,3.2.4,Win32,60,,,,,,,,,,,,,,,,,,,,,1,0,340,163,1,339,ratio21_4_6_1.png,,,,,,,,,,,,
,,,,,,,,,,,,None,Many,Some,Less than half,Half,Most,Few,All,More than half,0.472819051,0.022135402,1,0,0,QQQ2,,,,,,,,English,2020-07-02_11h57.34.626,Experiment_English,3.2.4,Win32,60,,,,,,,,,,,,,,,,,,,,,1,0,340,194,1,339,ratio23_6_15_10.png,,,,,,,,,,,,
,,,,,,,,,,,,Some,Less than half,Half,All,Few,Most,Many,None,More than half,-0.059733048,0.235677056,1,0,0,QQQ4,,,,,,,,English,2020-07-02_11h57.34.626,Experiment_English,3.2.4,Win32,60,,,,,,,,,,,,,,,,,,,,,1,0,340,50,1,339,ratioX0_12_12_3.png,,,,,,,,,,,,
,,,,,,,,,,,,Most,More than half,Few,All,None,Many,Less than half,Some,Half,-0.439941393,-0.001302138,1,0,0,QQQ8,,,,,,,,English,2020-07-02_11h57.34.626,Experiment_English,3.2.4,Win32,60,,,,,,,,,,,,,,,,,,,,,1,0,340,27,1,339,ratio11_5_10_7.png,,,,,,,,,,,,
,,,,,,,,,,,,Less than half,Few,More than half,All,Many,Half,Most,Some,None,-0.428222643,-0.007812515,1,0,0,QQQ8,,,,,,,,English,2020-07-02_11h57.34.626,Experiment_English,3.2.4,Win32,60,,,,,,,,,,,,,,,,,,,,,1,0,340,96,1,339,ratio13_5_20_1.png,,,,,,,,,,,,
,,,,,,,,,,,,All,Less than half,Some,Many,Most,More than half,None,Few,Half,0.037923205,0.320312495,1,0,0,QQQ4,,,,,,,,English,2020-07-02_11h57.34.626,Experiment_English,3.2.4,Win32,60,,,,,,,,,,,,,,,,,,,,,1,0,340,238,1,339,ratio32_12_20_9.png,,,,,,,,,,,,
,,,,,,,,,,,,Many,All,Less than half,Most,More than half,Some,Few,None,Half,0.023600288,0.26432291,1,0,0,QQQ4,,,,,,,,English,2020-07-02_11h57.34.626,Experiment_English,3.2.4,Win32,60,,,,,,,,,,,,,,,,,,,,,1,0,340,172,1,339,ratio21_8_12_6.png,,,,,,,,,,,,
,,,,,,,,,,,,Some,Many,Most,None,Half,Few,More than half,All,Less than half,0.379069128,0.003906235,1,0,0,QQQ2,,,,,,,,English,2020-07-02_11h57.34.626,Experiment_English,3.2.4,Win32,60,,,,,,,,,,,,,,,,,,,,,1,0,340,279,1,339,ratio41_16_20_10.png,,,,,,,,,,,,
,,,,,,,,,,,,Few,Some,Half,None,Most,Less than half,All,More than half,Many,-0.045410131,0.261718743,1,0,0,QQQ4,,,,,,,,English,2020-07-02_11h57.34.626,Experiment_English,3.2.4,Win32,60,,,,,,,,,,,,,,,,,,,,,1,0,340,71,1,339,ratio0Y_0_12_10.png,,,,,,,,,,,,
,,,,,,,,,,,,All,None,Many,Few,Most,Half,Less than half,More than half,Some,-0.045410131,0.261718743,1,0,0,QQQ4,,,,,,,,English,2020-07-02_11h57.34.626,Experiment_English,3.2.4,Win32,60,,,,,,,,,,,,,,,,,,,,,1,0,340,257,1,339,ratio34_6_14_12.png,,,,,,,,,,,,
,,,,,,,,,,,,Less than half,Half,Many,None,All,Some,Few,More than half,Most,-0.439941393,0.322916661,1,0,0,QQQ7,,,,,,,,English,2020-07-02_11h57.34.626,Experiment_English,3.2.4,Win32,60,,,,,,,,,,,,,,,,,,,,,1,0,340,5,1,339,ratio12_2_6_9.png,,,,,,,,,,,,
,,,,,,,,,,,,Half,None,Few,Less than half,All,Most,Some,Many,More than half,0.498860718,-0.294270857,1,0,0,QQQ3,,,,,,,,English,2020-07-02_11h57.34.626,Experiment_English,3.2.4,Win32,60,,,,,,,,,,,,,,,,,,,,,1,0,340,102,1,339,ratio14_1_5_8.png,,,,,,,,,,,,
,,,,,,,,,,,,Half,Many,None,Less than half,More than half,Some,Few,All,Most,0.09000654,-0.290364607,1,0,0,QQQ6,,,,,,,,English,2020-07-02_11h57.34.626,Experiment_English,3.2.4,Win32,60,,,,,,,,,,,,,,,,,,,,,1,0,340,32,1,339,ratio11_7_14_5.png,,,,,,,,,,,,
,,,,,,,,,,,,Most,Few,All,More than half,Less than half,None,Many,Half,Some,-0.455566393,-0.330729191,1,0,0,QQQ9,,,,,,,,English,2020-07-02_11h57.34.626,Experiment_English,3.2.4,Win32,60,,,,,,,,,,,,,,,,,,,,,1,0,340,201,1,339,ratio31_3_4_7.png,,,,,,,,,,,,
,,,,,,,,,,,,None,Few,Many,Half,All,More than half,Less than half,Most,Some,0.415527383,-0.001302138,1,0,0,QQQ2,,,,,,,,English,2020-07-02_11h57.34.626,Experiment_English,3.2.4,Win32,60,,,,,,,,,,,,,,,,,,,,,1,0,340,303,1,339,ratio51_5_6_6.png,,,,,,,,,,,,
,,,,,,,,,,,,Less than half,All,Few,None,More than half,Some,Half,Many,Most,0.457194051,-0.229166688,1,0,0,QQQ3,,,,,,,,English,2020-07-02_11h57.34.626,Experiment_English,3.2.4,Win32,60,,,,,,,,,,,,,,,,,,,,,1,0,340,105,1,339,ratio14_2_10_1.png,,,,,,,,,,,,
,,,,,,,,,,,,Few,All,None,Most,More than half,Less than half,Many,Some,Half,0.000162787,0.001302068,1,0,0,QQQ5,,,,,,,,English,2020-07-02_11h57.34.626,Experiment_English,3.2.4,Win32,60,,,,,,,,,,,,,,,,,,,,,1,0,340,262,1,339,ratio41_4_5_4.png,,,,,,,,,,,,
,,,,,,,,,,,,Half,Less than half,Most,None,More than half,Some,Many,All,Few,-0.536295562,-0.339843775,1,0,0,QQQ9,,,,,,,,English,2020-07-02_11h57.34.626,Experiment_English,3.2.4,Win32,60,,,,,,,,,,,,,,,,,,,,,1,0,340,285,1,339,ratio43_4_7_14.png,,,,,,,,,,,,
,,,,,,,,,,,,Some,Most,Few,Less than half,Many,Half,None,More than half,All,0.54573572,0.295572911,1,0,0,QQQ1,,,,,,,,English,2020-07-02_11h57.34.626,Experiment_English,3.2.4,Win32,60,,,,,,,,,,,,,,,,,,,,,1,0,340,242,1,339,ratio34_3_7_6.png,,,,,,,,,,,,
,,,,,,,,,,,,More than half,Many,Less than half,Half,Some,Few,Most,All,None,-0.053222631,-0.315104191,1,0,0,QQQ6,,,,,,,,English,2020-07-02_11h57.34.626,Experiment_English,3.2.4,Win32,60,,,,,,,,,,,,,,,,,,,,,1,0,340,109,1,339,ratio14_2_10_9.png,,,,,,,,,,,,
,,,,,,,,,,,,Most,All,None,More than half,Less than half,Few,Some,Half,Many,-0.001139296,-0.308593774,1,0,0,QQQ6,,,,,,,,English,2020-07-02_11h57.34.626,Experiment_English,3.2.4,Win32,60,,,,,,,,,,,,,,,,,,,,,1,0,340,22,1,339,ratio11_3_6_6.png,,,,,,,,,,,,
,,,,,,,,,,,,Few,Half,More than half,None,All,Most,Some,Less than half,Many,-0.001139296,-0.308593774,1,0,0,QQQ6,,,,,,,,English,2020-07-02_11h57.34.626,Experiment_English,3.2.4,Win32,60,,,,,,,,,,,,,,,,,,,,,1,0,340,170,1,339,ratio21_6_9_8.png,,,,,,,,,,,,
,,,,,,,,,,,,Many,None,Some,More than half,Half,Most,All,Less than half,Few,-0.396972642,-0.265625023,1,0,0,QQQ9,,,,,,,,English,2020-07-02_11h57.34.626,Experiment_English,3.2.4,Win32,60,,,,,,,,,,,,,,,,,,,,,1,0,340,99,1,339,ratio13_5_20_4.png,,,,,,,,,,,,
,,,,,,,,,,,,Few,All,Most,More than half,Half,None,Many,Less than half,Some,-0.510253895,0.305989578,1,0,0,QQQ7,,,,,,,,English,2020-07-02_11h57.34.626,Experiment_English,3.2.4,Win32,60,,,,,,,,,,,,,,,,,,,,,1,0,340,300,1,339,ratio51_5_6_1.png,,,,,,,,,,,,
,,,,,,,,,,,,None,Some,Many,More than half,Half,Less than half,All,Few,Most,-0.140462217,0.093749988,1,0,0,QQQ5,,,,,,,,English,2020-07-02_11h57.34.626,Experiment_English,3.2.4,Win32,60,,,,,,,,,,,,,,,,,,,,,1,0,340,65,1,339,ratio0Y_0_8_4.png,,,,,,,,,,,,
,,,,,,,,,,,,Few,Most,Many,More than half,None,Half,All,Some,Less than half,0.432454466,0.311197911,1,0,0,QQQ1,,,,,,,,English,2020-07-02_11h57.34.626,Experiment_English,3.2.4,Win32,60,,,,,,,,,,,,,,,,,,,,,1,0,340,197,1,339,ratio23_8_20_6.png,,,,,,,,,,,,
,,,,,,,,,,,,Less than half,Few,None,More than half,Many,Half,Most,Some,All,0.440266967,-0.273437523,1,0,0,QQQ3,,,,,,,,English,2020-07-02_11h57.34.626,Experiment_English,3.2.4,Win32,60,,,,,,,,,,,,,,,,,,,,,1,0,340,61,1,339,ratio0Y_0_4_7.png,,,,,,,,,,,,
,,,,,,,,,,,,None,Few,Less than half,Most,All,More than half,Many,Half,Some,0.082194039,0.252604159,1,0,0,QQQ4,,,,,,,,English,2020-07-02_11h57.34.626,Experiment_English,3.2.4,Win32,60,,,,,,,,,,,,,,,,,,,,,1,0,340,302,1,339,ratio51_5_6_5.png,,,,,,,,,,,,
,,,,,,,,,,,,More than half,Some,All,Less than half,Half,Most,Few,Many,None,-0.364420518,-0.040364639,1,0,0,QQQ8,,,,,,,,English,2020-07-02_11h57.34.626,Experiment_English,3.2.4,Win32,60,,,,,,,,,,,,,,,,,,,,,1,0,340,227,1,339,ratio32_6_10_6.png,0.353027381,-0.38411461,1,0,0,continue_button_pause,1,0,1,0,1,0
,,,,,,,,,,,,,,,,,,,,,,,,,,,,,,,,,,English,2020-07-02_11h57.34.626,Experiment_English,3.2.4,Win32,60,,,,,,,,,,,,,,,,,,,,,1,0,340,227,1,339,ratio32_6_10_6.png,,,,,,,,,,,,
,,,,,,,,,,,,All,Half,Most,Some,Few,Less than half,None,Many,More than half,0.082194039,-0.05208339,1,0,0,QQQ5,,,,,,,,English,2020-07-02_11h57.34.626,Experiment_English,3.2.4,Win32,60,,,,,,,,,,,,,,,,,,,,,1,0,340,138,1,339,ratio15_3_18_17.png,,,,,,,,,,,,
,,,,,,,,,,,,More than half,Few,Less than half,Many,Some,Half,Most,All,None,0.082194039,-0.05208339,1,0,0,QQQ5,,,,,,,,English,2020-07-02_11h57.34.626,Experiment_English,3.2.4,Win32,60,,,,,,,,,,,,,,,,,,,,,1,0,340,221,1,339,ratio32_3_5_3.png,,,,,,,,,,,,
,,,,,,,,,,,,Some,More than half,Few,Many,Half,All,None,Less than half,Most,-0.028483047,0.308593744,1,0,0,QQQ4,,,,,,,,English,2020-07-02_11h57.34.626,Experiment_English,3.2.4,Win32,60,,,,,,,,,,,,,,,,,,,,,1,0,340,205,1,339,ratio31_6_8_2.png,,,,,,,,,,,,
,,,,,,,,,,,,Most,Some,Many,Half,More than half,All,Less than half,None,Few,0.455891967,-0.261718773,1,0,0,QQQ3,,,,,,,,English,2020-07-02_11h57.34.626,Experiment_English,3.2.4,Win32,60,,,,,,,,,,,,,,,,,,,,,1,0,340,313,1,339,ratio51_15_18_2.png,,,,,,,,,,,,
,,,,,,,,,,,,Some,Many,None,Few,Less than half,More than half,Most,All,Half,0.013183621,0.281249993,1,0,0,QQQ4,,,,,,,,English,2020-07-02_11h57.34.626,Experiment_English,3.2.4,Win32,60,,,,,,,,,,,,,,,,,,,,,1,0,340,246,1,339,ratio34_3_7_11.png,,,,,,,,,,,,
,,,,,,,,,,,,Most,Some,None,Many,More than half,All,Half,Less than half,Few,-0.514160145,-0.269531273,1,0,0,QQQ9,,,,,,,,English,2020-07-02_11h57.34.626,Experiment_English,3.2.4,Win32,60,,,,,,,,,,,,,,,,,,,,,1,0,340,159,1,339,ratio19_2_20_20.png,,,,,,,,,,,,
,,,,,,,,,,,,None,All,Half,Less than half,Many,Some,Few,Most,More than half,-0.467285144,0.252604159,1,0,0,QQQ7,,,,,,,,English,2020-07-02_11h57.34.626,Experiment_English,3.2.4,Win32,60,,,,,,,,,,,,,,,,,,,,,1,0,340,243,1,339,ratio34_3_7_8.png,,,,,,,,,,,,
,,,,,,,,,,,,Many,Few,All,None,Some,Most,Half,More than half,Less than half,0.045735705,-0.014322932,1,0,0,QQQ5,,,,,,,,English,2020-07-02_11h57.34.626,Experiment_English,3.2.4,Win32,60,,,,,,,,,,,,,,,,,,,,,1,0,340,176,1,339,ratio21_10_15_3.png,,,,,,,,,,,,
,,,,,,,,,,,,None,Few,Many,Some,All,Most,Less than half,More than half,Half,0.007975287,-0.263020856,1,0,0,QQQ6,,,,,,,,English,2020-07-02_11h57.34.626,Experiment_English,3.2.4,Win32,60,,,,,,,,,,,,,,,,,,,,,1,0,340,226,1,339,ratio32_6_10_5.png,,,,,,,,,,,,
,,,,,,,,,,,,Many,Half,Some,None,Most,Less than half,All,Few,More than half,-0.497233061,-0.014322932,1,0,0,QQQ8,,,,,,,,English,2020-07-02_11h57.34.626,Experiment_English,3.2.4,Win32,60,,,,,,,,,,,,,,,,,,,,,1,0,340,162,1,339,ratio21_2_3_9.png,,,,,,,,,,,,
,,,,,,,,,,,,Less than half,Some,None,All,Half,Many,More than half,Most,Few,0.061360705,0.304687494,1,0,0,QQQ4,,,,,,,,English,2020-07-02_11h57.34.626,Experiment_English,3.2.4,Win32,60,,,,,,,,,,,,,,,,,,,,,1,0,340,44,1,339,ratioX0_7_7_5.png,,,,,,,,,,,,
,,,,,,,,,,,,Few,Some,Many,All,None,Half,Most,More than half,Less than half,0.372558631,-0.029947932,1,0,0,QQQ2,,,,,,,,English,2020-07-02_11h57.34.626,Experiment_English,3.2.4,Win32,60,,,,,,,,,,,,,,,,,,,,,1,0,340,203,1,339,ratio31_3_4_9.png,,,,,,,,,,,,
,,,,,,,,,,,,Most,Some,None,Less than half,Half,Few,All,More than half,Many,0.023600288,-0.313802108,1,0,0,QQQ6,,,,,,,,English,2020-07-02_11h57.34.626,Experiment_English,3.2.4,Win32,60,,,,,,,,,,,,,,,,,,,,,1,0,340,248,1,339,ratio34_3_7_19.png,,,,,,,,,,,,
,,,,,,,,,,,,None,Most,Many,Few,Some,Less than half,Half,More than half,All,0.410319129,0.010416652,1,0,0,QQQ2,,,,,,,,English,2020-07-02_11h57.34.626,Experiment_English,3.2.4,Win32,60,,,,,,,,,,,,,,,,,,,,,1,0,340,198,1,339,ratio23_8_20_7.png,,,,,,,,,,,,
,,,,,,,,,,,,Most,None,More than half,Many,Few,Some,All,Half,Less than half,0.063964872,0.248697909,1,0,0,QQQ4,,,,,,,,English,2020-07-02_11h57.34.626,Experiment_English,3.2.4,Win32,60,,,,,,,,,,,,,,,,,,,,,1,0,340,284,1,339,ratio43_4_7_11.png,,,,,,,,,,,,
,,,,,,,,,,,,None,Less than half,Some,Most,More than half,Half,Many,Few,All,0.063964872,0.248697909,1,0,0,QQQ4,,,,,,,,English,2020-07-02_11h57.34.626,Experiment_English,3.2.4,Win32,60,,,,,,,,,,,,,,,,,,,,,1,0,340,231,1,339,ratio32_9_15_2.png,,,,,,,,,,,,
,,,,,,,,,,,,Some,More than half,None,Less than half,Many,Few,Most,All,Half,0.398600378,-0.300781274,1,0,0,QQQ3,,,,,,,,English,2020-07-02_11h57.34.626,Experiment_English,3.2.4,Win32,60,,,,,,,,,,,,,,,,,,,,,1,0,340,76,1,339,ratio0Y_0_17_10.png,,,,,,,,,,,,
,,,,,,,,,,,,Half,None,Most,Few,More than half,All,Some,Many,Less than half,0.075683623,-0.269531273,1,0,0,QQQ6,,,,,,,,English,2020-07-02_11h57.34.626,Experiment_English,3.2.4,Win32,60,,,,,,,,,,,,,,,,,,,,,1,0,340,49,1,339,ratioX0_11_11_2.png,,,,,,,,,,,,
,,,,,,,,,,,,Some,Many,None,Half,Less than half,Few,All,More than half,Most,-0.464680977,-0.019531265,1,0,0,QQQ8,,,,,,,,English,2020-07-02_11h57.34.626,Experiment_English,3.2.4,Win32,60,,,,,,,,,,,,,,,,,,,,,1,0,340,320,1,339,ratio91_9_10_1.png,,,,,,,,,,,,
,,,,,,,,,,,,Few,Less than half,More than half,Half,Some,All,Most,Many,None,-0.019368464,-0.07161464,1,0,0,QQQ5,,,,,,,,English,2020-07-02_11h57.34.626,Experiment_English,3.2.4,Win32,60,,,,,,,,,,,,,,,,,,,,,1,0,340,156,1,339,ratio19_2_20_14.png,,,,,,,,,,,,
,,,,,,,,,,,,Many,Less than half,None,Most,Some,Few,All,Half,More than half,-0.019368464,-0.07161464,1,0,0,QQQ5,,,,,,,,English,2020-07-02_11h57.34.626,Experiment_English,3.2.4,Win32,60,,,,,,,,,,,,,,,,,,,,,1,0,340,15,1,339,ratio12_5_15_5.png,,,,,,,,,,,,
,,,,,,,,,,,,Many,All,Few,Less than half,None,Half,More than half,Some,Most,0.442871133,-0.321614608,1,0,0,QQQ3,,,,,,,,English,2020-07-02_11h57.34.626,Experiment_English,3.2.4,Win32,60,,,,,,,,,,,,,,,,,,,,,1,0,340,132,1,339,ratio15_2_12_16.png,,,,,,,,,,,,
,,,,,,,,,,,,Many,Some,Half,Most,More than half,Less than half,Few,None,All,0.034016955,0.007812485,1,0,0,QQQ5,,,,,,,,English,2020-07-02_11h57.34.626,Experiment_English,3.2.4,Win32,60,,,,,,,,,,,,,,,,,,,,,1,0,340,265,1,339,ratio41_8_10_1.png,,,,,,,,,,,,
,,,,,,,,,,,,Half,Some,Less than half,Many,None,All,More than half,Most,Few,-0.568847647,0.296874994,1,0,0,QQQ7,,,,,,,,English,2020-07-02_11h57.34.626,Experiment_English,3.2.4,Win32,60,,,,,,,,,,,,,,,,,,,,,1,0,340,306,1,339,ratio51_5_6_18.png,,,,,,,,,,,,
,,,,,,,,,,,,Many,All,Less than half,Some,Half,Most,Few,None,More than half,0.014485704,0.259114576,1,0,0,QQQ4,,,,,,,,English,2020-07-02_11h57.34.626,Experiment_English,3.2.4,Win32,60,,,,,,,,,,,,,,,,,,,,,1,0,340,17,1,339,ratio12_6_18_5.png,,,,,,,,,,,,
,,,,,,,,,,,,Most,Some,Few,Less than half,Half,More than half,All,Many,None,-0.529785146,-1.4912E-08,1,0,0,QQQ8,,,,,,,,English,2020-07-02_11h57.34.626,Experiment_English,3.2.4,Win32,60,,,,,,,,,,,,,,,,,,,,,1,0,340,175,1,339,ratio21_10_15_2.png,,,,,,,,,,,,
,,,,,,,,,,,,Less than half,Most,All,Half,More than half,None,Few,Many,Some,-0.436035143,0.259114576,1,0,0,QQQ7,,,,,,,,English,2020-07-02_11h57.34.626,Experiment_English,3.2.4,Win32,60,,,,,,,,,,,,,,,,,,,,,1,0,340,82,1,339,ratio13_1_4_7.png,,,,,,,,,,,,
,,,,,,,,,,,,All,Half,Some,Less than half,More than half,None,Many,Few,Most,-0.443847643,0.26432291,1,0,0,QQQ7,,,,,,,,English,2020-07-02_11h57.34.626,Experiment_English,3.2.4,Win32,60,,,,,,,,,,,,,,,,,,,,,1,0,340,164,1,339,ratio21_4_6_6.png,,,,,,,,,,,,
,,,,,,,,,,,,Half,Few,Many,None,Some,More than half,Most,All,Less than half,-0.443847643,0.26432291,1,0,0,QQQ7,,,,,,,,English,2020-07-02_11h57.34.626,Experiment_English,3.2.4,Win32,60,,,,,,,,,,,,,,,,,,,,,1,0,340,166,1,339,ratio21_6_9_1.png,,,,,,,,,,,,
,,,,,,,,,,,,None,Some,Few,More than half,Many,Half,Most,All,Less than half,0.566569054,-0.250000022,1,0,0,QQQ3,,,,,,,,English,2020-07-02_11h57.34.626,Experiment_English,3.2.4,Win32,60,,,,,,,,,,,,,,,,,,,,,1,0,340,90,1,339,ratio13_3_12_7.png,,,,,,,,,,,,
,,,,,,,,,,,,Some,More than half,None,Many,Most,All,Less than half,Half,Few,-0.541503896,-0.269531273,1,0,0,QQQ9,,,,,,,,English,2020-07-02_11h57.34.626,Experiment_English,3.2.4,Win32,60,,,,,,,,,,,,,,,,,,,,,1,0,340,126,1,339,ratio15_2_12_1.png,,,,,,,,,,,,
,,,,,,,,,,,,Many,Less than half,None,More than half,Half,Some,Most,All,Few,-0.541503896,-0.269531273,1,0,0,QQQ9,,,,,,,,English,2020-07-02_11h57.34.626,Experiment_English,3.2.4,Win32,60,,,,,,,,,,,,,,,,,,,,,1,0,340,143,1,339,ratio19_1_10_9.png,,,,,,,,,,,,
,,,,,,,,,,,,More than half,Less than half,None,Most,Few,All,Some,Many,Half,-0.083170549,0.007812485,1,0,0,QQQ5,,,,,,,,English,2020-07-02_11h57.34.626,Experiment_English,3.2.4,Win32,60,,,,,,,,,,,,,,,,,,,,,1,0,340,116,1,339,ratio14_4_20_3.png,,,,,,,,,,,,
,,,,,,,,,,,,Most,All,More than half,Many,Some,Less than half,Half,Few,None,-0.463378894,0.018229152,1,0,0,QQQ8,,,,,,,,English,2020-07-02_11h57.34.626,Experiment_English,3.2.4,Win32,60,,,,,,,,,,,,,,,,,,,,,1,0,340,146,1,339,ratio19_1_10_17.png,0.328287876,-0.382812526,1,0,0,continue_button_pause,1,0,1,0,1,0
,,,,,,,,,,,,,,,,,,,,,,,,,,,,,,,,,,English,2020-07-02_11h57.34.626,Experiment_English,3.2.4,Win32,60,,,,,,,,,,,,,,,,,,,,,1,0,340,146,1,339,ratio19_1_10_17.png,,,,,,,,,,,,
,,,,,,,,,,,,More than half,Half,Most,All,Few,Less than half,Many,None,Some,0.095214873,-0.045572933,1,0,0,QQQ5,,,,,,,,English,2020-07-02_11h57.34.626,Experiment_English,3.2.4,Win32,60,,,,,,,,,,,,,,,,,,,,,1,0,340,106,1,339,ratio14_2_10_2.png,,,,,,,,,,,,
,,,,,,,,,,,,Some,Half,Most,Few,None,More than half,Many,All,Less than half,-0.015462214,-0.05598964,1,0,0,QQQ5,,,,,,,,English,2020-07-02_11h57.34.626,Experiment_English,3.2.4,Win32,60,,,,,,,,,,,,,,,,,,,,,1,0,340,63,1,339,ratio0Y_0_6_8.png,,,,,,,,,,,,
,,,,,,,,,,,,None,Many,Most,More than half,Few,Less than half,Half,Some,All,-0.031087214,-0.06380214,1,0,0,QQQ5,,,,,,,,English,2020-07-02_11h57.34.626,Experiment_English,3.2.4,Win32,60,,,,,,,,,,,,,,,,,,,,,1,0,340,141,1,339,ratio19_1_10_2.png,,,,,,,,,,,,
,,,,,,,,,,,,More than half,All,Most,Half,Less than half,Few,Many,None,Some,0.030110704,-0.28385419,1,0,0,QQQ6,,,,,,,,English,2020-07-02_11h57.34.626,Experiment_English,3.2.4,Win32,60,,,,,,,,,,,,,,,,,,,,,1,0,340,134,1,339,ratio15_3_18_5.png,,,,,,,,,,,,
,,,,,,,,,,,,None,Some,Half,Few,Many,Less than half,Most,More than half,All,0.467610718,0.243489556,1,0,0,QQQ1,,,,,,,,English,2020-07-02_11h57.34.626,Experiment_English,3.2.4,Win32,60,,,,,,,,,,,,,,,,,,,,,1,0,340,62,1,339,ratio0Y_0_5_4.png,,,,,,,,,,,,
,,,,,,,,,,,,Less than half,Most,All,Many,Some,More than half,Few,Half,None,0.123860707,0.252604159,1,0,0,QQQ4,,,,,,,,English,2020-07-02_11h57.34.626,Experiment_English,3.2.4,Win32,60,,,,,,,,,,,,,,,,,,,,,1,0,340,267,1,339,ratio41_8_10_4.png,,,,,,,,,,,,
,,,,,,,,,,,,All,Less than half,Half,Few,Most,Some,More than half,None,Many,0.123860707,0.252604159,1,0,0,QQQ4,,,,,,,,English,2020-07-02_11h57.34.626,Experiment_English,3.2.4,Win32,60,,,,,,,,,,,,,,,,,,,,,1,0,340,142,1,339,ratio19_1_10_6.png,,,,,,,,,,,,
,,,,,,,,,,,,Some,Few,Half,Less than half,All,More than half,None,Most,Many,0.496256552,-0.016927138,1,0,0,QQQ2,,,,,,,,English,2020-07-02_11h57.34.626,Experiment_English,3.2.4,Win32,60,,,,,,,,,,,,,,,,,,,,,1,0,340,128,1,339,ratio15_2_12_8.png,,,,,,,,,,,,
,,,,,,,,,,,,None,Few,All,Some,Most,More than half,Half,Less than half,Many,0.496256552,-0.016927138,1,0,0,QQQ2,,,,,,,,English,2020-07-02_11h57.34.626,Experiment_English,3.2.4,Win32,60,,,,,,,,,,,,,,,,,,,,,1,0,340,145,1,339,ratio19_1_10_15.png,,,,,,,,,,,,
,,,,,,,,,,,,Most,Half,Some,None,All,Less than half,Many,Few,More than half,0.491048218,0.303385411,1,0,0,QQQ1,,,,,,,,English,2020-07-02_11h57.34.626,Experiment_English,3.2.4,Win32,60,,,,,,,,,,,,,,,,,,,,,1,0,340,319,1,339,ratio51_15_18_20.png,,,,,,,,,,,,
,,,,,,,,,,,,Half,None,All,Few,Many,Less than half,Some,Most,More than half,0.492350302,-0.274739606,1,0,0,QQQ3,,,,,,,,English,2020-07-02_11h57.34.626,Experiment_English,3.2.4,Win32,60,,,,,,,,,,,,,,,,,,,,,1,0,340,45,1,339,ratioX0_8_8_3.png,,,,,,,,,,,,
,,,,,,,,,,,,Most,Less than half,Half,Few,All,Many,None,Some,More than half,0.507975302,0.26822916,1,0,0,QQQ1,,,,,,,,English,2020-07-02_11h57.34.626,Experiment_English,3.2.4,Win32,60,,,,,,,,,,,,,,,,,,,,,1,0,340,277,1,339,ratio41_16_20_8.png,,,,,,,,,,,,
,,,,,,,,,,,,All,Some,Many,Few,Less than half,Half,None,Most,More than half,-0.502441395,-0.013020888,1,0,0,QQQ8,,,,,,,,English,2020-07-02_11h57.34.626,Experiment_English,3.2.4,Win32,60,,,,,,,,,,,,,,,,,,,,,1,0,340,212,1,339,ratio31_12_16_1.png,,,,,,,,,,,,
,,,,,,,,,,,,Few,Most,More than half,Many,None,Less than half,Half,All,Some,-0.023274714,0.302083327,1,0,0,QQQ4,,,,,,,,English,2020-07-02_11h57.34.626,Experiment_English,3.2.4,Win32,60,,,,,,,,,,,,,,,,,,,,,1,0,340,289,1,339,ratio43_4_7_20.png,,,,,,,,,,,,
,,,,,,,,,,,,Few,Half,Some,Less than half,Many,Most,More than half,All,None,0.461100301,0.308593744,1,0,0,QQQ1,,,,,,,,English,2020-07-02_11h57.34.626,Experiment_English,3.2.4,Win32,60,,,,,,,,,,,,,,,,,,,,,1,0,340,117,1,339,ratio14_4_20_6.png,,,,,,,,,,,,
,,,,,,,,,,,,Half,Most,Less than half,More than half,Few,All,Many,None,Some,0.497558635,0.026041653,1,0,0,QQQ2,,,,,,,,English,2020-07-02_11h57.34.626,Experiment_English,3.2.4,Win32,60,,,,,,,,,,,,,,,,,,,,,1,0,340,330,1,339,ratio91_18_20_2.png,,,,,,,,,,,,
,,,,,,,,,,,,Most,Less than half,Many,More than half,Half,None,Few,Some,All,0.519694052,-0.337239608,1,0,0,QQQ3,,,,,,,,English,2020-07-02_11h57.34.626,Experiment_English,3.2.4,Win32,60,,,,,,,,,,,,,,,,,,,,,1,0,340,253,1,339,ratio34_6_14_5.png,,,,,,,,,,,,
,,,,,,,,,,,,More than half,All,Many,Some,Half,Few,Most,Less than half,None,0.028808621,-0.282552107,1,0,0,QQQ6,,,,,,,,English,2020-07-02_11h57.34.626,Experiment_English,3.2.4,Win32,60,,,,,,,,,,,,,,,,,,,,,1,0,340,240,1,339,ratio34_3_7_4.png,,,,,,,,,,,,
,,,,,,,,,,,,Half,Most,All,More than half,None,Many,Less than half,Some,Few,0.028808621,-0.282552107,1,0,0,QQQ6,,,,,,,,English,2020-07-02_11h57.34.626,Experiment_English,3.2.4,Win32,60,,,,,,,,,,,,,,,,,,,,,1,0,340,322,1,339,ratio91_9_10_3.png,,,,,,,,,,,,
,,,,,,,,,,,,Most,None,Some,Few,Less than half,More than half,Many,Half,All,0.015787787,0.27213541,1,0,0,QQQ4,,,,,,,,English,2020-07-02_11h57.34.626,Experiment_English,3.2.4,Win32,60,,,,,,,,,,,,,,,,,,,,,1,0,340,127,1,339,ratio15_2_12_2.png,,,,,,,,,,,,
,,,,,,,,,,,,More than half,Many,Most,Half,None,Some,Less than half,Few,All,0.471516968,-0.032552139,1,0,0,QQQ2,,,,,,,,English,2020-07-02_11h57.34.626,Experiment_English,3.2.4,Win32,60,,,,,,,,,,,,,,,,,,,,,1,0,340,255,1,339,ratio34_6_14_10.png,,,,,,,,,,,,
,,,,,,,,,,,,More than half,Most,All,Many,Some,Less than half,Few,Half,None,-0.432128893,0.320312495,1,0,0,QQQ7,,,,,,,,English,2020-07-02_11h57.34.626,Experiment_English,3.2.4,Win32,60,,,,,,,,,,,,,,,,,,,,,1,0,340,4,1,339,ratio12_2_6_5.png,,,,,,,,,,,,
,,,,,,,,,,,,More than half,Few,Half,None,Most,Less than half,Many,All,Some,0.475423218,0.007812485,1,0,0,QQQ2,,,,,,,,English,2020-07-02_11h57.34.626,Experiment_English,3.2.4,Win32,60,,,,,,,,,,,,,,,,,,,,,1,0,340,125,1,339,ratio15_1_6_19.png,,,,,,,,,,,,
,,,,,,,,,,,,More than half,All,Half,Most,Many,Some,Few,Less than half,None,-0.016764297,0.013020819,1,0,0,QQQ5,,,,,,,,English,2020-07-02_11h57.34.626,Experiment_English,3.2.4,Win32,60,,,,,,,,,,,,,,,,,,,,,1,0,340,206,1,339,ratio31_6_8_6.png,,,,,,,,,,,,
,,,,,,,,,,,,Some,Half,Few,Less than half,Most,More than half,None,Many,All,-0.074055965,0.011718735,1,0,0,QQQ5,,,,,,,,English,2020-07-02_11h57.34.626,Experiment_English,3.2.4,Win32,60,,,,,,,,,,,,,,,,,,,,,1,0,340,336,1,339,ratio91_18_20_12.png,,,,,,,,,,,,
,,,,,,,,,,,,Some,More than half,Half,Few,Many,Less than half,All,None,Most,0.023600288,0.329427078,1,0,0,QQQ4,,,,,,,,English,2020-07-02_11h57.34.626,Experiment_English,3.2.4,Win32,60,,,,,,,,,,,,,,,,,,,,,1,0,340,158,1,339,ratio19_2_20_17.png,,,,,,,,,,,,
,,,,,,,,,,,,None,Some,All,Many,Most,Less than half,Few,More than half,Half,0.031412788,0.299479161,1,0,0,QQQ4,,,,,,,,English,2020-07-02_11h57.34.626,Experiment_English,3.2.4,Win32,60,,,,,,,,,,,,,,,,,,,,,1,0,340,247,1,339,ratio34_3_7_12.png,,,,,,,,,,,,
,,,,,,,,,,,,Less than half,More than half,Many,All,None,Most,Half,Some,Few,0.027506538,-0.239583355,1,0,0,QQQ6,,,,,,,,English,2020-07-02_11h57.34.626,Experiment_English,3.2.4,Win32,60,,,,,,,,,,,,,,,,,,,,,1,0,340,338,1,339,ratio91_18_20_18.png,,,,,,,,,,,,
,,,,,,,,,,,,Some,More than half,Few,All,None,Most,Many,Less than half,Half,0.024902371,-0.313802108,1,0,0,QQQ6,,,,,,,,English,2020-07-02_11h57.34.626,Experiment_English,3.2.4,Win32,60,,,,,,,,,,,,,,,,,,,,,1,0,340,269,1,339,ratio41_8_10_6.png,,,,,,,,,,,,
,,,,,,,,,,,,None,More than half,Half,Less than half,Most,Few,Some,All,Many,-0.061035132,-0.263020856,1,0,0,QQQ6,,,,,,,,English,2020-07-02_11h57.34.626,Experiment_English,3.2.4,Win32,60,,,,,,,,,,,,,,,,,,,,,1,0,340,14,1,339,ratio12_5_15_4.png,,,,,,,,,,,,
,,,,,,,,,,,,None,Few,Less than half,All,Many,Some,Half,Most,More than half,0.475423218,-0.05989589,1,0,0,QQQ2,,,,,,,,English,2020-07-02_11h57.34.626,Experiment_English,3.2.4,Win32,60,,,,,,,,,,,,,,,,,,,,,1,0,340,110,1,339,ratio14_3_15_2.png,,,,,,,,,,,,
,,,,,,,,,,,,Most,More than half,All,None,Less than half,Many,Some,Half,Few,0.466308634,0.26432291,1,0,0,QQQ1,,,,,,,,English,2020-07-02_11h57.34.626,Experiment_English,3.2.4,Win32,60,,,,,,,,,,,,,,,,,,,,,1,0,340,324,1,339,ratio91_9_10_7.png,,,,,,,,,,,,
,,,,,,,,,,,,Half,None,Many,Few,Some,More than half,Less than half,Most,All,0.050944038,0.255208326,1,0,0,QQQ4,,,,,,,,English,2020-07-02_11h57.34.626,Experiment_English,3.2.4,Win32,60,,,,,,,,,,,,,,,,,,,,,1,0,340,184,1,339,ratio23_2_5_10.png,,,,,,,,,,,,
,,,,,,,,,,,,Most,Some,Few,Half,None,Less than half,More than half,Many,All,0.494954468,-0.316406274,1,0,0,QQQ3,,,,,,,,English,2020-07-02_11h57.34.626,Experiment_English,3.2.4,Win32,60,,,,,,,,,,,,,,,,,,,,,1,0,340,95,1,339,ratio13_4_16_10.png,0.363444127,-0.39583336,1,0,0,continue_button_pause,1,0,1,0,1,0
,,,,,,,,,,,,,,,,,,,,,,,,,,,,,,,,,,English,2020-07-02_11h57.34.626,Experiment_English,3.2.4,Win32,60,,,,,,,,,,,,,,,,,,,,,1,0,340,95,1,339,ratio13_4_16_10.png,,,,,,,,,,,,
,,,,,,,,,,,,Few,All,Half,Most,Some,More than half,Many,None,Less than half,0.480631551,0.231770805,1,0,0,QQQ1,,,,,,,,English,2020-07-02_11h57.34.626,Experiment_English,3.2.4,Win32,60,,,,,,,,,,,,,,,,,,,,,1,0,340,222,1,339,ratio32_3_5_4.png,,,,,,,,,,,,
,,,,,,,,,,,,Less than half,All,More than half,Few,Many,Most,Some,Half,None,0.474121134,0.016927069,1,0,0,QQQ2,,,,,,,,English,2020-07-02_11h57.34.626,Experiment_English,3.2.4,Win32,60,,,,,,,,,,,,,,,,,,,,,1,0,340,55,1,339,ratioX0_16_16_3.png,,,,,,,,,,,,
,,,,,,,,,,,,All,Most,Many,Some,Half,Few,More than half,None,Less than half,0.034016955,-0.278645857,1,0,0,QQQ6,,,,,,,,English,2020-07-02_11h57.34.626,Experiment_English,3.2.4,Win32,60,,,,,,,,,,,,,,,,,,,,,1,0,340,147,1,339,ratio19_1_10_18.png,,,,,,,,,,,,
,,,,,,,,,,,,Few,All,Less than half,None,Half,Most,More than half,Some,Many,-0.02197263,-0.29166669,1,0,0,QQQ6,,,,,,,,English,2020-07-02_11h57.34.626,Experiment_English,3.2.4,Win32,60,,,,,,,,,,,,,,,,,,,,,1,0,340,296,1,339,ratio43_8_14_12.png,,,,,,,,,,,,
,,,,,,,,,,,,More than half,Many,Half,Most,None,All,Few,Less than half,Some,0.446777384,-0.019531265,1,0,0,QQQ2,,,,,,,,English,2020-07-02_11h57.34.626,Experiment_English,3.2.4,Win32,60,,,,,,,,,,,,,,,,,,,,,1,0,340,11,1,339,ratio12_4_12_7.png,,,,,,,,,,,,
,,,,,,,,,,,,Some,Less than half,Half,None,More than half,Few,Most,All,Many,0.000162787,-0.244791689,1,0,0,QQQ6,,,,,,,,English,2020-07-02_11h57.34.626,Experiment_English,3.2.4,Win32,60,,,,,,,,,,,,,,,,,,,,,1,0,340,180,1,339,ratio23_2_5_4.png,,,,,,,,,,,,
,,,,,,,,,,,,Some,Many,All,Less than half,More than half,Most,Few,None,Half,0.427246133,-0.007812515,1,0,0,QQQ2,,,,,,,,English,2020-07-02_11h57.34.626,Experiment_English,3.2.4,Win32,60,,,,,,,,,,,,,,,,,,,,,1,0,340,318,1,339,ratio51_15_18_18.png,,,,,,,,,,,,
,,,,,,,,,,,,Most,Many,All,More than half,None,Half,Less than half,Few,Some,0.420735716,-0.013020888,1,0,0,QQQ2,,,,,,,,English,2020-07-02_11h57.34.626,Experiment_English,3.2.4,Win32,60,,,,,,,,,,,,,,,,,,,,,1,0,340,225,1,339,ratio32_6_10_4.png,,,,,,,,,,,,
,,,,,,,,,,,,None,Many,All,Less than half,Most,Some,More than half,Half,Few,0.504069052,0.022135402,1,0,0,QQQ2,,,,,,,,English,2020-07-02_11h57.34.626,Experiment_English,3.2.4,Win32,60,,,,,,,,,,,,,,,,,,,,,1,0,340,136,1,339,ratio15_3_18_8.png,,,,,,,,,,,,
,,,,,,,,,,,,Less than half,More than half,Few,None,Some,Most,Many,All,Half,0.020996121,0.259114576,1,0,0,QQQ4,,,,,,,,English,2020-07-02_11h57.34.626,Experiment_English,3.2.4,Win32,60,,,,,,,,,,,,,,,,,,,,,1,0,340,64,1,339,ratio0Y_0_7_1.png,,,,,,,,,,,,
,,,,,,,,,,,,Less than half,Few,Most,None,More than half,Half,Some,All,Many,0.420735716,-0.013020888,1,0,0,QQQ2,,,,,,,,English,2020-07-02_11h57.34.626,Experiment_English,3.2.4,Win32,60,,,,,,,,,,,,,,,,,,,,,1,0,340,183,1,339,ratio23_2_5_9.png,,,,,,,,,,,,
,,,,,,,,,,,,All,None,Some,Half,Most,Many,More than half,Few,Less than half,0.431152383,-0.255208356,1,0,0,QQQ3,,,,,,,,English,2020-07-02_11h57.34.626,Experiment_English,3.2.4,Win32,60,,,,,,,,,,,,,,,,,,,,,1,0,340,288,1,339,ratio43_4_7_18.png,,,,,,,,,,,,
,,,,,,,,,,,,Less than half,More than half,Few,Many,Some,Half,All,Most,None,-0.443847643,-0.037760433,1,0,0,QQQ8,,,,,,,,English,2020-07-02_11h57.34.626,Experiment_English,3.2.4,Win32,60,,,,,,,,,,,,,,,,,,,,,1,0,340,301,1,339,ratio51_5_6_4.png,,,,,,,,,,,,
,,,,,,,,,,,,Less than half,All,More than half,Some,Half,Many,None,Few,Most,-0.420410142,-0.011718765,1,0,0,QQQ8,,,,,,,,English,2020-07-02_11h57.34.626,Experiment_English,3.2.4,Win32,60,,,,,,,,,,,,,,,,,,,,,1,0,340,182,1,339,ratio23_2_5_7.png,,,,,,,,,,,,
,,,,,,,,,,,,Less than half,Few,All,Half,None,Some,Most,Many,More than half,0.461100301,-0.018229182,1,0,0,QQQ2,,,,,,,,English,2020-07-02_11h57.34.626,Experiment_English,3.2.4,Win32,60,,,,,,,,,,,,,,,,,,,,,1,0,340,108,1,339,ratio14_2_10_6.png,,,,,,,,,,,,
,,,,,,,,,,,,None,Few,More than half,All,Half,Most,Many,Less than half,Some,0.032714871,-0.292968774,1,0,0,QQQ6,,,,,,,,English,2020-07-02_11h57.34.626,Experiment_English,3.2.4,Win32,60,,,,,,,,,,,,,,,,,,,,,1,0,340,29,1,339,ratio11_6_12_1.png,,,,,,,,,,,,
,,,,,,,,,,,,Some,More than half,Most,Few,None,Many,Half,All,Less than half,-0.032389297,0.28385416,1,0,0,QQQ4,,,,,,,,English,2020-07-02_11h57.34.626,Experiment_English,3.2.4,Win32,60,,,,,,,,,,,,,,,,,,,,,1,0,340,6,1,339,ratio12_3_9_1.png,,,,,,,,,,,,
,,,,,,,,,,,,Less than half,Half,All,Many,Most,Some,None,More than half,Few,-0.008951797,0.045572903,1,0,0,QQQ5,,,,,,,,English,2020-07-02_11h57.34.626,Experiment_English,3.2.4,Win32,60,,,,,,,,,,,,,,,,,,,,,1,0,340,312,1,339,ratio51_10_12_16.png,,,,,,,,,,,,
,,,,,,,,,,,,More than half,Half,Less than half,Many,Some,None,Few,All,Most,-0.008951797,0.045572903,1,0,0,QQQ5,,,,,,,,English,2020-07-02_11h57.34.626,Experiment_English,3.2.4,Win32,60,,,,,,,,,,,,,,,,,,,,,1,0,340,254,1,339,ratio34_6_14_9.png,,,,,,,,,,,,
,,,,,,,,,,,,More than half,None,Half,Less than half,All,Some,Few,Most,Many,-0.480305977,-0.014322932,1,0,0,QQQ8,,,,,,,,English,2020-07-02_11h57.34.626,Experiment_English,3.2.4,Win32,60,,,,,,,,,,,,,,,,,,,,,1,0,340,315,1,339,ratio51_15_18_10.png,,,,,,,,,,,,
,,,,,,,,,,,,Less than half,More than half,Half,Most,All,Few,None,Some,Many,-0.480305977,-0.014322932,1,0,0,QQQ8,,,,,,,,English,2020-07-02_11h57.34.626,Experiment_English,3.2.4,Win32,60,,,,,,,,,,,,,,,,,,,,,1,0,340,273,1,339,ratio41_12_15_8.png,,,,,,,,,,,,
,,,,,,,,,,,,All,Less than half,Half,Most,None,Some,More than half,Few,Many,-0.480305977,-0.014322932,1,0,0,QQQ8,,,,,,,,English,2020-07-02_11h57.34.626,Experiment_English,3.2.4,Win32,60,,,,,,,,,,,,,,,,,,,,,1,0,340,185,1,339,ratio23_4_10_1.png,,,,,,,,,,,,
,,,,,,,,,,,,Many,More than half,None,Half,Few,Most,All,Less than half,Some,-0.144368467,0.020833319,1,0,0,QQQ5,,,,,,,,English,2020-07-02_11h57.34.626,Experiment_English,3.2.4,Win32,60,,,,,,,,,,,,,,,,,,,,,1,0,340,97,1,339,ratio13_5_20_2.png,,,,,,,,,,,,
,,,,,,,,,,,,Half,Some,Most,Less than half,None,Many,Few,All,More than half,-0.398274725,0.266927076,1,0,0,QQQ7,,,,,,,,English,2020-07-02_11h57.34.626,Experiment_English,3.2.4,Win32,60,,,,,,,,,,,,,,,,,,,,,1,0,340,8,1,339,ratio12_3_9_4.png,,,,,,,,,,,,
,,,,,,,,,,,,All,Many,Most,None,Half,Some,More than half,Less than half,Few,0.451985717,-0.273437523,1,0,0,QQQ3,,,,,,,,English,2020-07-02_11h57.34.626,Experiment_English,3.2.4,Win32,60,,,,,,,,,,,,,,,,,,,,,1,0,340,334,1,339,ratio91_18_20_9.png,,,,,,,,,,,,
,,,,,,,,,,,,Less than half,More than half,Some,Half,Many,Few,Most,All,None,0.043131538,0.001302068,1,0,0,QQQ5,,,,,,,,English,2020-07-02_11h57.34.626,Experiment_English,3.2.4,Win32,60,,,,,,,,,,,,,,,,,,,,,1,0,340,171,1,339,ratio21_8_12_4.png,,,,,,,,,,,,
,,,,,,,,,,,,Half,More than half,All,Few,Less than half,Some,Many,Most,None,0.075683623,0.255208326,1,0,0,QQQ4,,,,,,,,English,2020-07-02_11h57.34.626,Experiment_English,3.2.4,Win32,60,,,,,,,,,,,,,,,,,,,,,1,0,340,81,1,339,ratio13_1_4_5.png,,,,,,,,,,,,
,,,,,,,,,,,,Few,Less than half,Some,None,All,More than half,Many,Half,Most,0.106933623,0.225260408,1,0,0,QQQ4,,,,,,,,English,2020-07-02_11h57.34.626,Experiment_English,3.2.4,Win32,60,,,,,,,,,,,,,,,,,,,,,1,0,340,74,1,339,ratio0Y_0_15_10.png,,,,,,,,,,,,
,,,,,,,,,,,,Some,Most,Many,More than half,Few,All,Less than half,None,Half,0.483235718,-0.053385433,1,0,0,QQQ2,,,,,,,,English,2020-07-02_11h57.34.626,Experiment_English,3.2.4,Win32,60,,,,,,,,,,,,,,,,,,,,,1,0,340,333,1,339,ratio91_18_20_6.png,,,,,,,,,,,,
,,,,,,,,,,,,Many,Few,Less than half,Half,More than half,None,Most,Some,All,0.556152387,0.274739577,1,0,0,QQQ1,,,,,,,,English,2020-07-02_11h57.34.626,Experiment_English,3.2.4,Win32,60,,,,,,,,,,,,,,,,,,,,,1,0,340,290,1,339,ratio43_8_14_3.png,,,,,,,,,,,,
,,,,,,,,,,,,Less than half,Half,More than half,All,Few,Most,None,Many,Some,-0.051920548,-0.28385419,1,0,0,QQQ6,,,,,,,,English,2020-07-02_11h57.34.626,Experiment_English,3.2.4,Win32,60,,,,,,,,,,,,,,,,,,,,,1,0,340,298,1,339,ratio43_8_14_14.png,,,,,,,,,,,,
,,,,,,,,,,,,Some,All,More than half,Half,Less than half,Most,Many,Few,None,-0.412597642,-0.035156266,1,0,0,QQQ8,,,,,,,,English,2020-07-02_11h57.34.626,Experiment_English,3.2.4,Win32,60,,,,,,,,,,,,,,,,,,,,,1,0,340,135,1,339,ratio15_3_18_7.png,,,,,,,,,,,,
,,,,,,,,,,,,All,Most,Less than half,None,Half,Few,Many,Some,More than half,-0.412597642,-0.035156266,1,0,0,QQQ8,,,,,,,,English,2020-07-02_11h57.34.626,Experiment_English,3.2.4,Win32,60,,,,,,,,,,,,,,,,,,,,,1,0,340,199,1,339,ratio23_8_20_8.png,,,,,,,,,,,,
,,,,,,,,,,,,Some,All,None,Half,Many,More than half,Most,Few,Less than half,-0.502441395,-0.016927138,1,0,0,QQQ8,,,,,,,,English,2020-07-02_11h57.34.626,Experiment_English,3.2.4,Win32,60,,,,,,,,,,,,,,,,,,,,,1,0,340,0,1,339,ratio12_1_3_3.png,0.427246133,-0.394531277,1,0,0,continue_button_pause,1,0,1,0,1,0
,,,,,,,,,,,,,,,,,,,,,,,,,,,,,,,,,,English,2020-07-02_11h57.34.626,Experiment_English,3.2.4,Win32,60,,,,,,,,,,,,,,,,,,,,,1,0,340,0,1,339,ratio12_1_3_3.png,,,,,,,,,,,,
,,,,,,,,,,,,Many,Half,Some,All,Most,More than half,None,Few,Less than half,0.082194039,-0.005208388,1,0,0,QQQ5,,,,,,,,English,2020-07-02_11h57.34.626,Experiment_English,3.2.4,Win32,60,,,,,,,,,,,,,,,,,,,,,1,0,340,173,1,339,ratio21_8_12_9.png,,,,,,,,,,,,
,,,,,,,,,,,,Less than half,Half,Many,All,Few,Some,Most,None,More than half,-0.46988931,0.274739577,1,0,0,QQQ7,,,,,,,,English,2020-07-02_11h57.34.626,Experiment_English,3.2.4,Win32,60,,,,,,,,,,,,,,,,,,,,,1,0,340,216,1,339,ratio31_15_20_3.png,,,,,,,,,,,,
,,,,,,,,,,,,Less than half,Half,Many,More than half,Few,Most,All,Some,None,-0.486816394,0.04427082,1,0,0,QQQ8,,,,,,,,English,2020-07-02_11h57.34.626,Experiment_English,3.2.4,Win32,60,,,,,,,,,,,,,,,,,,,,,1,0,340,308,1,339,ratio51_10_12_9.png,,,,,,,,,,,,
,,,,,,,,,,,,Less than half,Some,Most,More than half,None,Many,Few,Half,All,-0.432128893,0.277343743,1,0,0,QQQ7,,,,,,,,English,2020-07-02_11h57.34.626,Experiment_English,3.2.4,Win32,60,,,,,,,,,,,,,,,,,,,,,1,0,340,28,1,339,ratio11_5_10_9.png,,,,,,,,,,,,
,,,,,,,,,,,,Most,Half,Some,Few,None,Many,All,More than half,Less than half,-0.434733059,0.26432291,1,0,0,QQQ7,,,,,,,,English,2020-07-02_11h57.34.626,Experiment_English,3.2.4,Win32,60,,,,,,,,,,,,,,,,,,,,,1,0,340,41,1,339,ratioX0_4_4_9.png,,,,,,,,,,,,
,,,,,,,,,,,,More than half,Few,Many,None,All,Some,Less than half,Most,Half,-0.025878881,0.006510402,1,0,0,QQQ5,,,,,,,,English,2020-07-02_11h57.34.626,Experiment_English,3.2.4,Win32,60,,,,,,,,,,,,,,,,,,,,,1,0,340,40,1,339,ratioX0_3_3_5.png,,,,,,,,,,,,
,,,,,,,,,,,,Few,All,Half,Some,None,Many,Most,Less than half,More than half,0.481933635,0.29166666,1,0,0,QQQ1,,,,,,,,English,2020-07-02_11h57.34.626,Experiment_English,3.2.4,Win32,60,,,,,,,,,,,,,,,,,,,,,1,0,340,80,1,339,ratio13_1_4_3.png,,,,,,,,,,,,
,,,,,,,,,,,,All,More than half,Many,Some,Less than half,Half,Most,Few,None,-0.534993479,-0.002604182,1,0,0,QQQ8,,,,,,,,English,2020-07-02_11h57.34.626,Experiment_English,3.2.4,Win32,60,,,,,,,,,,,,,,,,,,,,,1,0,340,131,1,339,ratio15_2_12_14.png,,,,,,,,,,,,
,,,,,,,,,,,,Half,None,All,More than half,Few,Some,Most,Many,Less than half,0.011881537,0.029947903,1,0,0,QQQ5,,,,,,,,English,2020-07-02_11h57.34.626,Experiment_English,3.2.4,Win32,60,,,,,,,,,,,,,,,,,,,,,1,0,340,113,1,339,ratio14_3_15_8.png,,,,,,,,,,,,
,,,,,,,,,,,,Many,More than half,Some,Half,All,Few,None,Most,Less than half,0.041829455,-0.289062524,1,0,0,QQQ6,,,,,,,,English,2020-07-02_11h57.34.626,Experiment_English,3.2.4,Win32,60,,,,,,,,,,,,,,,,,,,,,1,0,340,94,1,339,ratio13_4_16_8.png,,,,,,,,,,,,
,,,,,,,,,,,,Few,Less than half,Most,None,More than half,Many,Half,Some,All,-0.463378894,0.27994791,1,0,0,QQQ7,,,,,,,,English,2020-07-02_11h57.34.626,Experiment_English,3.2.4,Win32,60,,,,,,,,,,,,,,,,,,,,,1,0,340,133,1,339,ratio15_3_18_3.png,,,,,,,,,,,,
,,,,,,,,,,,,Less than half,More than half,Some,Few,Many,Most,All,Half,None,-0.092285133,0.337239578,1,0,0,QQQ4,,,,,,,,English,2020-07-02_11h57.34.626,Experiment_English,3.2.4,Win32,60,,,,,,,,,,,,,,,,,,,,,1,0,340,241,1,339,ratio34_3_7_5.png,,,,,,,,,,,,
,,,,,,,,,,,,None,Many,Few,Some,More than half,Most,Less than half,Half,All,0.504069052,-0.339843775,1,0,0,QQQ3,,,,,,,,English,2020-07-02_11h57.34.626,Experiment_English,3.2.4,Win32,60,,,,,,,,,,,,,,,,,,,,,1,0,340,118,1,339,ratio14_4_20_8.png,,,,,,,,,,,,
,,,,,,,,,,,,Less than half,Half,Few,All,More than half,None,Most,Some,Many,0.504069052,-0.339843775,1,0,0,QQQ3,,,,,,,,English,2020-07-02_11h57.34.626,Experiment_English,3.2.4,Win32,60,,,,,,,,,,,,,,,,,,,,,1,0,340,251,1,339,ratio34_6_14_2.png,,,,,,,,,,,,
,,,,,,,,,,,,Most,Less than half,Few,All,None,Some,Half,More than half,Many,0.504069052,-0.339843775,1,0,0,QQQ3,,,,,,,,English,2020-07-02_11h57.34.626,Experiment_English,3.2.4,Win32,60,,,,,,,,,,,,,,,,,,,,,1,0,340,154,1,339,ratio19_2_20_11.png,,,,,,,,,,,,
,,,,,,,,,,,,Less than half,Most,None,Half,Few,More than half,All,Some,Many,0.022298204,0.009114569,1,0,0,QQQ5,,,,,,,,English,2020-07-02_11h57.34.626,Experiment_English,3.2.4,Win32,60,,,,,,,,,,,,,,,,,,,,,1,0,340,150,1,339,ratio19_2_20_1.png,,,,,,,,,,,,
,,,,,,,,,,,,None,Half,Most,More than half,All,Some,Less than half,Many,Few,0.527506553,-0.282552107,1,0,0,QQQ3,,,,,,,,English,2020-07-02_11h57.34.626,Experiment_English,3.2.4,Win32,60,,,,,,,,,,,,,,,,,,,,,1,0,340,317,1,339,ratio51_15_18_13.png,,,,,,,,,,,,
,,,,,,,,,,,,Some,Many,None,More than half,Less than half,Few,Half,All,Most,0.048339872,-0.243489605,1,0,0,QQQ6,,,,,,,,English,2020-07-02_11h57.34.626,Experiment_English,3.2.4,Win32,60,,,,,,,,,,,,,,,,,,,,,1,0,340,160,1,339,ratio21_2_3_2.png,,,,,,,,,,,,
,,,,,,,,,,,,Less than half,None,Half,Some,Few,Most,Many,All,More than half,0.056152372,0.022135402,1,0,0,QQQ5,,,,,,,,English,2020-07-02_11h57.34.626,Experiment_English,3.2.4,Win32,60,,,,,,,,,,,,,,,,,,,,,1,0,340,286,1,339,ratio43_4_7_15.png,,,,,,,,,,,,
,,,,,,,,,,,,Many,Half,Some,Less than half,All,None,Few,More than half,Most,0.462402384,-0.257812523,1,0,0,QQQ3,,,,,,,,English,2020-07-02_11h57.34.626,Experiment_English,3.2.4,Win32,60,,,,,,,,,,,,,,,,,,,,,1,0,340,256,1,339,ratio34_6_14_11.png,,,,,,,,,,,,
,,,,,,,,,,,,More than half,None,Few,Some,All,Many,Most,Half,Less than half,0.475423218,-0.29166669,1,0,0,QQQ3,,,,,,,,English,2020-07-02_11h57.34.626,Experiment_English,3.2.4,Win32,60,,,,,,,,,,,,,,,,,,,,,1,0,340,121,1,339,ratio15_1_6_4.png,,,,,,,,,,,,
,,,,,,,,,,,,None,All,Many,Few,Less than half,More than half,Half,Most,Some,0.007975287,0.26432291,1,0,0,QQQ4,,,,,,,,English,2020-07-02_11h57.34.626,Experiment_English,3.2.4,Win32,60,,,,,,,,,,,,,,,,,,,,,1,0,340,86,1,339,ratio13_2_8_6.png,,,,,,,,,,,,
,,,,,,,,,,,,Many,More than half,All,Most,Few,Some,Half,None,Less than half,0.00146487,0.027343736,1,0,0,QQQ5,,,,,,,,English,2020-07-02_11h57.34.626,Experiment_English,3.2.4,Win32,60,,,,,,,,,,,,,,,,,,,,,1,0,340,186,1,339,ratio23_4_10_2.png,,,,,,,,,,,,
,,,,,,,,,,,,Few,None,More than half,All,Some,Many,Half,Less than half,Most,0.440266967,0.266927076,1,0,0,QQQ1,,,,,,,,English,2020-07-02_11h57.34.626,Experiment_English,3.2.4,Win32,60,,,,,,,,,,,,,,,,,,,,,1,0,340,151,1,339,ratio19_2_20_4.png,,,,,,,,,,,,
,,,,,,,,,,,,Some,More than half,All,Few,Half,Many,Most,None,Less than half,0.009277371,0.292968744,1,0,0,QQQ4,,,,,,,,English,2020-07-02_11h57.34.626,Experiment_English,3.2.4,Win32,60,,,,,,,,,,,,,,,,,,,,,1,0,340,111,1,339,ratio14_3_15_3.png,,,,,,,,,,,,
,,,,,,,,,,,,Less than half,Some,Most,None,More than half,Many,Few,All,Half,-0.536295562,0.317708328,1,0,0,QQQ7,,,,,,,,English,2020-07-02_11h57.34.626,Experiment_English,3.2.4,Win32,60,,,,,,,,,,,,,,,,,,,,,1,0,340,103,1,339,ratio14_1_5_9.png,,,,,,,,,,,,
,,,,,,,,,,,,Few,None,Some,Many,Most,More than half,Less than half,All,Half,0.511881552,0.325520828,1,0,0,QQQ1,,,,,,,,English,2020-07-02_11h57.34.626,Experiment_English,3.2.4,Win32,60,,,,,,,,,,,,,,,,,,,,,1,0,340,104,1,339,ratio14_1_5_10.png,,,,,,,,,,,,
,,,,,,,,,,,,All,More than half,Some,Less than half,Few,Many,Half,Most,None,0.045735705,-0.252604189,1,0,0,QQQ6,,,,,,,,English,2020-07-02_11h57.34.626,Experiment_English,3.2.4,Win32,60,,,,,,,,,,,,,,,,,,,,,1,0,340,233,1,339,ratio32_9_15_9.png,,,,,,,,,,,,
,,,,,,,,,,,,Less than half,Most,More than half,None,Few,All,Some,Half,Many,0.454589884,-0.28776044,1,0,0,QQQ3,,,,,,,,English,2020-07-02_11h57.34.626,Experiment_English,3.2.4,Win32,60,,,,,,,,,,,,,,,,,,,,,1,0,340,339,1,339,ratio91_18_20_19.png,,,,,,,,,,,,
,,,,,,,,,,,,Some,Less than half,Many,All,Most,More than half,Few,None,Half,-0.037597631,-0.007812515,1,0,0,QQQ5,,,,,,,,English,2020-07-02_11h57.34.626,Experiment_English,3.2.4,Win32,60,,,,,,,,,,,,,,,,,,,,,1,0,340,337,1,339,ratio91_18_20_16.png,,,,,,,,,,,,
,,,,,,,,,,,,Most,Many,None,More than half,All,Few,Less than half,Some,Half,-0.01806638,-0.260416689,1,0,0,QQQ6,,,,,,,,English,2020-07-02_11h57.34.626,Experiment_English,3.2.4,Win32,60,,,,,,,,,,,,,,,,,,,,,1,0,340,10,1,339,ratio12_4_12_4.png,,,,,,,,,,,,
,,,,,,,,,,,,None,Less than half,Half,Many,Some,Few,All,Most,More than half,-0.00634763,0.249999993,1,0,0,QQQ4,,,,,,,,English,2020-07-02_11h57.34.626,Experiment_English,3.2.4,Win32,60,,,,,,,,,,,,,,,,,,,,,1,0,340,31,1,339,ratio11_6_12_9.png,,,,,,,,,,,,
,,,,,,,,,,,,None,Few,More than half,Half,Many,Less than half,All,Most,Some,-0.481608061,0.338541652,1,0,0,QQQ7,,,,,,,,English,2020-07-02_11h57.34.626,Experiment_English,3.2.4,Win32,60,,,,,,,,,,,,,,,,,,,,,1,0,340,47,1,339,ratioX0_9_9_4.png,,,,,,,,,,,,
,,,,,,,,,,,,None,Some,Most,More than half,All,Few,Many,Less than half,Half,-0.44645181,0.322916661,1,0,0,QQQ7,,,,,,,,English,2020-07-02_11h57.34.626,Experiment_English,3.2.4,Win32,60,,,,,,,,,,,,,,,,,,,,,1,0,340,195,1,339,ratio23_8_20_1.png,0.320475376,-0.398437527,1,0,0,continue_button_pause,1,0,1,0,1,0
,,,,,,,,,,,,,,,,,,,,,,,,,,,,,,,,,,English,2020-07-02_11h57.34.626,Experiment_English,3.2.4,Win32,60,,,,,,,,,,,,,,,,,,,,,1,0,340,195,1,339,ratio23_8_20_1.png,,,,,,,,,,,,
,,,,,,,,,,,,Less than half,More than half,All,Few,Most,Many,Some,Half,None,-0.007649713,-0.026041682,1,0,0,QQQ5,,,,,,,,English,2020-07-02_11h57.34.626,Experiment_English,3.2.4,Win32,60,,,,,,,,,,,,,,,,,,,,,1,0,340,179,1,339,ratio21_12_18_8.png,,,,,,,,,,,,
,,,,,,,,,,,,Many,More than half,None,Few,All,Half,Some,Most,Less than half,0.011881537,0.251302076,1,0,0,QQQ4,,,,,,,,English,2020-07-02_11h57.34.626,Experiment_English,3.2.4,Win32,60,,,,,,,,,,,,,,,,,,,,,1,0,340,16,1,339,ratio12_5_15_6.png,,,,,,,,,,,,
,,,,,,,,,,,,Few,Most,Half,Many,Less than half,All,More than half,None,Some,0.479329468,0.27213541,1,0,0,QQQ1,,,,,,,,English,2020-07-02_11h57.34.626,Experiment_English,3.2.4,Win32,60,,,,,,,,,,,,,,,,,,,,,1,0,340,165,1,339,ratio21_4_6_10.png,,,,,,,,,,,,
,,,,,,,,,,,,Many,All,Most,Few,More than half,Less than half,Some,None,Half,0.045735705,0.259114576,1,0,0,QQQ4,,,,,,,,English,2020-07-02_11h57.34.626,Experiment_English,3.2.4,Win32,60,,,,,,,,,,,,,,,,,,,,,1,0,340,148,1,339,ratio19_1_10_19.png,,,,,,,,,,,,
,,,,,,,,,,,,Most,Some,None,Many,Few,Half,All,Less than half,More than half,-0.480305977,0.273437493,1,0,0,QQQ7,,,,,,,,English,2020-07-02_11h57.34.626,Experiment_English,3.2.4,Win32,60,,,,,,,,,,,,,,,,,,,,,1,0,340,59,1,339,ratioX0_20_20_9.png,,,,,,,,,,,,
,,,,,,,,,,,,None,Less than half,All,More than half,Some,Most,Few,Many,Half,-0.480305977,0.273437493,1,0,0,QQQ7,,,,,,,,English,2020-07-02_11h57.34.626,Experiment_English,3.2.4,Win32,60,,,,,,,,,,,,,,,,,,,,,1,0,340,119,1,339,ratio14_4_20_10.png,,,,,,,,,,,,
,,,,,,,,,,,,More than half,Less than half,Many,Some,Most,None,Few,All,Half,0.041829455,-0.011718765,1,0,0,QQQ5,,,,,,,,English,2020-07-02_11h57.34.626,Experiment_English,3.2.4,Win32,60,,,,,,,,,,,,,,,,,,,,,1,0,340,208,1,339,ratio31_9_12_3.png,,,,,,,,,,,,
,,,,,,,,,,,,None,Few,Some,Most,Less than half,More than half,All,Half,Many,-0.515462228,0.298177077,1,0,0,QQQ7,,,,,,,,English,2020-07-02_11h57.34.626,Experiment_English,3.2.4,Win32,60,,,,,,,,,,,,,,,,,,,,,1,0,340,51,1,339,ratioX0_12_12_9.png,,,,,,,,,,,,
,,,,,,,,,,,,All,Few,More than half,Most,Less than half,Half,Some,Many,None,-0.005045547,0.285156244,1,0,0,QQQ4,,,,,,,,English,2020-07-02_11h57.34.626,Experiment_English,3.2.4,Win32,60,,,,,,,,,,,,,,,,,,,,,1,0,340,174,1,339,ratio21_10_15_1.png,,,,,,,,,,,,
,,,,,,,,,,,,Half,Few,None,Some,Many,All,Less than half,More than half,Most,0.062662789,-0.014322932,1,0,0,QQQ5,,,,,,,,English,2020-07-02_11h57.34.626,Experiment_English,3.2.4,Win32,60,,,,,,,,,,,,,,,,,,,,,1,0,340,34,1,339,ratio11_8_16_8.png,,,,,,,,,,,,
,,,,,,,,,,,,More than half,Most,Few,Many,Some,None,Half,All,Less than half,0.502766969,-0.308593774,1,0,0,QQQ3,,,,,,,,English,2020-07-02_11h57.34.626,Experiment_English,3.2.4,Win32,60,,,,,,,,,,,,,,,,,,,,,1,0,340,114,1,339,ratio14_3_15_10.png,,,,,,,,,,,,
,,,,,,,,,,,,More than half,Few,Most,All,Less than half,Many,None,Some,Half,0.028808621,-0.315104191,1,0,0,QQQ6,,,,,,,,English,2020-07-02_11h57.34.626,Experiment_English,3.2.4,Win32,60,,,,,,,,,,,,,,,,,,,,,1,0,340,200,1,339,ratio31_3_4_4.png,,,,,,,,,,,,
,,,,,,,,,,,,Most,None,Few,Some,Less than half,More than half,Half,Many,All,0.502766969,0.303385411,1,0,0,QQQ1,,,,,,,,English,2020-07-02_11h57.34.626,Experiment_English,3.2.4,Win32,60,,,,,,,,,,,,,,,,,,,,,1,0,340,210,1,339,ratio31_9_12_9.png,,,,,,,,,,,,
,,,,,,,,,,,,More than half,Some,Half,All,Less than half,Few,None,Most,Many,0.028808621,-0.281250023,1,0,0,QQQ6,,,,,,,,English,2020-07-02_11h57.34.626,Experiment_English,3.2.4,Win32,60,,,,,,,,,,,,,,,,,,,,,1,0,340,100,1,339,ratio14_1_5_3.png,,,,,,,,,,,,
,,,,,,,,,,,,None,More than half,Some,Half,Many,All,Most,Less than half,Few,0.031412788,-0.010416682,1,0,0,QQQ5,,,,,,,,English,2020-07-02_11h57.34.626,Experiment_English,3.2.4,Win32,60,,,,,,,,,,,,,,,,,,,,,1,0,340,310,1,339,ratio51_10_12_12.png,,,,,,,,,,,,
,,,,,,,,,,,,All,Few,Most,None,Less than half,Many,More than half,Half,Some,0.519694052,0.005208319,1,0,0,QQQ2,,,,,,,,English,2020-07-02_11h57.34.626,Experiment_English,3.2.4,Win32,60,,,,,,,,,,,,,,,,,,,,,1,0,340,139,1,339,ratio15_3_18_20.png,,,,,,,,,,,,
,,,,,,,,,,,,None,Many,Some,All,Half,Most,More than half,Few,Less than half,0.020996121,-0.298177107,1,0,0,QQQ6,,,,,,,,English,2020-07-02_11h57.34.626,Experiment_English,3.2.4,Win32,60,,,,,,,,,,,,,,,,,,,,,1,0,340,314,1,339,ratio51_15_18_4.png,,,,,,,,,,,,
,,,,,,,,,,,,Many,Half,Few,All,More than half,Less than half,Some,None,Most,0.461100301,0.265624993,1,0,0,QQQ1,,,,,,,,English,2020-07-02_11h57.34.626,Experiment_English,3.2.4,Win32,60,,,,,,,,,,,,,,,,,,,,,1,0,340,192,1,339,ratio23_6_15_8.png,,,,,,,,,,,,
,,,,,,,,,,,,Some,Few,Half,Most,Less than half,None,More than half,All,Many,0.080891956,0.292968744,1,0,0,QQQ4,,,,,,,,English,2020-07-02_11h57.34.626,Experiment_English,3.2.4,Win32,60,,,,,,,,,,,,,,,,,,,,,1,0,340,276,1,339,ratio41_16_20_4.png,,,,,,,,,,,,
,,,,,,,,,,,,Few,Less than half,Some,Many,More than half,All,Half,None,Most,-0.430826809,0.035156236,1,0,0,QQQ8,,,,,,,,English,2020-07-02_11h57.34.626,Experiment_English,3.2.4,Win32,60,,,,,,,,,,,,,,,,,,,,,1,0,340,69,1,339,ratio0Y_0_11_6.png,,,,,,,,,,,,
,,,,,,,,,,,,Some,More than half,None,Less than half,Most,All,Few,Half,Many,-0.443847643,0.248697909,1,0,0,QQQ7,,,,,,,,English,2020-07-02_11h57.34.626,Experiment_English,3.2.4,Win32,60,,,,,,,,,,,,,,,,,,,,,1,0,340,283,1,339,ratio43_4_7_8.png,,,,,,,,,,,,
,,,,,,,,,,,,Some,Most,Few,None,Less than half,All,Half,More than half,Many,0.510579469,0.26041666,1,0,0,QQQ1,,,,,,,,English,2020-07-02_11h57.34.626,Experiment_English,3.2.4,Win32,60,,,,,,,,,,,,,,,,,,,,,1,0,340,211,1,339,ratio31_9_12_10.png,,,,,,,,,,,,
,,,,,,,,,,,,Some,Half,Few,Many,More than half,None,Less than half,Most,All,0.041829455,0.015624986,1,0,0,QQQ5,,,,,,,,English,2020-07-02_11h57.34.626,Experiment_English,3.2.4,Win32,60,,,,,,,,,,,,,,,,,,,,,1,0,340,228,1,339,ratio32_6_10_7.png,,,,,,,,,,,,
,,,,,,,,,,,,Few,More than half,Most,Less than half,Half,Many,All,Some,None,0.076985706,-0.29166669,1,0,0,QQQ6,,,,,,,,English,2020-07-02_11h57.34.626,Experiment_English,3.2.4,Win32,60,,,,,,,,,,,,,,,,,,,,,1,0,340,294,1,339,ratio43_8_14_9.png,,,,,,,,,,,,
,,,,,,,,,,,,Less than half,All,More than half,Half,Some,Most,Many,Few,None,0.080891956,-0.053385433,1,0,0,QQQ5,,,,,,,,English,2020-07-02_11h57.34.626,Experiment_English,3.2.4,Win32,60,,,,,,,,,,,,,,,,,,,,,1,0,340,92,1,339,ratio13_4_16_3.png,,,,,,,,,,,,
,,,,,,,,,,,,More than half,None,Half,All,Some,Few,Most,Less than half,Many,0.080891956,-0.053385433,1,0,0,QQQ5,,,,,,,,English,2020-07-02_11h57.34.626,Experiment_English,3.2.4,Win32,60,,,,,,,,,,,,,,,,,,,,,1,0,340,89,1,339,ratio13_3_12_6.png,,,,,,,,,,,,
,,,,,,,,,,,,Many,Most,Some,More than half,Less than half,All,None,Few,Half,0.494954468,0.312499994,1,0,0,QQQ1,,,,,,,,English,2020-07-02_11h57.34.626,Experiment_English,3.2.4,Win32,60,,,,,,,,,,,,,,,,,,,,,1,0,340,271,1,339,ratio41_12_15_6.png,,,,,,,,,,,,
,,,,,,,,,,,,Many,Some,None,Most,Less than half,More than half,All,Few,Half,-0.01025388,0.255208326,1,0,0,QQQ4,,,,,,,,English,2020-07-02_11h57.34.626,Experiment_English,3.2.4,Win32,60,,,,,,,,,,,,,,,,,,,,,1,0,340,335,1,339,ratio91_18_20_11.png,,,,,,,,,,,,
,,,,,,,,,,,,All,Some,None,Few,Most,Less than half,Many,Half,More than half,0.004069037,-0.014322932,1,0,0,QQQ5,,,,,,,,English,2020-07-02_11h57.34.626,Experiment_English,3.2.4,Win32,60,,,,,,,,,,,,,,,,,,,,,1,0,340,329,1,339,ratio91_9_10_20.png,,,,,,,,,,,,
,,,,,,,,,,,,Less than half,Most,Few,None,Half,Some,Many,All,More than half,0.024902371,-0.282552107,1,0,0,QQQ6,,,,,,,,English,2020-07-02_11h57.34.626,Experiment_English,3.2.4,Win32,60,,,,,,,,,,,,,,,,,,,,,1,0,340,268,1,339,ratio41_8_10_5.png,,,,,,,,,,,,
,,,,,,,,,,,,Half,None,All,Most,Few,Some,More than half,Less than half,Many,0.013183621,0.231770805,1,0,0,QQQ4,,,,,,,,English,2020-07-02_11h57.34.626,Experiment_English,3.2.4,Win32,60,,,,,,,,,,,,,,,,,,,,,1,0,340,234,1,339,ratio32_9_15_10.png,,,,,,,,,,,,
,,,,,,,,,,,,Few,Some,More than half,None,Many,Most,All,Half,Less than half,0.457194051,0.020833319,1,0,0,QQQ2,,,,,,,,English,2020-07-02_11h57.34.626,Experiment_English,3.2.4,Win32,60,,,,,,,,,,,,,,,,,,,,,1,0,340,190,1,339,ratio23_6_15_3.png,,,,,,,,,,,,
,,,,,,,,,,,,Some,Most,Half,Few,Less than half,More than half,Many,None,All,-0.516764312,0.335937495,1,0,0,QQQ7,,,,,,,,English,2020-07-02_11h57.34.626,Experiment_English,3.2.4,Win32,60,,,,,,,,,,,,,,,,,,,,,1,0,340,237,1,339,ratio32_12_20_5.png,,,,,,,,,,,,
,,,,,,,,,,,,Many,Some,More than half,Less than half,Most,All,Few,None,Half,0.09781904,0.006510402,1,0,0,QQQ5,,,,,,,,English,2020-07-02_11h57.34.626,Experiment_English,3.2.4,Win32,60,,,,,,,,,,,,,,,,,,,,,1,0,340,295,1,339,ratio43_8_14_11.png,0.359537877,-0.397135443,1,0,0,continue_button_pause,1,0,1,0,1,0
,,,,,,,,,,,,,,,,,,,,,,,,,,,,,,,,,,English,2020-07-02_11h57.34.626,Experiment_English,3.2.4,Win32,60,,,,,,,,,,,,,,,,,,,,,1,0,340,295,1,339,ratio43_8_14_11.png,,,,,,,,,,,,
,,,,,,,,,,,,None,Most,Less than half,Many,More than half,Half,Some,All,Few,-0.445149726,0.325520828,1,0,0,QQQ7,,,,,,,,English,2020-07-02_11h57.34.626,Experiment_English,3.2.4,Win32,60,,,,,,,,,,,,,,,,,,,,,1,0,340,259,1,339,ratio34_6_14_19.png,,,,,,,,,,,,
,,,,,,,,,,,,Less than half,Some,Most,None,All,Half,More than half,Few,Many,-0.524576812,0.04036457,1,0,0,QQQ8,,,,,,,,English,2020-07-02_11h57.34.626,Experiment_English,3.2.4,Win32,60,,,,,,,,,,,,,,,,,,,,,1,0,340,157,1,339,ratio19_2_20_16.png,,,,,,,,,,,,
,,,,,,,,,,,,None,Few,More than half,Half,Some,All,Most,Many,Less than half,0.539225303,0.285156244,1,0,0,QQQ1,,,,,,,,English,2020-07-02_11h57.34.626,Experiment_English,3.2.4,Win32,60,,,,,,,,,,,,,,,,,,,,,1,0,340,68,1,339,ratio0Y_0_11_3.png,,,,,,,,,,,,
,,,,,,,,,,,,None,All,Half,More than half,Few,Many,Most,Some,Less than half,0.520996136,0.04817707,1,0,0,QQQ2,,,,,,,,English,2020-07-02_11h57.34.626,Experiment_English,3.2.4,Win32,60,,,,,,,,,,,,,,,,,,,,,1,0,340,54,1,339,ratioX0_15_15_5.png,,,,,,,,,,,,
,,,,,,,,,,,,Less than half,Many,Few,Half,Most,None,All,Some,More than half,0.007975287,0.045572903,1,0,0,QQQ5,,,,,,,,English,2020-07-02_11h57.34.626,Experiment_English,3.2.4,Win32,60,,,,,,,,,,,,,,,,,,,,,1,0,340,263,1,339,ratio41_4_5_5.png,,,,,,,,,,,,
,,,,,,,,,,,,Most,Less than half,None,Half,More than half,Some,Many,Few,All,0.015787787,-0.244791689,1,0,0,QQQ6,,,,,,,,English,2020-07-02_11h57.34.626,Experiment_English,3.2.4,Win32,60,,,,,,,,,,,,,,,,,,,,,1,0,340,292,1,339,ratio43_8_14_6.png,,,,,,,,,,,,
,,,,,,,,,,,,More than half,Most,Many,None,Half,Some,Few,Less than half,All,0.009277371,-0.329427108,1,0,0,QQQ6,,,,,,,,English,2020-07-02_11h57.34.626,Experiment_English,3.2.4,Win32,60,,,,,,,,,,,,,,,,,,,,,1,0,340,224,1,339,ratio32_3_5_10.png,,,,,,,,,,,,
,,,,,,,,,,,,All,Few,None,More than half,Many,Some,Half,Most,Less than half,0.609537805,0.316406245,1,0,0,QQQ1,,,,,,,,English,2020-07-02_11h57.34.626,Experiment_English,3.2.4,Win32,60,,,,,,,,,,,,,,,,,,,,,1,0,340,58,1,339,ratioX0_19_19_4.png,,,,,,,,,,,,
,,,,,,,,,,,,Half,Few,Many,Most,All,More than half,Less than half,None,Some,0.444173217,-0.27604169,1,0,0,QQQ3,,,,,,,,English,2020-07-02_11h57.34.626,Experiment_English,3.2.4,Win32,60,,,,,,,,,,,,,,,,,,,,,1,0,340,39,1,339,ratio11_10_20_6.png,,,,,,,,,,,,
,,,,,,,,,,,,Less than half,Some,Few,More than half,Most,Many,All,None,Half,0.444173217,-0.27604169,1,0,0,QQQ3,,,,,,,,English,2020-07-02_11h57.34.626,Experiment_English,3.2.4,Win32,60,,,,,,,,,,,,,,,,,,,,,1,0,340,193,1,339,ratio23_6_15_9.png,,,,,,,,,,,,
,,,,,,,,,,,,More than half,Less than half,Half,Many,Few,All,Some,None,Most,-0.472493477,-0.002604182,1,0,0,QQQ8,,,,,,,,English,2020-07-02_11h57.34.626,Experiment_English,3.2.4,Win32,60,,,,,,,,,,,,,,,,,,,,,1,0,340,79,1,339,ratio0Y_0_20_4.png,,,,,,,,,,,,
,,,,,,,,,,,,More than half,Less than half,None,Some,Most,Many,Half,All,Few,-0.1339518,-0.009114638,1,0,0,QQQ5,,,,,,,,English,2020-07-02_11h57.34.626,Experiment_English,3.2.4,Win32,60,,,,,,,,,,,,,,,,,,,,,1,0,340,307,1,339,ratio51_10_12_1.png,,,,,,,,,,,,
,,,,,,,,,,,,Less than half,Many,Most,None,All,More than half,Some,Half,Few,-0.499837228,-0.27994794,1,0,0,QQQ9,,,,,,,,English,2020-07-02_11h57.34.626,Experiment_English,3.2.4,Win32,60,,,,,,,,,,,,,,,,,,,,,1,0,340,3,1,339,ratio12_2_6_3.png,,,,,,,,,,,,
,,,,,,,,,,,,All,None,Many,More than half,Less than half,Half,Few,Some,Most,-0.497233061,0.244791659,1,0,0,QQQ7,,,,,,,,English,2020-07-02_11h57.34.626,Experiment_English,3.2.4,Win32,60,,,,,,,,,,,,,,,,,,,,,1,0,340,120,1,339,ratio15_1_6_1.png,,,,,,,,,,,,
,,,,,,,,,,,,Most,All,Some,Many,None,Less than half,Half,More than half,Few,0.454589884,-0.352864609,1,0,0,QQQ3,,,,,,,,English,2020-07-02_11h57.34.626,Experiment_English,3.2.4,Win32,60,,,,,,,,,,,,,,,,,,,,,1,0,340,245,1,339,ratio34_3_7_10.png,,,,,,,,,,,,
,,,,,,,,,,,,Half,All,Few,Most,Many,None,Some,Less than half,More than half,0.061360705,0.04427082,1,0,0,QQQ5,,,,,,,,English,2020-07-02_11h57.34.626,Experiment_English,3.2.4,Win32,60,,,,,,,,,,,,,,,,,,,,,1,0,340,30,1,339,ratio11_6_12_6.png,,,,,,,,,,,,
,,,,,,,,,,,,Few,More than half,Many,Some,All,None,Less than half,Most,Half,0.061360705,0.04427082,1,0,0,QQQ5,,,,,,,,English,2020-07-02_11h57.34.626,Experiment_English,3.2.4,Win32,60,,,,,,,,,,,,,,,,,,,,,1,0,340,46,1,339,ratioX0_9_9_3.png,,,,,,,,,,,,
,,,,,,,,,,,,Some,All,More than half,Most,Many,Less than half,Half,None,Few,0.00146487,0.289062494,1,0,0,QQQ4,,,,,,,,English,2020-07-02_11h57.34.626,Experiment_English,3.2.4,Win32,60,,,,,,,,,,,,,,,,,,,,,1,0,340,278,1,339,ratio41_16_20_9.png,,,,,,,,,,,,
,,,,,,,,,,,,Many,Some,Most,None,All,Few,More than half,Less than half,Half,0.579589888,-0.356770859,1,0,0,QQQ3,,,,,,,,English,2020-07-02_11h57.34.626,Experiment_English,3.2.4,Win32,60,,,,,,,,,,,,,,,,,,,,,1,0,340,213,1,339,ratio31_12_16_2.png,,,,,,,,,,,,
,,,,,,,,,,,,More than half,Less than half,Many,All,None,Most,Few,Some,Half,-0.525878895,0.28776041,1,0,0,QQQ7,,,,,,,,English,2020-07-02_11h57.34.626,Experiment_English,3.2.4,Win32,60,,,,,,,,,,,,,,,,,,,,,1,0,340,107,1,339,ratio14_2_10_5.png,,,,,,,,,,,,
,,,,,,,,,,,,All,Half,Few,More than half,Most,Less than half,Some,Many,None,0.55745447,-0.29557294,1,0,0,QQQ3,,,,,,,,English,2020-07-02_11h57.34.626,Experiment_English,3.2.4,Win32,60,,,,,,,,,,,,,,,,,,,,,1,0,340,149,1,339,ratio19_1_10_20.png,,,,,,,,,,,,
,,,,,,,,,,,,All,Most,Less than half,Some,Many,Few,More than half,Half,None,-0.489420561,-0.348958359,1,0,0,QQQ9,,,,,,,,English,2020-07-02_11h57.34.626,Experiment_English,3.2.4,Win32,60,,,,,,,,,,,,,,,,,,,,,1,0,340,72,1,339,ratio0Y_0_13_4.png,,,,,,,,,,,,
,,,,,,,,,,,,More than half,All,Many,Some,Half,None,Less than half,Most,Few,-0.489420561,-0.348958359,1,0,0,QQQ9,,,,,,,,English,2020-07-02_11h57.34.626,Experiment_English,3.2.4,Win32,60,,,,,,,,,,,,,,,,,,,,,1,0,340,258,1,339,ratio34_6_14_14.png,,,,,,,,,,,,
,,,,,,,,,,,,All,Few,Many,Half,More than half,Most,None,Less than half,Some,-0.001139296,-0.341145858,1,0,0,QQQ6,,,,,,,,English,2020-07-02_11h57.34.626,Experiment_English,3.2.4,Win32,60,,,,,,,,,,,,,,,,,,,,,1,0,340,323,1,339,ratio91_9_10_5.png,,,,,,,,,,,,
,,,,,,,,,,,,Less than half,Some,All,Half,More than half,Most,Few,None,Many,-0.46207681,0.27213541,1,0,0,QQQ7,,,,,,,,English,2020-07-02_11h57.34.626,Experiment_English,3.2.4,Win32,60,,,,,,,,,,,,,,,,,,,,,1,0,340,93,1,339,ratio13_4_16_7.png,,,,,,,,,,,,
,,,,,,,,,,,,More than half,Some,Half,Less than half,All,Most,None,Many,Few,-0.44254556,-0.322916691,1,0,0,QQQ9,,,,,,,,English,2020-07-02_11h57.34.626,Experiment_English,3.2.4,Win32,60,,,,,,,,,,,,,,,,,,,,,1,0,340,129,1,339,ratio15_2_12_9.png,,,,,,,,,,,,
,,,,,,,,,,,,All,Few,More than half,Less than half,Some,None,Many,Most,Half,0.376464881,-0.05989589,1,0,0,QQQ2,,,,,,,,English,2020-07-02_11h57.34.626,Experiment_English,3.2.4,Win32,60,,,,,,,,,,,,,,,,,,,,,1,0,340,18,1,339,ratio12_6_18_7.png,,,,,,,,,,,,
,,,,,,,,,,,,Less than half,Half,Few,Many,More than half,All,Some,None,Most,-0.417805976,-0.033854183,1,0,0,QQQ8,,,,,,,,English,2020-07-02_11h57.34.626,Experiment_English,3.2.4,Win32,60,,,,,,,,,,,,,,,,,,,,,1,0,340,77,1,339,ratio0Y_0_18_3.png,,,,,,,,,,,,
,,,,,,,,,,,,Half,Some,More than half,Few,Less than half,Most,All,None,Many,0.063964872,0.350260402,1,0,0,QQQ4,,,,,,,,English,2020-07-02_11h57.34.626,Experiment_English,3.2.4,Win32,60,,,,,,,,,,,,,,,,,,,,,1,0,340,281,1,339,ratio43_4_7_4.png,,,,,,,,,,,,
,,,,,,,,,,,,Less than half,All,Some,None,Many,More than half,Few,Half,Most,-0.476399727,0.304687494,1,0,0,QQQ7,,,,,,,,English,2020-07-02_11h57.34.626,Experiment_English,3.2.4,Win32,60,,,,,,,,,,,,,,,,,,,,,1,0,340,98,1,339,ratio13_5_20_3.png,,,,,,,,,,,,
,,,,,,,,,,,,All,Half,Some,Few,More than half,None,Many,Most,Less than half,-0.489420561,0.294270827,1,0,0,QQQ7,,,,,,,,English,2020-07-02_11h57.34.626,Experiment_English,3.2.4,Win32,60,,,,,,,,,,,,,,,,,,,,,1,0,340,311,1,339,ratio51_10_12_14.png,,,,,,,,,,,,
,,,,,,,,,,,,All,Half,Many,Some,Most,None,Less than half,Few,More than half,-0.464680977,0.050781237,1,0,0,QQQ8,,,,,,,,English,2020-07-02_11h57.34.626,Experiment_English,3.2.4,Win32,60,,,,,,,,,,,,,,,,,,,,,1,0,340,7,1,339,ratio12_3_9_2.png,,,,,,,,,,,,
,,,,,,,,,,,,Half,Most,None,Less than half,Many,All,Some,Few,More than half,-0.088378882,-0.027343766,1,0,0,QQQ5,,,,,,,,English,2020-07-02_11h57.34.626,Experiment_English,3.2.4,Win32,60,,,,,,,,,,,,,,,,,,,,,1,0,340,239,1,339,ratio32_12_20_10.png,,,,,,,,,,,,
,,,,,,,,,,,,Many,Some,Half,More than half,Few,All,None,Most,Less than half,-0.088378882,-0.027343766,1,0,0,QQQ5,,,,,,,,English,2020-07-02_11h57.34.626,Experiment_English,3.2.4,Win32,60,,,,,,,,,,,,,,,,,,,,,1,0,340,91,1,339,ratio13_3_12_10.png,0.350423214,-0.423177111,1,0,0,continue_button_pause,1,0,1,0,1,0
,,,,,,,,,,,,,,,,,,,,,,,,,,,,,,,,,,English,2020-07-02_11h57.34.626,Experiment_English,3.2.4,Win32,60,,,,,,,,,,,,,,,,,,,,,1,0,340,91,1,339,ratio13_3_12_10.png,,,,,,,,,,,,
,,,,,,,,,,,,Most,None,Half,All,More than half,Some,Many,Less than half,Few,0.096516956,-0.324218775,1,0,0,QQQ6,,,,,,,,English,2020-07-02_11h57.34.626,Experiment_English,3.2.4,Win32,60,,,,,,,,,,,,,,,,,,,,,1,0,340,232,1,339,ratio32_9_15_8.png,,,,,,,,,,,,
,,,,,,,,,,,,Few,None,Most,Some,Less than half,All,More than half,Many,Half,0.451985717,0.222656242,1,0,0,QQQ1,,,,,,,,English,2020-07-02_11h57.34.626,Experiment_English,3.2.4,Win32,60,,,,,,,,,,,,,,,,,,,,,1,0,340,13,1,339,ratio12_5_15_3.png,,,,,,,,,,,,
,,,,,,,,,,,,Most,Half,Some,More than half,All,Less than half,Few,Many,None,0.039225288,0.020833319,1,0,0,QQQ5,,,,,,,,English,2020-07-02_11h57.34.626,Experiment_English,3.2.4,Win32,60,,,,,,,,,,,,,,,,,,,,,1,0,340,42,1,339,ratioX0_5_5_5.png,,,,,,,,,,,,
,,,,,,,,,,,,Less than half,Many,Most,More than half,None,Half,Few,Some,All,0.039225288,0.020833319,1,0,0,QQQ5,,,,,,,,English,2020-07-02_11h57.34.626,Experiment_English,3.2.4,Win32,60,,,,,,,,,,,,,,,,,,,,,1,0,340,60,1,339,ratio0Y_0_3_5.png,,,,,,,,,,,,
,,,,,,,,,,,,Many,More than half,Most,Half,None,Less than half,Few,Some,All,0.523600303,-0.311197941,1,0,0,QQQ3,,,,,,,,English,2020-07-02_11h57.34.626,Experiment_English,3.2.4,Win32,60,,,,,,,,,,,,,,,,,,,,,1,0,340,275,1,339,ratio41_16_20_2.png,,,,,,,,,,,,
,,,,,,,,,,,,More than half,Most,Less than half,Many,Few,Half,None,Some,All,0.063964872,-0.028645889,1,0,0,QQQ5,,,,,,,,English,2020-07-02_11h57.34.626,Experiment_English,3.2.4,Win32,60,,,,,,,,,,,,,,,,,,,,,1,0,340,144,1,339,ratio19_1_10_11.png,,,,,,,,,,,,
,,,,,,,,,,,,More than half,Most,All,Some,Half,None,Less than half,Few,Many,0.481933635,-0.009114638,1,0,0,QQQ2,,,,,,,,English,2020-07-02_11h57.34.626,Experiment_English,3.2.4,Win32,60,,,,,,,,,,,,,,,,,,,,,1,0,340,327,1,339,ratio91_9_10_11.png,,,,,,,,,,,,
,,,,,,,,,,,,Half,Less than half,All,More than half,Most,Many,Few,None,Some,0.013183621,-0.29947919,1,0,0,QQQ6,,,,,,,,English,2020-07-02_11h57.34.626,Experiment_English,3.2.4,Win32,60,,,,,,,,,,,,,,,,,,,,,1,0,340,220,1,339,ratio32_3_5_1.png,,,,,,,,,,,,
,,,,,,,,,,,,Less than half,Half,Some,Few,None,Most,All,Many,More than half,0.037923205,0.28776041,1,0,0,QQQ4,,,,,,,,English,2020-07-02_11h57.34.626,Experiment_English,3.2.4,Win32,60,,,,,,,,,,,,,,,,,,,,,1,0,340,85,1,339,ratio13_2_8_5.png,,,,,,,,,,,,
,,,,,,,,,,,,Few,Many,Half,None,Less than half,All,Some,Most,More than half,0.414225379,0.27994791,1,0,0,QQQ1,,,,,,,,English,2020-07-02_11h57.34.626,Experiment_English,3.2.4,Win32,60,,,,,,,,,,,,,,,,,,,,,1,0,340,21,1,339,ratio11_2_4_10.png,,,,,,,,,,,,
,,,,,,,,,,,,Many,Half,Less than half,Few,More than half,All,None,Some,Most,0.103027373,0.285156244,1,0,0,QQQ4,,,,,,,,English,2020-07-02_11h57.34.626,Experiment_English,3.2.4,Win32,60,,,,,,,,,,,,,,,,,,,,,1,0,340,280,1,339,ratio43_4_7_2.png,,,,,,,,,,,,
,,,,,,,,,,,,Some,All,None,Less than half,Half,Many,Most,More than half,Few,0.496256552,0.382812497,1,0,0,QQQ1,,,,,,,,English,2020-07-02_11h57.34.626,Experiment_English,3.2.4,Win32,60,,,,,,,,,,,,,,,,,,,,,1,0,340,293,1,339,ratio43_8_14_7.png,,,,,,,,,,,,
,,,,,,,,,,,,Half,Most,More than half,Many,All,Few,Less than half,Some,None,0.00537112,-0.309895857,1,0,0,QQQ6,,,,,,,,English,2020-07-02_11h57.34.626,Experiment_English,3.2.4,Win32,60,,,,,,,,,,,,,,,,,,,,,1,0,340,122,1,339,ratio15_1_6_7.png,,,,,,,,,,,,
,,,,,,,,,,,,Most,Less than half,Some,All,More than half,Many,None,Few,Half,-0.449055976,0.247395806,1,0,0,QQQ7,,,,,,,,English,2020-07-02_11h57.34.626,Experiment_English,3.2.4,Win32,60,,,,,,,,,,,,,,,,,,,,,1,0,340,66,1,339,ratio0Y_0_9_8.png,,,,,,,,,,,,
,,,,,,,,,,,,More than half,None,Less than half,All,Many,Few,Some,Half,Most,-0.062337215,0.071614571,1,0,0,QQQ5,,,,,,,,English,2020-07-02_11h57.34.626,Experiment_English,3.2.4,Win32,60,,,,,,,,,,,,,,,,,,,,,1,0,340,36,1,339,ratio11_9_18_1.png,,,,,,,,,,,,
,,,,,,,,,,,,Some,Few,All,More than half,None,Half,Less than half,Many,Most,0.481933635,-0.006510432,1,0,0,QQQ2,,,,,,,,English,2020-07-02_11h57.34.626,Experiment_English,3.2.4,Win32,60,,,,,,,,,,,,,,,,,,,,,1,0,340,123,1,339,ratio15_1_6_12.png,,,,,,,,,,,,
,,,,,,,,,,,,None,Less than half,Most,All,Half,More than half,Many,Some,Few,-0.477701811,-0.252604189,1,0,0,QQQ9,,,,,,,,English,2020-07-02_11h57.34.626,Experiment_English,3.2.4,Win32,60,,,,,,,,,,,,,,,,,,,,,1,0,340,282,1,339,ratio43_4_7_7.png,,,,,,,,,,,,
,,,,,,,,,,,,None,Some,More than half,Few,Less than half,Many,All,Half,Most,0.057454455,0.281249993,1,0,0,QQQ4,,,,,,,,English,2020-07-02_11h57.34.626,Experiment_English,3.2.4,Win32,60,,,,,,,,,,,,,,,,,,,,,1,0,340,189,1,339,ratio23_4_10_8.png,,,,,,,,,,,,
,,,,,,,,,,,,Many,All,Some,None,Most,Less than half,Half,More than half,Few,0.520996136,0.013020819,1,0,0,QQQ2,,,,,,,,English,2020-07-02_11h57.34.626,Experiment_English,3.2.4,Win32,60,,,,,,,,,,,,,,,,,,,,,1,0,340,57,1,339,ratioX0_18_18_1.png,,,,,,,,,,,,
,,,,,,,,,,,,Many,Most,All,Few,Some,Half,None,Less than half,More than half,0.066569039,0.085937488,1,0,0,QQQ5,,,,,,,,English,2020-07-02_11h57.34.626,Experiment_English,3.2.4,Win32,60,,,,,,,,,,,,,,,,,,,,,1,0,340,23,1,339,ratio11_3_6_9.png,,,,,,,,,,,,
,,,,,,,,,,,,Some,Few,All,Many,Less than half,Half,Most,More than half,None,-0.451660143,0.26432291,1,0,0,QQQ7,,,,,,,,English,2020-07-02_11h57.34.626,Experiment_English,3.2.4,Win32,60,,,,,,,,,,,,,,,,,,,,,1,0,340,236,1,339,ratio32_12_20_2.png,,,,,,,,,,,,
,,,,,,,,,,,,Few,None,All,Half,Less than half,Most,Some,More than half,Many,-0.451660143,0.26432291,1,0,0,QQQ7,,,,,,,,English,2020-07-02_11h57.34.626,Experiment_English,3.2.4,Win32,60,,,,,,,,,,,,,,,,,,,,,1,0,340,321,1,339,ratio91_9_10_2.png,,,,,,,,,,,,
,,,,,,,,,,,,None,Less than half,Half,All,Most,Many,Some,More than half,Few,-0.451660143,0.26432291,1,0,0,QQQ7,,,,,,,,English,2020-07-02_11h57.34.626,Experiment_English,3.2.4,Win32,60,,,,,,,,,,,,,,,,,,,,,1,0,340,9,1,339,ratio12_3_9_5.png,,,,,,,,,,,,
,,,,,,,,,,,,Less than half,All,Some,Half,More than half,Most,Few,Many,None,0.044433622,-0.321614608,1,0,0,QQQ6,,,,,,,,English,2020-07-02_11h57.34.626,Experiment_English,3.2.4,Win32,60,,,,,,,,,,,,,,,,,,,,,1,0,340,328,1,339,ratio91_9_10_15.png,,,,,,,,,,,,
,,,,,,,,,,,,Many,Half,None,Some,All,Most,More than half,Less than half,Few,0.406412879,-0.325520858,1,0,0,QQQ3,,,,,,,,English,2020-07-02_11h57.34.626,Experiment_English,3.2.4,Win32,60,,,,,,,,,,,,,,,,,,,,,1,0,340,73,1,339,ratio0Y_0_14_7.png,,,,,,,,,,,,
,,,,,,,,,,,,Many,Some,More than half,None,Half,Less than half,Most,Few,All,-0.488118478,0.024739569,1,0,0,QQQ8,,,,,,,,English,2020-07-02_11h57.34.626,Experiment_English,3.2.4,Win32,60,,,,,,,,,,,,,,,,,,,,,1,0,340,137,1,339,ratio15_3_18_16.png,,,,,,,,,,,,
,,,,,,,,,,,,Less than half,Some,Few,All,None,More than half,Half,Many,Most,0.517089886,-0.305989607,1,0,0,QQQ3,,,,,,,,English,2020-07-02_11h57.34.626,Experiment_English,3.2.4,Win32,60,,,,,,,,,,,,,,,,,,,,,1,0,340,153,1,339,ratio19_2_20_8.png,,,,,,,,,,,,
,,,,,,,,,,,,Most,Few,Half,None,All,Many,Less than half,More than half,Some,0.073079456,-0.315104191,1,0,0,QQQ6,,,,,,,,English,2020-07-02_11h57.34.626,Experiment_English,3.2.4,Win32,60,,,,,,,,,,,,,,,,,,,,,1,0,340,33,1,339,ratio11_7_14_8.png,,,,,,,,,,,,
,,,,,,,,,,,,None,Few,More than half,All,Most,Half,Some,Less than half,Many,0.465006551,-0.023437516,1,0,0,QQQ2,,,,,,,,English,2020-07-02_11h57.34.626,Experiment_English,3.2.4,Win32,60,,,,,,,,,,,,,,,,,,,,,1,0,340,187,1,339,ratio23_4_10_5.png,,,,,,,,,,,,
,,,,,,,,,,,,All,Some,Less than half,Many,Most,Half,More than half,None,Few,0.465006551,-0.023437516,1,0,0,QQQ2,,,,,,,,English,2020-07-02_11h57.34.626,Experiment_English,3.2.4,Win32,60,,,,,,,,,,,,,,,,,,,,,1,0,340,191,1,339,ratio23_6_15_7.png,,,,,,,,,,,,
,,,,,,,,,,,,Few,Most,Half,None,More than half,Many,All,Less than half,Some,-0.502441395,0.28776041,1,0,0,QQQ7,,,,,,,,English,2020-07-02_11h57.34.626,Experiment_English,3.2.4,Win32,60,,,,,,,,,,,,,,,,,,,,,1,0,340,48,1,339,ratioX0_10_10_1.png,,,,,,,,,,,,
,,,,,,,,,,,,More than half,Most,Many,None,Half,Few,Some,Less than half,All,0.588704471,-0.234375022,1,0,0,QQQ3,,,,,,,,English,2020-07-02_11h57.34.626,Experiment_English,3.2.4,Win32,60,,,,,,,,,,,,,,,,,,,,,1,0,340,37,1,339,ratio11_9_18_8.png,,,,,,,,,,,,
,,,,,,,,,,,,More than half,Many,All,Few,Most,None,Less than half,Half,Some,0.071777372,-0.005208388,1,0,0,QQQ5,,,,,,,,English,2020-07-02_11h57.34.626,Experiment_English,3.2.4,Win32,60,,,,,,,,,,,,,,,,,,,,,1,0,340,209,1,339,ratio31_9_12_6.png,,,,,,,,,,,,
,,,,,,,,,,,,More than half,Many,Few,Some,None,Less than half,All,Half,Most,0.004069037,0.341145829,1,0,0,QQQ4,,,,,,,,English,2020-07-02_11h57.34.626,Experiment_English,3.2.4,Win32,60,,,,,,,,,,,,,,,,,,,,,1,0,340,19,1,339,ratio12_6_18_9.png,0.359537877,-0.39192711,1,0,0,continue_button_pause,1,0,1,0,1,0
,,,,,,,,,,,,,,,,,,,,,,,,,,,,,,,,,,English,2020-07-02_11h57.34.626,Experiment_English,3.2.4,Win32,60,,,,,,,,,,,,,,,,,,,,,1,0,340,19,1,339,ratio12_6_18_9.png,,,,,,,,,,,,
,,,,,,,,,,,,Some,Half,More than half,Many,Few,Most,All,None,Less than half,0.060058622,-0.039062516,1,0,0,QQQ5,,,,,,,,English,2020-07-02_11h57.34.626,Experiment_English,3.2.4,Win32,60,,,,,,,,,,,,,,,,,,,,,1,0,340,229,1,339,ratio32_6_10_9.png,,,,,,,,,,,,
,,,,,,,,,,,,Half,All,Few,None,Less than half,Many,Some,Most,More than half,0.420735716,-0.274739606,1,0,0,QQQ3,,,,,,,,English,2020-07-02_11h57.34.626,Experiment_English,3.2.4,Win32,60,,,,,,,,,,,,,,,,,,,,,1,0,340,168,1,339,ratio21_6_9_3.png,,,,,,,,,,,,
,,,,,,,,,,,,Few,Many,Half,All,More than half,Most,Some,None,Less than half,0.412923216,0.257812493,1,0,0,QQQ1,,,,,,,,English,2020-07-02_11h57.34.626,Experiment_English,3.2.4,Win32,60,,,,,,,,,,,,,,,,,,,,,1,0,340,24,1,339,ratio11_4_8_3.png,,,,,,,,,,,,
,,,,,,,,,,,,Many,More than half,Less than half,Few,Some,None,Most,Half,All,0.063964872,0.317708328,1,0,0,QQQ4,,,,,,,,English,2020-07-02_11h57.34.626,Experiment_English,3.2.4,Win32,60,,,,,,,,,,,,,,,,,,,,,1,0,340,115,1,339,ratio14_4_20_1.png,,,,,,,,,,,,
,,,,,,,,,,,,Some,Most,Half,Many,None,Few,More than half,All,Less than half,0.054850289,0.007812485,1,0,0,QQQ5,,,,,,,,English,2020-07-02_11h57.34.626,Experiment_English,3.2.4,Win32,60,,,,,,,,,,,,,,,,,,,,,1,0,340,67,1,339,ratio0Y_0_10_10.png,,,,,,,,,,,,
,,,,,,,,,,,,Half,All,Few,Less than half,Most,Many,Some,None,More than half,0.528808636,-0.29947919,1,0,0,QQQ3,,,,,,,,English,2020-07-02_11h57.34.626,Experiment_English,3.2.4,Win32,60,,,,,,,,,,,,,,,,,,,,,1,0,340,181,1,339,ratio23_2_5_6.png,,,,,,,,,,,,
,,,,,,,,,,,,Some,Many,Few,All,More than half,Half,None,Less than half,Most,0.067871122,-0.335937525,1,0,0,QQQ6,,,,,,,,English,2020-07-02_11h57.34.626,Experiment_English,3.2.4,Win32,60,,,,,,,,,,,,,,,,,,,,,1,0,340,291,1,339,ratio43_8_14_5.png,,,,,,,,,,,,
,,,,,,,,,,,,None,More than half,All,Some,Many,Less than half,Few,Half,Most,-0.115722633,0.26822916,1,0,0,QQQ4,,,,,,,,English,2020-07-02_11h57.34.626,Experiment_English,3.2.4,Win32,60,,,,,,,,,,,,,,,,,,,,,1,0,340,252,1,339,ratio34_6_14_3.png,,,,,,,,,,,,
,,,,,,,,,,,,Most,Many,None,More than half,All,Some,Less than half,Few,Half,0.485839885,-0.065104184,1,0,0,QQQ2,,,,,,,,English,2020-07-02_11h57.34.626,Experiment_English,3.2.4,Win32,60,,,,,,,,,,,,,,,,,,,,,1,0,340,167,1,339,ratio21_6_9_2.png,,,,,,,,,,,,
,,,,,,,,,,,,Half,All,Some,More than half,Many,Most,Less than half,None,Few,-0.066243465,-0.227864605,1,0,0,QQQ6,,,,,,,,English,2020-07-02_11h57.34.626,Experiment_English,3.2.4,Win32,60,,,,,,,,,,,,,,,,,,,,,1,0,340,332,1,339,ratio91_18_20_4.png,,,,,,,,,,,,
,,,,,,,,,,,,None,Many,All,Most,Less than half,Few,Some,More than half,Half,-0.460774727,0.28776041,1,0,0,QQQ7,,,,,,,,English,2020-07-02_11h57.34.626,Experiment_English,3.2.4,Win32,60,,,,,,,,,,,,,,,,,,,,,1,0,340,12,1,339,ratio12_4_12_10.png,,,,,,,,,,,,
,,,,,,,,,,,,Some,None,Half,More than half,Many,Less than half,All,Most,Few,0.505371135,0.303385411,1,0,0,QQQ1,,,,,,,,English,2020-07-02_11h57.34.626,Experiment_English,3.2.4,Win32,60,,,,,,,,,,,,,,,,,,,,,1,0,340,161,1,339,ratio21_2_3_8.png,,,,,,,,,,,,
,,,,,,,,,,,,All,Half,Less than half,Many,More than half,Few,None,Most,Some,0.527506553,0.259114576,1,0,0,QQQ1,,,,,,,,English,2020-07-02_11h57.34.626,Experiment_English,3.2.4,Win32,60,,,,,,,,,,,,,,,,,,,,,1,0,340,52,1,339,ratioX0_13_13_10.png,,,,,,,,,,,,
,,,,,,,,,,,,Some,More than half,None,Less than half,Few,Most,Half,All,Many,-0.012858047,-0.345052109,1,0,0,QQQ6,,,,,,,,English,2020-07-02_11h57.34.626,Experiment_English,3.2.4,Win32,60,,,,,,,,,,,,,,,,,,,,,1,0,340,219,1,339,ratio31_15_20_10.png,,,,,,,,,,,,
,,,,,,,,,,,,More than half,Half,Most,None,Less than half,Some,Few,All,Many,0.034016955,0.28776041,1,0,0,QQQ4,,,,,,,,English,2020-07-02_11h57.34.626,Experiment_English,3.2.4,Win32,60,,,,,,,,,,,,,,,,,,,,,1,0,340,78,1,339,ratio0Y_0_19_1.png,,,,,,,,,,,,
,,,,,,,,,,,,None,All,More than half,Some,Less than half,Many,Half,Few,Most,0.034016955,0.28776041,1,0,0,QQQ4,,,,,,,,English,2020-07-02_11h57.34.626,Experiment_English,3.2.4,Win32,60,,,,,,,,,,,,,,,,,,,,,1,0,340,202,1,339,ratio31_3_4_8.png,,,,,,,,,,,,
,,,,,,,,,,,,More than half,Half,Some,Few,Less than half,Most,None,Many,All,0.034016955,0.28776041,1,0,0,QQQ4,,,,,,,,English,2020-07-02_11h57.34.626,Experiment_English,3.2.4,Win32,60,,,,,,,,,,,,,,,,,,,,,1,0,340,101,1,339,ratio14_1_5_7.png,,,,,,,,,,,,
,,,,,,,,,,,,All,Half,None,Less than half,Many,Most,Some,Few,More than half,0.088704456,-0.29947919,1,0,0,QQQ6,,,,,,,,English,2020-07-02_11h57.34.626,Experiment_English,3.2.4,Win32,60,,,,,,,,,,,,,,,,,,,,,1,0,340,325,1,339,ratio91_9_10_8.png,,,,,,,,,,,,
,,,,,,,,,,,,Most,More than half,All,Less than half,Few,Half,None,Some,Many,-0.555826813,-0.320312524,1,0,0,QQQ9,,,,,,,,English,2020-07-02_11h57.34.626,Experiment_English,3.2.4,Win32,60,,,,,,,,,,,,,,,,,,,,,1,0,340,230,1,339,ratio32_9_15_1.png,,,,,,,,,,,,
,,,,,,,,,,,,Less than half,Some,None,Most,Many,Few,Half,More than half,All,0.569173221,-0.031250016,1,0,0,QQQ2,,,,,,,,English,2020-07-02_11h57.34.626,Experiment_English,3.2.4,Win32,60,,,,,,,,,,,,,,,,,,,,,1,0,340,87,1,339,ratio13_2_8_8.png,,,,,,,,,,,,
,,,,,,,,,,,,Few,All,Many,More than half,Less than half,Half,Some,None,Most,-0.420410142,-0.337239608,1,0,0,QQQ9,,,,,,,,English,2020-07-02_11h57.34.626,Experiment_English,3.2.4,Win32,60,,,,,,,,,,,,,,,,,,,,,1,0,340,304,1,339,ratio51_5_6_13.png,,,,,,,,,,,,
,,,,,,,,,,,,None,More than half,Few,Half,Many,Less than half,Most,Some,All,0.468912801,-0.203125021,1,0,0,QQQ3,,,,,,,,English,2020-07-02_11h57.34.626,Experiment_English,3.2.4,Win32,60,,,,,,,,,,,,,,,,,,,,,1,0,340,188,1,339,ratio23_4_10_6.png,,,,,,,,,,,,
,,,,,,,,,,,,Few,Many,More than half,Some,Less than half,Half,All,None,Most,0.483235718,-0.016927138,1,0,0,QQQ2,,,,,,,,English,2020-07-02_11h57.34.626,Experiment_English,3.2.4,Win32,60,,,,,,,,,,,,,,,,,,,,,1,0,340,214,1,339,ratio31_12_16_5.png,,,,,,,,,,,,
,,,,,,,,,,,,More than half,Most,Half,Many,Few,All,Less than half,Some,None,0.070475289,0.010416652,1,0,0,QQQ5,,,,,,,,English,2020-07-02_11h57.34.626,Experiment_English,3.2.4,Win32,60,,,,,,,,,,,,,,,,,,,,,1,0,340,204,1,339,ratio31_6_8_1.png,,,,,,,,,,,,
,,,,,,,,,,,,Less than half,None,More than half,Some,Few,Most,Half,All,Many,0.070475289,0.010416652,1,0,0,QQQ5,,,,,,,,English,2020-07-02_11h57.34.626,Experiment_English,3.2.4,Win32,60,,,,,,,,,,,,,,,,,,,,,1,0,340,155,1,339,ratio19_2_20_13.png,,,,,,,,,,,,
,,,,,,,,,,,,Half,Some,More than half,Many,Less than half,Few,Most,All,None,-0.459472643,0.243489556,1,0,0,QQQ7,,,,,,,,English,2020-07-02_11h57.34.626,Experiment_English,3.2.4,Win32,60,,,,,,,,,,,,,,,,,,,,,1,0,340,309,1,339,ratio51_10_12_10.png,,,,,,,,,,,,
,,,,,,,,,,,,More than half,All,Half,None,Most,Many,Few,Some,Less than half,-0.003743463,-0.053385433,1,0,0,QQQ5,,,,,,,,English,2020-07-02_11h57.34.626,Experiment_English,3.2.4,Win32,60,,,,,,,,,,,,,,,,,,,,,1,0,340,177,1,339,ratio21_12_18_1.png,,,,,,,,,,,,
,,,,,,,,,,,,Less than half,All,Some,None,Half,Most,Many,More than half,Few,0.427246133,-0.259114606,1,0,0,QQQ3,,,,,,,,English,2020-07-02_11h57.34.626,Experiment_English,3.2.4,Win32,60,,,,,,,,,,,,,,,,,,,,,1,0,340,223,1,339,ratio32_3_5_5.png,,,,,,,,,,,,
,,,,,,,,,,,,None,Less than half,More than half,Many,Most,Some,All,Few,Half,-0.503743478,-0.006510432,1,0,0,QQQ8,,,,,,,,English,2020-07-02_11h57.34.626,Experiment_English,3.2.4,Win32,60,,,,,,,,,,,,,,,,,,,,,1,0,340,124,1,339,ratio15_1_6_16.png,,,,,,,,,,,,
,,,,,,,,,,,,Few,All,Most,Some,More than half,Half,None,Many,Less than half,0.478027384,0.307291661,1,0,0,QQQ1,,,,,,,,English,2020-07-02_11h57.34.626,Experiment_English,3.2.4,Win32,60,,,,,,,,,,,,,,,,,,,,,1,0,340,1,1,339,ratio12_1_3_7.png,,,,,,,,,,,,
,,,,,,,,,,,,None,All,More than half,Less than half,Few,Many,Half,Some,Most,0.035319038,0.028645819,1,0,0,QQQ5,,,,,,,,English,2020-07-02_11h57.34.626,Experiment_English,3.2.4,Win32,60,,,,,,,,,,,,,,,,,,,,,1,0,340,218,1,339,ratio31_15_20_7.png,,,,,,,,,,,,
,,,,,,,,,,,,All,Half,Less than half,Many,More than half,Most,Some,None,Few,-0.484212228,-0.341145858,1,0,0,QQQ9,,,,,,,,English,2020-07-02_11h57.34.626,Experiment_English,3.2.4,Win32,60,,,,,,,,,,,,,,,,,,,,,1,0,340,274,1,339,ratio41_12_15_9.png,,,,,,,,,,,,
,,,,,,,,,,,,Some,Most,Half,Few,More than half,Many,Less than half,All,None,0.039225288,0.220052055,1,0,0,QQQ4,,,,,,,,English,2020-07-02_11h57.34.626,Experiment_English,3.2.4,Win32,60,,,,,,,,,,,,,,,,,,,,,1,0,340,2,1,339,ratio12_1_3_10.png,,,,,,,,,,,,
,,,,,,,,,,,,Few,Half,All,Most,Less than half,More than half,None,Some,Many,-0.455566393,0.278645827,1,0,0,QQQ7,,,,,,,,English,2020-07-02_11h57.34.626,Experiment_English,3.2.4,Win32,60,,,,,,,,,,,,,,,,,,,,,1,0,340,75,1,339,ratio0Y_0_16_10.png,,,,,,,,,,,,
