continue_mouse.x,continue_mouse.y,continue_mouse.leftButton,continue_mouse.midButton,continue_mouse.rightButton,continue_mouse.clicked_name,continue_mouse_2.x,continue_mouse_2.y,continue_mouse_2.leftButton,continue_mouse_2.midButton,continue_mouse_2.rightButton,continue_mouse_2.clicked_name,Q1,Q2,Q3,Q4,Q5,Q6,Q7,Q8,Q9,select_answer.x,select_answer.y,select_answer.leftButton,select_answer.midButton,select_answer.rightButton,select_answer.clicked_name,trial.thisRepN,trial.thisTrialN,trial.thisN,trial.thisIndex,trial.ran,trial.order,trials,Native tongue*,date,expName,psychopyVersion,OS,frameRate,key_resp.keys,key_resp.rt,Actual_Experiment.thisRepN,Actual_Experiment.thisTrialN,Actual_Experiment.thisN,Actual_Experiment.thisIndex,Actual_Experiment.ran,Actual_Experiment.order,Pic,mouse_pause.x,mouse_pause.y,mouse_pause.leftButton,mouse_pause.midButton,mouse_pause.rightButton,mouse_pause.clicked_name,pause.thisRepN,pause.thisTrialN,pause.thisN,pause.thisIndex,pause.ran,pause.order
0.338109334,-0.416839043,1,0,0,continue_button,0.338109334,-0.416839043,1,0,0,continue_button_2,None,Half,More than half,Some,All,Many,Most,Few,Less than half,0.454060555,0.000971397,1,0,0,QQQ2,1,0,16,4,1,15,ratio34_3_7_3.png,English,2020-07-02_12h33.17.751,Experiment_English,3.2.4,Linux x86_64,60,,,,,,,,,,,,,,,,,,,,,
,,,,,,,,,,,,Half,Few,None,More than half,Many,All,Less than half,Most,Some,0.365977764,0.251925349,1,0,0,QQQ1,1,0,16,2,1,15,ratio43_8_14_19.png,English,2020-07-02_12h33.17.751,Experiment_English,3.2.4,Linux x86_64,60,,,,,,,,,,,,,,,,,,,,,
,,,,,,,,,,,,Few,All,None,Some,Most,Half,Many,Less than half,More than half,-0.493302027,0.028972546,1,0,0,QQQ8,1,0,16,11,1,15,ratio14_1_5_7.png,English,2020-07-02_12h33.17.751,Experiment_English,3.2.4,Linux x86_64,60,,,,,,,,,,,,,,,,,,,,,
,,,,,,,,,,,,Most,Some,Half,None,All,More than half,Few,Many,Less than half,0.098519643,-0.316051245,1,0,0,QQQ6,1,0,16,1,1,15,ratio51_5_6_8.png,English,2020-07-02_12h33.17.751,Experiment_English,3.2.4,Linux x86_64,60,,,,,,,,,,,,,,,,,,,,,
,,,,,,,,,,,,Most,Half,Less than half,All,Some,None,Few,Many,More than half,0.477835496,-0.217274348,1,0,0,QQQ3,1,0,16,7,1,15,ratio23_2_5_8.png,English,2020-07-02_12h33.17.751,Experiment_English,3.2.4,Linux x86_64,60,,,,,,,,,,,,,,,,,,,,,
,,,,,,,,,,,,Some,Less than half,Many,More than half,All,Few,None,Half,Most,-0.430653969,-0.044139465,1,0,0,QQQ8,,,,,,,,English,2020-07-02_12h33.17.751,Experiment_English,3.2.4,Linux x86_64,60,b,13.30200028,1,0,340,23,1,339,ratio11_3_6_9.png,,,,,,,,,,,,
,,,,,,,,,,,,More than half,None,Less than half,All,Few,Most,Some,Half,Many,0.559933821,0.29555275,1,0,0,QQQ1,,,,,,,,English,2020-07-02_12h33.17.751,Experiment_English,3.2.4,Linux x86_64,60,,,1,0,340,262,1,339,ratio41_4_5_4.png,,,,,,,,,,,,
,,,,,,,,,,,,Less than half,All,Half,Most,Many,None,More than half,Few,Some,-0.53866752,-0.011151552,1,0,0,QQQ8,,,,,,,,English,2020-07-02_12h33.17.751,Experiment_English,3.2.4,Linux x86_64,60,,,1,0,340,113,1,339,ratio14_3_15_8.png,,,,,,,,,,,,
,,,,,,,,,,,,Most,Some,Half,None,Less than half,Many,All,Few,More than half,0.011105935,0.216449122,1,0,0,QQQ4,,,,,,,,English,2020-07-02_12h33.17.751,Experiment_English,3.2.4,Linux x86_64,60,,,1,0,340,74,1,339,ratio0Y_0_15_10.png,,,,,,,,,,,,
,,,,,,,,,,,,Few,Half,Less than half,All,Many,Most,Some,More than half,None,0.531429291,0.308990955,1,0,0,QQQ1,,,,,,,,English,2020-07-02_12h33.17.751,Experiment_English,3.2.4,Linux x86_64,60,,,1,0,340,156,1,339,ratio19_2_20_14.png,,,,,,,,,,,,
,,,,,,,,,,,,Half,All,Most,Some,Few,More than half,Many,None,Less than half,-0.354710102,0.029349963,1,0,0,QQQ8,,,,,,,,English,2020-07-02_12h33.17.751,Experiment_English,3.2.4,Linux x86_64,60,,,1,0,340,66,1,339,ratio0Y_0_9_8.png,,,,,,,,,,,,
,,,,,,,,,,,,Less than half,Half,Most,All,Few,None,Many,More than half,Some,-0.406419754,-0.323538542,1,0,0,QQQ9,,,,,,,,English,2020-07-02_12h33.17.751,Experiment_English,3.2.4,Linux x86_64,60,,,1,0,340,15,1,339,ratio12_5_15_5.png,,,,,,,,,,,,
,,,,,,,,,,,,Few,More than half,Half,Some,Many,None,All,Less than half,Most,-0.400179545,-0.021496336,1,0,0,QQQ8,,,,,,,,English,2020-07-02_12h33.17.751,Experiment_English,3.2.4,Linux x86_64,60,,,1,0,340,325,1,339,ratio91_9_10_8.png,,,,,,,,,,,,
,,,,,,,,,,,,All,Half,Less than half,More than half,Few,None,Many,Some,Most,0.497821331,-0.238147338,1,0,0,QQQ3,,,,,,,,English,2020-07-02_12h33.17.751,Experiment_English,3.2.4,Linux x86_64,60,,,1,0,340,190,1,339,ratio23_6_15_3.png,,,,,,,,,,,,
,,,,,,,,,,,,Few,Some,Many,Less than half,All,More than half,Half,Most,None,0.109562874,-0.05072995,1,0,0,QQQ5,,,,,,,,English,2020-07-02_12h33.17.751,Experiment_English,3.2.4,Linux x86_64,60,,,1,0,340,51,1,339,ratioX0_12_12_9.png,,,,,,,,,,,,
,,,,,,,,,,,,Half,Less than half,All,More than half,Few,Some,Most,Many,None,0.089626471,-0.017899752,1,0,0,QQQ5,,,,,,,,English,2020-07-02_12h33.17.751,Experiment_English,3.2.4,Linux x86_64,60,,,1,0,340,100,1,339,ratio14_1_5_3.png,,,,,,,,,,,,
,,,,,,,,,,,,More than half,All,Half,Less than half,Some,Most,None,Many,Few,-0.471086542,-0.068891764,1,0,0,QQQ8,,,,,,,,English,2020-07-02_12h33.17.751,Experiment_English,3.2.4,Linux x86_64,60,,,1,0,340,53,1,339,ratioX0_14_14_8.png,,,,,,,,,,,,
,,,,,,,,,,,,Some,Few,Less than half,All,More than half,Most,Many,Half,None,-0.48440361,0.01384751,1,0,0,QQQ8,,,,,,,,English,2020-07-02_12h33.17.751,Experiment_English,3.2.4,Linux x86_64,60,,,1,0,340,195,1,339,ratio23_8_20_1.png,,,,,,,,,,,,
,,,,,,,,,,,,Some,More than half,Few,Many,All,Most,None,Less than half,Half,-0.471125921,-0.327925523,1,0,0,QQQ9,,,,,,,,English,2020-07-02_12h33.17.751,Experiment_English,3.2.4,Linux x86_64,60,,,1,0,340,257,1,339,ratio34_6_14_12.png,,,,,,,,,,,,
,,,,,,,,,,,,Less than half,More than half,Most,Many,Few,None,Half,All,Some,0.045788129,-0.025747736,1,0,0,QQQ5,,,,,,,,English,2020-07-02_12h33.17.751,Experiment_English,3.2.4,Linux x86_64,60,,,1,0,340,130,1,339,ratio15_2_12_12.png,,,,,,,,,,,,
,,,,,,,,,,,,Most,Many,None,Less than half,More than half,Half,Few,Some,All,0.407619317,-0.0658952,1,0,0,QQQ2,,,,,,,,English,2020-07-02_12h33.17.751,Experiment_English,3.2.4,Linux x86_64,60,,,1,0,340,326,1,339,ratio91_9_10_10.png,,,,,,,,,,,,
,,,,,,,,,,,,Most,Many,Half,More than half,Less than half,None,Some,All,Few,0.087796291,0.262869497,1,0,0,QQQ4,,,,,,,,English,2020-07-02_12h33.17.751,Experiment_English,3.2.4,Linux x86_64,60,,,1,0,340,222,1,339,ratio32_3_5_4.png,,,,,,,,,,,,
,,,,,,,,,,,,All,Few,More than half,Half,Many,Most,None,Some,Less than half,0.018133163,0.371053676,1,0,0,QQQ4,,,,,,,,English,2020-07-02_12h33.17.751,Experiment_English,3.2.4,Linux x86_64,60,,,1,0,340,250,1,339,ratio34_6_14_1.png,,,,,,,,,,,,
,,,,,,,,,,,,Some,None,All,Half,Less than half,Most,Few,More than half,Many,-0.355492314,0.063369155,1,0,0,QQQ8,,,,,,,,English,2020-07-02_12h33.17.751,Experiment_English,3.2.4,Linux x86_64,60,,,1,0,340,33,1,339,ratio11_7_14_8.png,,,,,,,,,,,,
,,,,,,,,,,,,Many,Less than half,Half,All,More than half,None,Some,Most,Few,0.4561855,0.262111902,1,0,0,QQQ1,,,,,,,,English,2020-07-02_12h33.17.751,Experiment_English,3.2.4,Linux x86_64,60,,,1,0,340,217,1,339,ratio31_15_20_5.png,,,,,,,,,,,,
,,,,,,,,,,,,None,Less than half,Half,More than half,Few,Many,All,Some,Most,-0.050432285,-0.308005492,1,0,0,QQQ6,,,,,,,,English,2020-07-02_12h33.17.751,Experiment_English,3.2.4,Linux x86_64,60,,,1,0,340,264,1,339,ratio41_4_5_6.png,,,,,,,,,,,,
,,,,,,,,,,,,Half,Less than half,All,Most,None,More than half,Many,Some,Few,-0.374580622,0.227945646,1,0,0,QQQ7,,,,,,,,English,2020-07-02_12h33.17.751,Experiment_English,3.2.4,Linux x86_64,60,,,1,0,340,204,1,339,ratio31_6_8_1.png,,,,,,,,,,,,
,,,,,,,,,,,,Half,Many,None,Few,Most,Some,Less than half,All,More than half,0.010546923,0.267821292,1,0,0,QQQ4,,,,,,,,English,2020-07-02_12h33.17.751,Experiment_English,3.2.4,Linux x86_64,60,,,1,0,340,158,1,339,ratio19_2_20_17.png,,,,,,,,,,,,
,,,,,,,,,,,,Few,All,Half,Some,More than half,None,Less than half,Most,Many,0.040889581,-0.03997306,1,0,0,QQQ5,,,,,,,,English,2020-07-02_12h33.17.751,Experiment_English,3.2.4,Linux x86_64,60,,,1,0,340,218,1,339,ratio31_15_20_7.png,,,,,,,,,,,,
,,,,,,,,,,,,All,Many,Half,More than half,Few,None,Less than half,Some,Most,0.42270422,-0.057542602,1,0,0,QQQ2,,,,,,,,English,2020-07-02_12h33.17.751,Experiment_English,3.2.4,Linux x86_64,60,,,1,0,340,308,1,339,ratio51_10_12_9.png,,,,,,,,,,,,
,,,,,,,,,,,,Many,None,Few,Most,Some,Less than half,All,More than half,Half,0.552696228,0.281460623,1,0,0,QQQ1,,,,,,,,English,2020-07-02_12h33.17.751,Experiment_English,3.2.4,Linux x86_64,60,,,1,0,340,237,1,339,ratio32_12_20_5.png,,,,,,,,,,,,
,,,,,,,,,,,,None,Few,More than half,Many,Less than half,All,Half,Some,Most,0.089782715,0.265589476,1,0,0,QQQ4,,,,,,,,English,2020-07-02_12h33.17.751,Experiment_English,3.2.4,Linux x86_64,60,,,1,0,340,319,1,339,ratio51_15_18_20.png,,,,,,,,,,,,
,,,,,,,,,,,,Half,Many,Few,Some,Less than half,More than half,All,None,Most,-0.481587887,-0.065288981,1,0,0,QQQ8,,,,,,,,English,2020-07-02_12h33.17.751,Experiment_English,3.2.4,Linux x86_64,60,,,1,0,340,78,1,339,ratio0Y_0_19_1.png,,,,,,,,,,,,
,,,,,,,,,,,,Most,Half,All,Many,More than half,Less than half,None,Some,Few,0.006743431,0.034436862,1,0,0,QQQ5,,,,,,,,English,2020-07-02_12h33.17.751,Experiment_English,3.2.4,Linux x86_64,60,,,1,0,340,252,1,339,ratio34_6_14_3.png,,,,,,,,,,,,
,,,,,,,,,,,,Some,More than half,Half,Few,Many,Less than half,None,Most,All,0.359645844,-0.023431381,1,0,0,QQQ2,,,,,,,,English,2020-07-02_12h33.17.751,Experiment_English,3.2.4,Linux x86_64,60,,,1,0,340,164,1,339,ratio21_4_6_6.png,,,,,,,,,,,,
,,,,,,,,,,,,All,Few,Half,Many,Some,None,Most,Less than half,More than half,-0.485276024,0.256730596,1,0,0,QQQ7,,,,,,,,English,2020-07-02_12h33.17.751,Experiment_English,3.2.4,Linux x86_64,60,,,1,0,340,229,1,339,ratio32_6_10_9.png,,,,,,,,,,,,
,,,,,,,,,,,,More than half,None,Less than half,Most,All,Many,Half,Some,Few,-0.391210119,-0.28022631,1,0,0,QQQ9,,,,,,,,English,2020-07-02_12h33.17.751,Experiment_English,3.2.4,Linux x86_64,60,,,1,0,340,148,1,339,ratio19_1_10_19.png,,,,,,,,,,,,
,,,,,,,,,,,,Half,All,More than half,Most,Many,None,Less than half,Few,Some,0.381871541,0.039033175,1,0,0,QQQ2,,,,,,,,English,2020-07-02_12h33.17.751,Experiment_English,3.2.4,Linux x86_64,60,,,1,0,340,47,1,339,ratioX0_9_9_4.png,,,,,,,,,,,,
,,,,,,,,,,,,Few,Less than half,Most,Some,More than half,Half,Many,All,None,-0.446890513,0.324132442,1,0,0,QQQ7,,,,,,,,English,2020-07-02_12h33.17.751,Experiment_English,3.2.4,Linux x86_64,60,,,1,0,340,234,1,339,ratio32_9_15_10.png,0.315809329,-0.421870788,1,0,0,continue_button_pause,1,0,1,0,1,0
,,,,,,,,,,,,,,,,,,,,,,,,,,,,,,,,,,English,2020-07-02_12h33.17.751,Experiment_English,3.2.4,Linux x86_64,60,,,1,0,340,234,1,339,ratio32_9_15_10.png,,,,,,,,,,,,
,,,,,,,,,,,,Less than half,All,None,Few,More than half,Most,Many,Some,Half,-0.438214223,0.315172474,1,0,0,QQQ7,,,,,,,,English,2020-07-02_12h33.17.751,Experiment_English,3.2.4,Linux x86_64,60,,,1,0,340,213,1,339,ratio31_12_16_2.png,,,,,,,,,,,,
,,,,,,,,,,,,Less than half,Many,Most,Some,Few,All,Half,None,More than half,-0.358882944,-0.312498808,1,0,0,QQQ9,,,,,,,,English,2020-07-02_12h33.17.751,Experiment_English,3.2.4,Linux x86_64,60,,,1,0,340,287,1,339,ratio43_4_7_17.png,,,,,,,,,,,,
,,,,,,,,,,,,Half,Most,All,Less than half,None,Many,More than half,Few,Some,-0.51028196,-0.001235565,1,0,0,QQQ8,,,,,,,,English,2020-07-02_12h33.17.751,Experiment_English,3.2.4,Linux x86_64,60,,,1,0,340,127,1,339,ratio15_2_12_2.png,,,,,,,,,,,,
,,,,,,,,,,,,Less than half,Most,All,Some,Many,Few,Half,More than half,None,0.060072502,-0.302343527,1,0,0,QQQ6,,,,,,,,English,2020-07-02_12h33.17.751,Experiment_English,3.2.4,Linux x86_64,60,,,1,0,340,155,1,339,ratio19_2_20_13.png,,,,,,,,,,,,
,,,,,,,,,,,,Many,Less than half,More than half,Some,Few,Half,None,All,Most,0.438287735,-0.293992043,1,0,0,QQQ3,,,,,,,,English,2020-07-02_12h33.17.751,Experiment_English,3.2.4,Linux x86_64,60,,,1,0,340,230,1,339,ratio32_9_15_1.png,,,,,,,,,,,,
,,,,,,,,,,,,All,Half,More than half,None,Few,Some,Most,Less than half,Many,0.419443766,-0.289393028,1,0,0,QQQ3,,,,,,,,English,2020-07-02_12h33.17.751,Experiment_English,3.2.4,Linux x86_64,60,,,1,0,340,227,1,339,ratio32_6_10_6.png,,,,,,,,,,,,
,,,,,,,,,,,,Few,Some,None,More than half,All,Half,Many,Less than half,Most,0.47009023,0.22233355,1,0,0,QQQ1,,,,,,,,English,2020-07-02_12h33.17.751,Experiment_English,3.2.4,Linux x86_64,60,,,1,0,340,140,1,339,ratio19_1_10_1.png,,,,,,,,,,,,
,,,,,,,,,,,,Half,Few,Most,Some,Many,Less than half,All,None,More than half,0.09027338,-0.031794548,1,0,0,QQQ5,,,,,,,,English,2020-07-02_12h33.17.751,Experiment_English,3.2.4,Linux x86_64,60,,,1,0,340,323,1,339,ratio91_9_10_5.png,,,,,,,,,,,,
,,,,,,,,,,,,Few,More than half,None,Many,Some,Half,Less than half,Most,All,0.477681319,0.242095629,1,0,0,QQQ1,,,,,,,,English,2020-07-02_12h33.17.751,Experiment_English,3.2.4,Linux x86_64,60,,,1,0,340,122,1,339,ratio15_1_6_7.png,,,,,,,,,,,,
,,,,,,,,,,,,Many,None,Less than half,Some,Half,Few,More than half,All,Most,-0.014723221,0.029085239,1,0,0,QQQ5,,,,,,,,English,2020-07-02_12h33.17.751,Experiment_English,3.2.4,Linux x86_64,60,,,1,0,340,243,1,339,ratio34_3_7_8.png,,,,,,,,,,,,
,,,,,,,,,,,,Half,All,Few,None,Less than half,More than half,Many,Most,Some,-0.439118187,0.237511694,1,0,0,QQQ7,,,,,,,,English,2020-07-02_12h33.17.751,Experiment_English,3.2.4,Linux x86_64,60,,,1,0,340,303,1,339,ratio51_5_6_6.png,,,,,,,,,,,,
,,,,,,,,,,,,Some,Few,Half,Most,Less than half,All,None,More than half,Many,0.15177242,0.273589154,1,0,0,QQQ4,,,,,,,,English,2020-07-02_12h33.17.751,Experiment_English,3.2.4,Linux x86_64,60,,,1,0,340,216,1,339,ratio31_15_20_3.png,,,,,,,,,,,,
,,,,,,,,,,,,Many,All,Less than half,None,Some,Most,More than half,Half,Few,0.514380614,-0.293363412,1,0,0,QQQ3,,,,,,,,English,2020-07-02_12h33.17.751,Experiment_English,3.2.4,Linux x86_64,60,,,1,0,340,282,1,339,ratio43_4_7_7.png,,,,,,,,,,,,
,,,,,,,,,,,,Many,Less than half,Some,All,More than half,None,Half,Most,Few,0.101624409,-0.052256346,1,0,0,QQQ5,,,,,,,,English,2020-07-02_12h33.17.751,Experiment_English,3.2.4,Linux x86_64,60,,,1,0,340,180,1,339,ratio23_2_5_4.png,,,,,,,,,,,,
,,,,,,,,,,,,Most,Less than half,More than half,None,All,Many,Half,Few,Some,0.45942084,-0.240393718,1,0,0,QQQ3,,,,,,,,English,2020-07-02_12h33.17.751,Experiment_English,3.2.4,Linux x86_64,60,,,1,0,340,27,1,339,ratio11_5_10_7.png,,,,,,,,,,,,
,,,,,,,,,,,,None,All,Many,Some,Half,Most,Less than half,Few,More than half,-0.43618381,-0.238838275,1,0,0,QQQ9,,,,,,,,English,2020-07-02_12h33.17.751,Experiment_English,3.2.4,Linux x86_64,60,,,1,0,340,170,1,339,ratio21_6_9_8.png,,,,,,,,,,,,
,,,,,,,,,,,,Most,Less than half,More than half,Many,All,Some,Half,None,Few,-0.005547523,0.273393353,1,0,0,QQQ4,,,,,,,,English,2020-07-02_12h33.17.751,Experiment_English,3.2.4,Linux x86_64,60,,,1,0,340,318,1,339,ratio51_15_18_18.png,,,,,,,,,,,,
,,,,,,,,,,,,Many,Less than half,Most,Few,More than half,Some,None,Half,All,-0.472831766,-0.22557497,1,0,0,QQQ9,,,,,,,,English,2020-07-02_12h33.17.751,Experiment_English,3.2.4,Linux x86_64,60,,,1,0,340,44,1,339,ratioX0_7_7_5.png,,,,,,,,,,,,
,,,,,,,,,,,,None,More than half,Half,All,Few,Less than half,Many,Most,Some,-0.454520067,-0.097148856,1,0,0,QQQ8,,,,,,,,English,2020-07-02_12h33.17.751,Experiment_English,3.2.4,Linux x86_64,60,,,1,0,340,339,1,339,ratio91_18_20_19.png,,,,,,,,,,,,
,,,,,,,,,,,,Most,Half,Many,Less than half,Few,More than half,Some,All,None,-0.379823565,0.063159903,1,0,0,QQQ8,,,,,,,,English,2020-07-02_12h33.17.751,Experiment_English,3.2.4,Linux x86_64,60,,,1,0,340,52,1,339,ratioX0_13_13_10.png,,,,,,,,,,,,
,,,,,,,,,,,,All,Most,Half,More than half,Many,Less than half,None,Some,Few,-0.042780399,-0.294346491,1,0,0,QQQ6,,,,,,,,English,2020-07-02_12h33.17.751,Experiment_English,3.2.4,Linux x86_64,60,,,1,0,340,94,1,339,ratio13_4_16_8.png,,,,,,,,,,,,
,,,,,,,,,,,,Most,All,Many,More than half,Half,Less than half,Some,None,Few,-0.004522244,0.288485209,1,0,0,QQQ4,,,,,,,,English,2020-07-02_12h33.17.751,Experiment_English,3.2.4,Linux x86_64,60,,,1,0,340,208,1,339,ratio31_9_12_3.png,,,,,,,,,,,,
,,,,,,,,,,,,Half,Many,More than half,Less than half,Most,None,All,Few,Some,0.453498205,-0.337615967,1,0,0,QQQ3,,,,,,,,English,2020-07-02_12h33.17.751,Experiment_English,3.2.4,Linux x86_64,60,,,1,0,340,235,1,339,ratio32_12_20_1.png,,,,,,,,,,,,
,,,,,,,,,,,,Less than half,None,Half,Some,All,More than half,Many,Most,Few,-0.34873422,0.266405284,1,0,0,QQQ7,,,,,,,,English,2020-07-02_12h33.17.751,Experiment_English,3.2.4,Linux x86_64,60,,,1,0,340,231,1,339,ratio32_9_15_2.png,,,,,,,,,,,,
,,,,,,,,,,,,None,Less than half,Half,Most,Many,More than half,All,Some,Few,-0.477590243,-0.299236774,1,0,0,QQQ9,,,,,,,,English,2020-07-02_12h33.17.751,Experiment_English,3.2.4,Linux x86_64,60,,,1,0,340,1,1,339,ratio12_1_3_7.png,,,,,,,,,,,,
,,,,,,,,,,,,Some,Less than half,None,More than half,Many,Most,All,Half,Few,0.486954689,0.003439943,1,0,0,QQQ2,,,,,,,,English,2020-07-02_12h33.17.751,Experiment_English,3.2.4,Linux x86_64,60,,,1,0,340,254,1,339,ratio34_6_14_9.png,,,,,,,,,,,,
,,,,,,,,,,,,None,Half,Few,All,Some,More than half,Most,Less than half,Many,0.361284018,-0.240646442,1,0,0,QQQ3,,,,,,,,English,2020-07-02_12h33.17.751,Experiment_English,3.2.4,Linux x86_64,60,,,1,0,340,132,1,339,ratio15_2_12_16.png,,,,,,,,,,,,
,,,,,,,,,,,,Most,Few,Half,More than half,Some,Less than half,None,All,Many,0.459285736,0.020484646,1,0,0,QQQ2,,,,,,,,English,2020-07-02_12h33.17.751,Experiment_English,3.2.4,Linux x86_64,60,,,1,0,340,108,1,339,ratio14_2_10_6.png,,,,,,,,,,,,
,,,,,,,,,,,,None,All,More than half,Most,Many,Half,Less than half,Few,Some,0.031192462,-0.025857608,1,0,0,QQQ5,,,,,,,,English,2020-07-02_12h33.17.751,Experiment_English,3.2.4,Linux x86_64,60,,,1,0,340,272,1,339,ratio41_12_15_7.png,,,,,,,,,,,,
,,,,,,,,,,,,More than half,Half,Many,Some,All,Few,Less than half,Most,None,0.408021609,0.297044059,1,0,0,QQQ1,,,,,,,,English,2020-07-02_12h33.17.751,Experiment_English,3.2.4,Linux x86_64,60,,,1,0,340,221,1,339,ratio32_3_5_3.png,,,,,,,,,,,,
,,,,,,,,,,,,Most,Few,Some,Many,Half,More than half,Less than half,All,None,0.044560035,-0.014151494,1,0,0,QQQ5,,,,,,,,English,2020-07-02_12h33.17.751,Experiment_English,3.2.4,Linux x86_64,60,,,1,0,340,22,1,339,ratio11_3_6_6.png,,,,,,,,,,,,
,,,,,,,,,,,,Most,All,Less than half,More than half,Some,Half,None,Many,Few,-0.433260083,0.232765079,1,0,0,QQQ7,,,,,,,,English,2020-07-02_12h33.17.751,Experiment_English,3.2.4,Linux x86_64,60,,,1,0,340,64,1,339,ratio0Y_0_7_1.png,,,,,,,,,,,,
,,,,,,,,,,,,Some,Few,Many,Most,Less than half,All,Half,More than half,None,0.561529001,0.015791814,1,0,0,QQQ2,,,,,,,,English,2020-07-02_12h33.17.751,Experiment_English,3.2.4,Linux x86_64,60,,,1,0,340,13,1,339,ratio12_5_15_3.png,,,,,,,,,,,,
,,,,,,,,,,,,Some,Less than half,All,Most,Half,Few,Many,None,More than half,-0.429492633,-0.032932997,1,0,0,QQQ8,,,,,,,,English,2020-07-02_12h33.17.751,Experiment_English,3.2.4,Linux x86_64,60,,,1,0,340,65,1,339,ratio0Y_0_8_4.png,0.368242661,-0.394970814,1,0,0,continue_button_pause,1,0,1,0,1,0
,,,,,,,,,,,,,,,,,,,,,,,,,,,,,,,,,,English,2020-07-02_12h33.17.751,Experiment_English,3.2.4,Linux x86_64,60,,,1,0,340,65,1,339,ratio0Y_0_8_4.png,,,,,,,,,,,,
,,,,,,,,,,,,None,Few,All,Half,More than half,Many,Some,Most,Less than half,-0.426296194,-0.28330334,1,0,0,QQQ9,,,,,,,,English,2020-07-02_12h33.17.751,Experiment_English,3.2.4,Linux x86_64,60,,,1,0,340,19,1,339,ratio12_6_18_9.png,,,,,,,,,,,,
,,,,,,,,,,,,Some,Many,Half,None,Less than half,All,Few,Most,More than half,-0.566906472,0.086170435,1,0,0,QQQ8,,,,,,,,English,2020-07-02_12h33.17.751,Experiment_English,3.2.4,Linux x86_64,60,,,1,0,340,302,1,339,ratio51_5_6_5.png,,,,,,,,,,,,
,,,,,,,,,,,,Most,None,Half,Some,Less than half,All,Few,Many,More than half,-0.552955508,0.058946888,1,0,0,QQQ8,,,,,,,,English,2020-07-02_12h33.17.751,Experiment_English,3.2.4,Linux x86_64,60,,,1,0,340,269,1,339,ratio41_8_10_6.png,,,,,,,,,,,,
,,,,,,,,,,,,Many,None,Few,Most,Some,All,Half,More than half,Less than half,0.445749442,-0.24322025,1,0,0,QQQ3,,,,,,,,English,2020-07-02_12h33.17.751,Experiment_English,3.2.4,Linux x86_64,60,,,1,0,340,95,1,339,ratio13_4_16_10.png,,,,,,,,,,,,
,,,,,,,,,,,,Few,Most,Many,Half,None,Less than half,Some,More than half,All,0.433676004,0.283087631,1,0,0,QQQ1,,,,,,,,English,2020-07-02_12h33.17.751,Experiment_English,3.2.4,Linux x86_64,60,,,1,0,340,138,1,339,ratio15_3_18_17.png,,,,,,,,,,,,
,,,,,,,,,,,,Half,Some,More than half,None,All,Many,Most,Few,Less than half,-0.373583953,-0.002238274,1,0,0,QQQ8,,,,,,,,English,2020-07-02_12h33.17.751,Experiment_English,3.2.4,Linux x86_64,60,,,1,0,340,3,1,339,ratio12_2_6_3.png,,,,,,,,,,,,
,,,,,,,,,,,,None,More than half,Few,Most,Half,All,Many,Less than half,Some,0.072321415,-0.318497658,1,0,0,QQQ6,,,,,,,,English,2020-07-02_12h33.17.751,Experiment_English,3.2.4,Linux x86_64,60,,,1,0,340,55,1,339,ratioX0_16_16_3.png,,,,,,,,,,,,
,,,,,,,,,,,,All,Half,None,More than half,Many,Less than half,Most,Some,Few,0.009091218,0.318941653,1,0,0,QQQ4,,,,,,,,English,2020-07-02_12h33.17.751,Experiment_English,3.2.4,Linux x86_64,60,,,1,0,340,296,1,339,ratio43_8_14_12.png,,,,,,,,,,,,
,,,,,,,,,,,,All,More than half,None,Few,Some,Less than half,Most,Many,Half,0.46301206,-0.224544843,1,0,0,QQQ3,,,,,,,,English,2020-07-02_12h33.17.751,Experiment_English,3.2.4,Linux x86_64,60,,,1,0,340,68,1,339,ratio0Y_0_11_3.png,,,,,,,,,,,,
,,,,,,,,,,,,More than half,Most,None,Some,Many,Less than half,Half,All,Few,0.024707317,-0.262071927,1,0,0,QQQ6,,,,,,,,English,2020-07-02_12h33.17.751,Experiment_English,3.2.4,Linux x86_64,60,,,1,0,340,258,1,339,ratio34_6_14_14.png,,,,,,,,,,,,
,,,,,,,,,,,,Most,Half,More than half,Less than half,None,Many,All,Some,Few,-0.068444411,-0.272436142,1,0,0,QQQ6,,,,,,,,English,2020-07-02_12h33.17.751,Experiment_English,3.2.4,Linux x86_64,60,,,1,0,340,315,1,339,ratio51_15_18_10.png,,,,,,,,,,,,
,,,,,,,,,,,,Few,Less than half,None,Many,All,More than half,Most,Some,Half,0.454865456,-0.30796504,1,0,0,QQQ3,,,,,,,,English,2020-07-02_12h33.17.751,Experiment_English,3.2.4,Linux x86_64,60,,,1,0,340,73,1,339,ratio0Y_0_14_7.png,,,,,,,,,,,,
,,,,,,,,,,,,None,Some,Most,Half,Many,All,Few,Less than half,More than half,-0.489237905,0.249836723,1,0,0,QQQ7,,,,,,,,English,2020-07-02_12h33.17.751,Experiment_English,3.2.4,Linux x86_64,60,,,1,0,340,111,1,339,ratio14_3_15_3.png,,,,,,,,,,,,
,,,,,,,,,,,,All,Few,Most,Less than half,None,Half,More than half,Many,Some,-0.061688185,0.041663488,1,0,0,QQQ5,,,,,,,,English,2020-07-02_12h33.17.751,Experiment_English,3.2.4,Linux x86_64,60,,,1,0,340,79,1,339,ratio0Y_0_20_4.png,,,,,,,,,,,,
,,,,,,,,,,,,Less than half,Many,Most,All,None,Half,More than half,Some,Few,-0.433545828,0.219372193,1,0,0,QQQ7,,,,,,,,English,2020-07-02_12h33.17.751,Experiment_English,3.2.4,Linux x86_64,60,,,1,0,340,293,1,339,ratio43_8_14_7.png,,,,,,,,,,,,
,,,,,,,,,,,,More than half,Most,Less than half,All,Half,Few,Some,None,Many,0.043816725,-0.200463216,1,0,0,QQQ6,,,,,,,,English,2020-07-02_12h33.17.751,Experiment_English,3.2.4,Linux x86_64,60,,,1,0,340,124,1,339,ratio15_1_6_16.png,,,,,,,,,,,,
,,,,,,,,,,,,More than half,Less than half,Half,Most,None,All,Some,Many,Few,-0.384527723,-0.290076097,1,0,0,QQQ9,,,,,,,,English,2020-07-02_12h33.17.751,Experiment_English,3.2.4,Linux x86_64,60,,,1,0,340,84,1,339,ratio13_2_8_1.png,,,,,,,,,,,,
,,,,,,,,,,,,All,Few,More than half,Less than half,Many,None,Some,Half,Most,-0.007821321,0.267343938,1,0,0,QQQ4,,,,,,,,English,2020-07-02_12h33.17.751,Experiment_English,3.2.4,Linux x86_64,60,,,1,0,340,97,1,339,ratio13_5_20_2.png,,,,,,,,,,,,
,,,,,,,,,,,,Few,Many,None,Less than half,All,Some,Most,More than half,Half,-0.499956648,0.008500338,1,0,0,QQQ8,,,,,,,,English,2020-07-02_12h33.17.751,Experiment_English,3.2.4,Linux x86_64,60,,,1,0,340,238,1,339,ratio32_12_20_9.png,,,,,,,,,,,,
,,,,,,,,,,,,Most,Many,Less than half,Some,All,None,Half,More than half,Few,0.07687815,-0.056749582,1,0,0,QQQ5,,,,,,,,English,2020-07-02_12h33.17.751,Experiment_English,3.2.4,Linux x86_64,60,,,1,0,340,45,1,339,ratioX0_8_8_3.png,,,,,,,,,,,,
,,,,,,,,,,,,Many,Some,Most,Few,Half,None,All,More than half,Less than half,-0.436437766,-0.269262234,1,0,0,QQQ9,,,,,,,,English,2020-07-02_12h33.17.751,Experiment_English,3.2.4,Linux x86_64,60,,,1,0,340,182,1,339,ratio23_2_5_7.png,,,,,,,,,,,,
,,,,,,,,,,,,Many,More than half,Less than half,None,All,Most,Some,Half,Few,-0.034909646,-0.340955814,1,0,0,QQQ6,,,,,,,,English,2020-07-02_12h33.17.751,Experiment_English,3.2.4,Linux x86_64,60,,,1,0,340,294,1,339,ratio43_8_14_9.png,,,,,,,,,,,,
,,,,,,,,,,,,Few,All,Some,Half,None,Less than half,Most,More than half,Many,0.034818729,0.01737241,1,0,0,QQQ5,,,,,,,,English,2020-07-02_12h33.17.751,Experiment_English,3.2.4,Linux x86_64,60,,,1,0,340,71,1,339,ratio0Y_0_12_10.png,,,,,,,,,,,,
,,,,,,,,,,,,More than half,Half,Few,None,All,Most,Many,Some,Less than half,-0.421394467,0.300627808,1,0,0,QQQ7,,,,,,,,English,2020-07-02_12h33.17.751,Experiment_English,3.2.4,Linux x86_64,60,,,1,0,340,278,1,339,ratio41_16_20_9.png,,,,,,,,,,,,
,,,,,,,,,,,,Most,Few,Half,Less than half,Some,Many,None,All,More than half,0.364338239,-0.038318435,1,0,0,QQQ2,,,,,,,,English,2020-07-02_12h33.17.751,Experiment_English,3.2.4,Linux x86_64,60,,,1,0,340,16,1,339,ratio12_5_15_6.png,,,,,,,,,,,,
,,,,,,,,,,,,All,More than half,Many,None,Few,Less than half,Half,Most,Some,-0.505303462,0.057031552,1,0,0,QQQ8,,,,,,,,English,2020-07-02_12h33.17.751,Experiment_English,3.2.4,Linux x86_64,60,,,1,0,340,316,1,339,ratio51_15_18_11.png,,,,,,,,,,,,
,,,,,,,,,,,,Most,Half,None,Less than half,Many,Some,All,Few,More than half,0.471936544,-0.023796479,1,0,0,QQQ2,,,,,,,,English,2020-07-02_12h33.17.751,Experiment_English,3.2.4,Linux x86_64,60,,,1,0,340,34,1,339,ratio11_8_16_8.png,,,,,,,,,,,,
,,,,,,,,,,,,Some,Most,Half,All,Less than half,None,Few,More than half,Many,-0.022980611,-0.057720224,1,0,0,QQQ5,,,,,,,,English,2020-07-02_12h33.17.751,Experiment_English,3.2.4,Linux x86_64,60,,,1,0,340,253,1,339,ratio34_6_14_5.png,,,,,,,,,,,,
,,,,,,,,,,,,Many,Most,More than half,None,Half,Less than half,All,Some,Few,-0.450335979,-0.288783153,1,0,0,QQQ9,,,,,,,,English,2020-07-02_12h33.17.751,Experiment_English,3.2.4,Linux x86_64,60,,,1,0,340,136,1,339,ratio15_3_18_8.png,,,,,,,,,,,,
,,,,,,,,,,,,Less than half,None,Some,Many,Few,All,Half,Most,More than half,0.478581905,-0.004362941,1,0,0,QQQ2,,,,,,,,English,2020-07-02_12h33.17.751,Experiment_English,3.2.4,Linux x86_64,60,,,1,0,340,67,1,339,ratio0Y_0_10_10.png,,,,,,,,,,,,
,,,,,,,,,,,,Most,All,More than half,Many,Some,Less than half,Half,Few,None,-0.449211836,-0.012614409,1,0,0,QQQ8,,,,,,,,English,2020-07-02_12h33.17.751,Experiment_English,3.2.4,Linux x86_64,60,,,1,0,340,12,1,339,ratio12_4_12_10.png,,,,,,,,,,,,
,,,,,,,,,,,,Less than half,Many,Some,More than half,Half,Most,All,Few,None,-0.449211836,-0.012614409,1,0,0,QQQ8,,,,,,,,English,2020-07-02_12h33.17.751,Experiment_English,3.2.4,Linux x86_64,60,,,1,0,340,133,1,339,ratio15_3_18_3.png,,,,,,,,,,,,
,,,,,,,,,,,,More than half,Some,Most,Many,Half,All,Few,Less than half,None,-0.552220265,0.319679916,1,0,0,QQQ7,,,,,,,,English,2020-07-02_12h33.17.751,Experiment_English,3.2.4,Linux x86_64,60,,,1,0,340,83,1,339,ratio13_1_4_10.png,,,,,,,,,,,,
,,,,,,,,,,,,Some,Less than half,All,None,Half,Most,Many,Few,More than half,-0.358273347,-0.057813446,1,0,0,QQQ8,,,,,,,,English,2020-07-02_12h33.17.751,Experiment_English,3.2.4,Linux x86_64,60,,,1,0,340,135,1,339,ratio15_3_18_7.png,0.371858358,-0.411606709,1,0,0,continue_button_pause,1,0,1,0,1,0
,,,,,,,,,,,,,,,,,,,,,,,,,,,,,,,,,,English,2020-07-02_12h33.17.751,Experiment_English,3.2.4,Linux x86_64,60,,,1,0,340,135,1,339,ratio15_3_18_7.png,,,,,,,,,,,,
,,,,,,,,,,,,More than half,All,None,Less than half,Half,Many,Some,Most,Few,0.427216927,0.249193589,1,0,0,QQQ1,,,,,,,,English,2020-07-02_12h33.17.751,Experiment_English,3.2.4,Linux x86_64,60,,,1,0,340,228,1,339,ratio32_6_10_7.png,,,,,,,,,,,,
,,,,,,,,,,,,Half,More than half,Some,All,None,Many,Most,Few,Less than half,-0.424110413,0.322717448,1,0,0,QQQ7,,,,,,,,English,2020-07-02_12h33.17.751,Experiment_English,3.2.4,Linux x86_64,60,,,1,0,340,267,1,339,ratio41_8_10_4.png,,,,,,,,,,,,
,,,,,,,,,,,,Most,Few,Less than half,All,None,Some,Half,More than half,Many,-0.398442308,-0.016095996,1,0,0,QQQ8,,,,,,,,English,2020-07-02_12h33.17.751,Experiment_English,3.2.4,Linux x86_64,60,,,1,0,340,37,1,339,ratio11_9_18_8.png,,,,,,,,,,,,
,,,,,,,,,,,,Many,Some,Most,More than half,None,Few,Less than half,Half,All,0.553245385,-0.246452093,1,0,0,QQQ3,,,,,,,,English,2020-07-02_12h33.17.751,Experiment_English,3.2.4,Linux x86_64,60,,,1,0,340,322,1,339,ratio91_9_10_3.png,,,,,,,,,,,,
,,,,,,,,,,,,None,Less than half,Most,Half,All,Many,Few,More than half,Some,0.411996603,-0.09096396,1,0,0,QQQ2,,,,,,,,English,2020-07-02_12h33.17.751,Experiment_English,3.2.4,Linux x86_64,60,,,1,0,340,255,1,339,ratio34_6_14_10.png,,,,,,,,,,,,
,,,,,,,,,,,,Half,Some,All,Most,Less than half,Many,More than half,None,Few,-0.581984023,-0.01176552,1,0,0,QQQ8,,,,,,,,English,2020-07-02_12h33.17.751,Experiment_English,3.2.4,Linux x86_64,60,,,1,0,340,61,1,339,ratio0Y_0_4_7.png,,,,,,,,,,,,
,,,,,,,,,,,,More than half,None,Some,Few,Most,Less than half,Half,All,Many,-0.112916152,-0.348523219,1,0,0,QQQ6,,,,,,,,English,2020-07-02_12h33.17.751,Experiment_English,3.2.4,Linux x86_64,60,,,1,0,340,10,1,339,ratio12_4_12_4.png,,,,,,,,,,,,
,,,,,,,,,,,,Most,Some,Many,Less than half,More than half,None,All,Half,Few,-0.585704446,-0.298673789,1,0,0,QQQ9,,,,,,,,English,2020-07-02_12h33.17.751,Experiment_English,3.2.4,Linux x86_64,60,,,1,0,340,4,1,339,ratio12_2_6_5.png,,,,,,,,,,,,
,,,,,,,,,,,,None,More than half,Few,All,Most,Less than half,Many,Some,Half,0.436519782,-0.229987224,1,0,0,QQQ3,,,,,,,,English,2020-07-02_12h33.17.751,Experiment_English,3.2.4,Linux x86_64,60,,,1,0,340,116,1,339,ratio14_4_20_3.png,,,,,,,,,,,,
,,,,,,,,,,,,Many,Few,All,Some,Less than half,Half,None,Most,More than half,0.097086668,0.023491542,1,0,0,QQQ5,,,,,,,,English,2020-07-02_12h33.17.751,Experiment_English,3.2.4,Linux x86_64,60,,,1,0,340,246,1,339,ratio34_3_7_11.png,,,,,,,,,,,,
,,,,,,,,,,,,Most,Some,Half,More than half,Many,None,Few,All,Less than half,0.052307526,0.003878196,1,0,0,QQQ5,,,,,,,,English,2020-07-02_12h33.17.751,Experiment_English,3.2.4,Linux x86_64,60,,,1,0,340,266,1,339,ratio41_8_10_2.png,,,,,,,,,,,,
,,,,,,,,,,,,Half,Some,More than half,Many,All,Few,Less than half,None,Most,-0.010199149,-0.297837098,1,0,0,QQQ6,,,,,,,,English,2020-07-02_12h33.17.751,Experiment_English,3.2.4,Linux x86_64,60,,,1,0,340,128,1,339,ratio15_2_12_8.png,,,,,,,,,,,,
,,,,,,,,,,,,Half,Many,Less than half,More than half,Few,Some,None,Most,All,-0.037914117,-0.016585032,1,0,0,QQQ5,,,,,,,,English,2020-07-02_12h33.17.751,Experiment_English,3.2.4,Linux x86_64,60,,,1,0,340,2,1,339,ratio12_1_3_10.png,,,,,,,,,,,,
,,,,,,,,,,,,All,None,Some,More than half,Many,Most,Few,Less than half,Half,0.455305576,-0.203620434,1,0,0,QQQ3,,,,,,,,English,2020-07-02_12h33.17.751,Experiment_English,3.2.4,Linux x86_64,60,,,1,0,340,202,1,339,ratio31_3_4_8.png,,,,,,,,,,,,
,,,,,,,,,,,,Half,Most,None,Some,Few,More than half,Many,Less than half,All,-0.55167985,0.065175255,1,0,0,QQQ8,,,,,,,,English,2020-07-02_12h33.17.751,Experiment_English,3.2.4,Linux x86_64,60,,,1,0,340,6,1,339,ratio12_3_9_1.png,,,,,,,,,,,,
,,,,,,,,,,,,Most,Many,More than half,Few,None,All,Some,Half,Less than half,-0.460961183,-0.02300934,1,0,0,QQQ8,,,,,,,,English,2020-07-02_12h33.17.751,Experiment_English,3.2.4,Linux x86_64,60,,,1,0,340,188,1,339,ratio23_4_10_6.png,,,,,,,,,,,,
,,,,,,,,,,,,More than half,All,Many,Half,None,Few,Some,Most,Less than half,0.447844028,-0.263448715,1,0,0,QQQ3,,,,,,,,English,2020-07-02_12h33.17.751,Experiment_English,3.2.4,Linux x86_64,60,,,1,0,340,274,1,339,ratio41_12_15_9.png,,,,,,,,,,,,
,,,,,,,,,,,,Less than half,Some,All,Few,Many,Most,Half,None,More than half,0.48962609,-0.343371471,1,0,0,QQQ3,,,,,,,,English,2020-07-02_12h33.17.751,Experiment_English,3.2.4,Linux x86_64,60,,,1,0,340,56,1,339,ratioX0_17_17_10.png,,,,,,,,,,,,
,,,,,,,,,,,,Many,Most,All,Few,Less than half,Some,Half,More than half,None,0.416119973,0.036448042,1,0,0,QQQ2,,,,,,,,English,2020-07-02_12h33.17.751,Experiment_English,3.2.4,Linux x86_64,60,,,1,0,340,333,1,339,ratio91_18_20_6.png,,,,,,,,,,,,
,,,,,,,,,,,,Few,Some,Half,Most,Many,All,Less than half,More than half,None,0.433157206,0.236607095,1,0,0,QQQ1,,,,,,,,English,2020-07-02_12h33.17.751,Experiment_English,3.2.4,Linux x86_64,60,,,1,0,340,93,1,339,ratio13_4_16_7.png,,,,,,,,,,,,
,,,,,,,,,,,,None,Some,Less than half,Most,All,Many,Half,Few,More than half,0.370151679,-0.278437058,1,0,0,QQQ3,,,,,,,,English,2020-07-02_12h33.17.751,Experiment_English,3.2.4,Linux x86_64,60,,,1,0,340,14,1,339,ratio12_5_15_4.png,,,,,,,,,,,,
,,,,,,,,,,,,More than half,None,Less than half,Most,All,Half,Many,Some,Few,-0.439318935,0.27842323,1,0,0,QQQ7,,,,,,,,English,2020-07-02_12h33.17.751,Experiment_English,3.2.4,Linux x86_64,60,,,1,0,340,329,1,339,ratio91_9_10_20.png,,,,,,,,,,,,
,,,,,,,,,,,,Less than half,Some,Half,Many,Most,All,None,More than half,Few,-0.378400644,0.029619535,1,0,0,QQQ8,,,,,,,,English,2020-07-02_12h33.17.751,Experiment_English,3.2.4,Linux x86_64,60,,,1,0,340,284,1,339,ratio43_4_7_11.png,,,,,,,,,,,,
,,,,,,,,,,,,More than half,Most,Many,Half,Some,Few,Less than half,None,All,-0.033888658,-0.28687652,1,0,0,QQQ6,,,,,,,,English,2020-07-02_12h33.17.751,Experiment_English,3.2.4,Linux x86_64,60,,,1,0,340,106,1,339,ratio14_2_10_2.png,,,,,,,,,,,,
,,,,,,,,,,,,Most,None,Many,More than half,Less than half,Some,All,Few,Half,-0.524520199,-0.08162419,1,0,0,QQQ8,,,,,,,,English,2020-07-02_12h33.17.751,Experiment_English,3.2.4,Linux x86_64,60,,,1,0,340,86,1,339,ratio13_2_8_6.png,,,,,,,,,,,,
,,,,,,,,,,,,Some,More than half,Most,Few,Less than half,Half,All,None,Many,0.096696774,0.048713326,1,0,0,QQQ5,,,,,,,,English,2020-07-02_12h33.17.751,Experiment_English,3.2.4,Linux x86_64,60,,,1,0,340,185,1,339,ratio23_4_10_1.png,,,,,,,,,,,,
,,,,,,,,,,,,Few,Many,More than half,Half,Less than half,None,Some,Most,All,-0.449436625,0.030922294,1,0,0,QQQ8,,,,,,,,English,2020-07-02_12h33.17.751,Experiment_English,3.2.4,Linux x86_64,60,,,1,0,340,32,1,339,ratio11_7_14_5.png,,,,,,,,,,,,
,,,,,,,,,,,,Half,More than half,None,Most,Less than half,Few,All,Many,Some,0.12980183,-0.263548613,1,0,0,QQQ6,,,,,,,,English,2020-07-02_12h33.17.751,Experiment_English,3.2.4,Linux x86_64,60,,,1,0,340,115,1,339,ratio14_4_20_1.png,,,,,,,,,,,,
,,,,,,,,,,,,Less than half,All,Some,Half,Many,Few,None,Most,More than half,-0.518061598,-0.013484796,1,0,0,QQQ8,,,,,,,,English,2020-07-02_12h33.17.751,Experiment_English,3.2.4,Linux x86_64,60,,,1,0,340,165,1,339,ratio21_4_6_10.png,,,,,,,,,,,,
,,,,,,,,,,,,Few,More than half,Half,Less than half,Many,All,Some,Most,None,-0.494907061,-0.328055938,1,0,0,QQQ9,,,,,,,,English,2020-07-02_12h33.17.751,Experiment_English,3.2.4,Linux x86_64,60,,,1,0,340,72,1,339,ratio0Y_0_13_4.png,,,,,,,,,,,,
,,,,,,,,,,,,None,Some,All,Less than half,Most,Many,Few,More than half,Half,0.070964893,0.004157861,1,0,0,QQQ5,,,,,,,,English,2020-07-02_12h33.17.751,Experiment_English,3.2.4,Linux x86_64,60,,,1,0,340,160,1,339,ratio21_2_3_2.png,,,,,,,,,,,,
,,,,,,,,,,,,Half,More than half,All,Some,None,Few,Many,Most,Less than half,-0.526160836,0.070562522,1,0,0,QQQ8,,,,,,,,English,2020-07-02_12h33.17.751,Experiment_English,3.2.4,Linux x86_64,60,,,1,0,340,178,1,339,ratio21_12_18_2.png,,,,,,,,,,,,
,,,,,,,,,,,,All,Most,Half,Less than half,Many,Few,More than half,None,Some,0.538918972,-0.045692444,1,0,0,QQQ2,,,,,,,,English,2020-07-02_12h33.17.751,Experiment_English,3.2.4,Linux x86_64,60,,,1,0,340,260,1,339,ratio41_4_5_2.png,,,,,,,,,,,,
,,,,,,,,,,,,More than half,Many,None,Half,Some,Few,All,Most,Less than half,0.40345494,0.316970706,1,0,0,QQQ1,,,,,,,,English,2020-07-02_12h33.17.751,Experiment_English,3.2.4,Linux x86_64,60,,,1,0,340,134,1,339,ratio15_3_18_5.png,0.291857243,-0.379135052,1,0,0,continue_button_pause,1,0,1,0,1,0
,,,,,,,,,,,,,,,,,,,,,,,,,,,,,,,,,,English,2020-07-02_12h33.17.751,Experiment_English,3.2.4,Linux x86_64,60,,,1,0,340,134,1,339,ratio15_3_18_5.png,,,,,,,,,,,,
,,,,,,,,,,,,All,None,More than half,Less than half,Many,Most,Few,Half,Some,0.454313596,-0.326720317,1,0,0,QQQ3,,,,,,,,English,2020-07-02_12h33.17.751,Experiment_English,3.2.4,Linux x86_64,60,,,1,0,340,197,1,339,ratio23_8_20_6.png,,,,,,,,,,,,
,,,,,,,,,,,,Few,Most,Some,Half,All,Many,None,Less than half,More than half,-0.021046241,-0.036647995,1,0,0,QQQ5,,,,,,,,English,2020-07-02_12h33.17.751,Experiment_English,3.2.4,Linux x86_64,60,,,1,0,340,40,1,339,ratioX0_3_3_5.png,,,,,,,,,,,,
,,,,,,,,,,,,Most,None,Many,Few,Half,More than half,Less than half,All,Some,0.447717667,-0.013621092,1,0,0,QQQ2,,,,,,,,English,2020-07-02_12h33.17.751,Experiment_English,3.2.4,Linux x86_64,60,,,1,0,340,69,1,339,ratio0Y_0_11_6.png,,,,,,,,,,,,
,,,,,,,,,,,,Few,Less than half,More than half,Many,Some,None,Most,Half,All,0.455452601,0.36201488,1,0,0,QQQ1,,,,,,,,English,2020-07-02_12h33.17.751,Experiment_English,3.2.4,Linux x86_64,60,,,1,0,340,142,1,339,ratio19_1_10_6.png,,,,,,,,,,,,
,,,,,,,,,,,,Most,Less than half,None,Some,All,Many,Few,More than half,Half,-0.349254012,0.046140194,1,0,0,QQQ8,,,,,,,,English,2020-07-02_12h33.17.751,Experiment_English,3.2.4,Linux x86_64,60,,,1,0,340,30,1,339,ratio11_6_12_6.png,,,,,,,,,,,,
,,,,,,,,,,,,Few,Most,Some,Less than half,Many,More than half,Half,All,None,-0.011028051,0.054985364,1,0,0,QQQ5,,,,,,,,English,2020-07-02_12h33.17.751,Experiment_English,3.2.4,Linux x86_64,60,,,1,0,340,75,1,339,ratio0Y_0_16_10.png,,,,,,,,,,,,
,,,,,,,,,,,,Few,Half,Some,Many,All,Most,More than half,None,Less than half,0.42110157,0.353252033,1,0,0,QQQ1,,,,,,,,English,2020-07-02_12h33.17.751,Experiment_English,3.2.4,Linux x86_64,60,,,1,0,340,157,1,339,ratio19_2_20_16.png,,,,,,,,,,,,
,,,,,,,,,,,,Few,Most,None,Half,Many,More than half,All,Some,Less than half,-0.003130436,0.343680223,1,0,0,QQQ4,,,,,,,,English,2020-07-02_12h33.17.751,Experiment_English,3.2.4,Linux x86_64,60,,,1,0,340,193,1,339,ratio23_6_15_9.png,,,,,,,,,,,,
,,,,,,,,,,,,All,None,Some,Most,Half,Many,Few,Less than half,More than half,0.078655084,-0.312143644,1,0,0,QQQ6,,,,,,,,English,2020-07-02_12h33.17.751,Experiment_English,3.2.4,Linux x86_64,60,,,1,0,340,331,1,339,ratio91_18_20_3.png,,,,,,,,,,,,
,,,,,,,,,,,,Half,Few,Many,All,More than half,Less than half,Some,Most,None,0.07186985,0.212259909,1,0,0,QQQ4,,,,,,,,English,2020-07-02_12h33.17.751,Experiment_English,3.2.4,Linux x86_64,60,,,1,0,340,107,1,339,ratio14_2_10_5.png,,,,,,,,,,,,
,,,,,,,,,,,,Many,More than half,Most,All,Few,Half,Some,Less than half,None,0.469688416,0.356877118,1,0,0,QQQ1,,,,,,,,English,2020-07-02_12h33.17.751,Experiment_English,3.2.4,Linux x86_64,60,,,1,0,340,265,1,339,ratio41_8_10_1.png,,,,,,,,,,,,
,,,,,,,,,,,,Few,None,All,Most,Some,More than half,Half,Less than half,Many,0.065093358,0.215165993,1,0,0,QQQ4,,,,,,,,English,2020-07-02_12h33.17.751,Experiment_English,3.2.4,Linux x86_64,60,,,1,0,340,305,1,339,ratio51_5_6_14.png,,,,,,,,,,,,
,,,,,,,,,,,,More than half,Half,Less than half,Few,None,Most,Some,Many,All,0.463142395,-0.24521629,1,0,0,QQQ3,,,,,,,,English,2020-07-02_12h33.17.751,Experiment_English,3.2.4,Linux x86_64,60,,,1,0,340,9,1,339,ratio12_3_9_5.png,,,,,,,,,,,,
,,,,,,,,,,,,More than half,Half,Less than half,Many,All,Some,Most,Few,None,-0.587352892,-0.030323386,1,0,0,QQQ8,,,,,,,,English,2020-07-02_12h33.17.751,Experiment_English,3.2.4,Linux x86_64,60,,,1,0,340,159,1,339,ratio19_2_20_20.png,,,,,,,,,,,,
,,,,,,,,,,,,Many,Half,Less than half,None,Few,Some,More than half,All,Most,0.112806638,-0.317531983,1,0,0,QQQ6,,,,,,,,English,2020-07-02_12h33.17.751,Experiment_English,3.2.4,Linux x86_64,60,,,1,0,340,225,1,339,ratio32_6_10_4.png,,,,,,,,,,,,
,,,,,,,,,,,,Some,None,Few,Less than half,Most,All,Many,Half,More than half,-0.007071654,-0.01610291,1,0,0,QQQ5,,,,,,,,English,2020-07-02_12h33.17.751,Experiment_English,3.2.4,Linux x86_64,60,,,1,0,340,317,1,339,ratio51_15_18_13.png,,,,,,,,,,,,
,,,,,,,,,,,,Half,None,Few,More than half,All,Less than half,Some,Many,Most,-0.477098624,-0.33951513,1,0,0,QQQ9,,,,,,,,English,2020-07-02_12h33.17.751,Experiment_English,3.2.4,Linux x86_64,60,,,1,0,340,273,1,339,ratio41_12_15_8.png,,,,,,,,,,,,
,,,,,,,,,,,,Many,Half,More than half,Most,None,Less than half,Few,Some,All,-0.516129851,0.219528993,1,0,0,QQQ7,,,,,,,,English,2020-07-02_12h33.17.751,Experiment_English,3.2.4,Linux x86_64,60,,,1,0,340,89,1,339,ratio13_3_12_6.png,,,,,,,,,,,,
,,,,,,,,,,,,Less than half,Many,Half,Some,Most,More than half,All,Few,None,-0.438961585,-0.082520286,1,0,0,QQQ8,,,,,,,,English,2020-07-02_12h33.17.751,Experiment_English,3.2.4,Linux x86_64,60,,,1,0,340,117,1,339,ratio14_4_20_6.png,,,,,,,,,,,,
,,,,,,,,,,,,Less than half,Few,Many,None,More than half,Some,All,Most,Half,0.510891596,0.241872946,1,0,0,QQQ1,,,,,,,,English,2020-07-02_12h33.17.751,Experiment_English,3.2.4,Linux x86_64,60,,,1,0,340,244,1,339,ratio34_3_7_9.png,,,,,,,,,,,,
,,,,,,,,,,,,Most,None,All,Half,Few,Many,Some,More than half,Less than half,-0.439233383,-0.096578161,1,0,0,QQQ8,,,,,,,,English,2020-07-02_12h33.17.751,Experiment_English,3.2.4,Linux x86_64,60,,,1,0,340,289,1,339,ratio43_4_7_20.png,,,,,,,,,,,,
,,,,,,,,,,,,Many,Some,Most,Half,None,Few,More than half,All,Less than half,0.477885087,-0.043680112,1,0,0,QQQ2,,,,,,,,English,2020-07-02_12h33.17.751,Experiment_English,3.2.4,Linux x86_64,60,,,1,0,340,5,1,339,ratio12_2_6_9.png,,,,,,,,,,,,
,,,,,,,,,,,,Many,All,Some,Most,More than half,Half,Less than half,None,Few,-0.470768293,-0.258415778,1,0,0,QQQ9,,,,,,,,English,2020-07-02_12h33.17.751,Experiment_English,3.2.4,Linux x86_64,60,,,1,0,340,141,1,339,ratio19_1_10_2.png,,,,,,,,,,,,
,,,,,,,,,,,,Less than half,None,Few,Half,Some,Many,Most,More than half,All,0.490702947,-0.292917808,1,0,0,QQQ3,,,,,,,,English,2020-07-02_12h33.17.751,Experiment_English,3.2.4,Linux x86_64,60,,,1,0,340,85,1,339,ratio13_2_8_5.png,,,,,,,,,,,,
,,,,,,,,,,,,Half,None,All,Some,More than half,Few,Many,Less than half,Most,-0.389329116,0.257525682,1,0,0,QQQ7,,,,,,,,English,2020-07-02_12h33.17.751,Experiment_English,3.2.4,Linux x86_64,60,,,1,0,340,239,1,339,ratio32_12_20_10.png,,,,,,,,,,,,
,,,,,,,,,,,,Most,Half,All,More than half,None,Less than half,Few,Some,Many,-0.48521924,0.014628331,1,0,0,QQQ8,,,,,,,,English,2020-07-02_12h33.17.751,Experiment_English,3.2.4,Linux x86_64,60,,,1,0,340,126,1,339,ratio15_2_12_1.png,,,,,,,,,,,,
,,,,,,,,,,,,More than half,Few,Some,Most,Many,Less than half,Half,None,All,-0.428117315,0.311457256,1,0,0,QQQ7,,,,,,,,English,2020-07-02_12h33.17.751,Experiment_English,3.2.4,Linux x86_64,60,,,1,0,340,18,1,339,ratio12_6_18_7.png,,,,,,,,,,,,
,,,,,,,,,,,,Many,More than half,Some,None,Less than half,Few,Half,Most,All,-0.41817379,0.308847845,1,0,0,QQQ7,,,,,,,,English,2020-07-02_12h33.17.751,Experiment_English,3.2.4,Linux x86_64,60,,,1,0,340,191,1,339,ratio23_6_15_7.png,,,,,,,,,,,,
,,,,,,,,,,,,All,Most,Few,Many,Half,Less than half,More than half,None,Some,0.436700741,-0.256098906,1,0,0,QQQ3,,,,,,,,English,2020-07-02_12h33.17.751,Experiment_English,3.2.4,Linux x86_64,60,,,1,0,340,112,1,339,ratio14_3_15_4.png,,,,,,,,,,,,
,,,,,,,,,,,,All,Less than half,More than half,Half,Few,None,Most,Many,Some,0.436109225,0.287986378,1,0,0,QQQ1,,,,,,,,English,2020-07-02_12h33.17.751,Experiment_English,3.2.4,Linux x86_64,60,,,1,0,340,57,1,339,ratioX0_18_18_1.png,,,,,,,,,,,,
,,,,,,,,,,,,None,All,Many,Some,Less than half,Few,More than half,Half,Most,-0.354793549,0.327124337,1,0,0,QQQ7,,,,,,,,English,2020-07-02_12h33.17.751,Experiment_English,3.2.4,Linux x86_64,60,,,1,0,340,223,1,339,ratio32_3_5_5.png,,,,,,,,,,,,
,,,,,,,,,,,,Less than half,More than half,Most,All,None,Few,Many,Half,Some,-0.410043081,-0.264904102,1,0,0,QQQ9,,,,,,,,English,2020-07-02_12h33.17.751,Experiment_English,3.2.4,Linux x86_64,60,,,1,0,340,119,1,339,ratio14_4_20_10.png,,,,,,,,,,,,
,,,,,,,,,,,,Few,Many,Less than half,Some,Most,More than half,Half,None,All,0.49082756,0.286799987,1,0,0,QQQ1,,,,,,,,English,2020-07-02_12h33.17.751,Experiment_English,3.2.4,Linux x86_64,60,,,1,0,340,103,1,339,ratio14_1_5_9.png,,,,,,,,,,,,
,,,,,,,,,,,,Less than half,Most,More than half,Half,Few,Some,None,Many,All,-0.003274997,0.006911516,1,0,0,QQQ5,,,,,,,,English,2020-07-02_12h33.17.751,Experiment_English,3.2.4,Linux x86_64,60,,,1,0,340,7,1,339,ratio12_3_9_2.png,0.348953485,-0.389345249,1,0,0,continue_button_pause,1,0,1,0,1,0
,,,,,,,,,,,,,,,,,,,,,,,,,,,,,,,,,,English,2020-07-02_12h33.17.751,Experiment_English,3.2.4,Linux x86_64,60,,,1,0,340,7,1,339,ratio12_3_9_2.png,,,,,,,,,,,,
,,,,,,,,,,,,All,Less than half,Most,Half,Some,Many,None,More than half,Few,0.358460029,-0.350069125,1,0,0,QQQ3,,,,,,,,English,2020-07-02_12h33.17.751,Experiment_English,3.2.4,Linux x86_64,60,,,1,0,340,168,1,339,ratio21_6_9_3.png,,,,,,,,,,,,
,,,,,,,,,,,,All,None,Few,Many,Half,Some,More than half,Less than half,Most,-0.387281259,-0.266358137,1,0,0,QQQ9,,,,,,,,English,2020-07-02_12h33.17.751,Experiment_English,3.2.4,Linux x86_64,60,,,1,0,340,26,1,339,ratio11_5_10_4.png,,,,,,,,,,,,
,,,,,,,,,,,,All,Few,Less than half,Most,Some,More than half,Many,Half,None,-0.525303801,0.306632161,1,0,0,QQQ7,,,,,,,,English,2020-07-02_12h33.17.751,Experiment_English,3.2.4,Linux x86_64,60,,,1,0,340,270,1,339,ratio41_12_15_3.png,,,,,,,,,,,,
,,,,,,,,,,,,Less than half,All,Half,None,Many,Few,Some,More than half,Most,-0.404290557,0.271281223,1,0,0,QQQ7,,,,,,,,English,2020-07-02_12h33.17.751,Experiment_English,3.2.4,Linux x86_64,60,,,1,0,340,200,1,339,ratio31_3_4_4.png,,,,,,,,,,,,
,,,,,,,,,,,,Less than half,Most,Few,More than half,Many,Some,All,None,Half,0.478439172,-0.201179663,1,0,0,QQQ3,,,,,,,,English,2020-07-02_12h33.17.751,Experiment_English,3.2.4,Linux x86_64,60,,,1,0,340,121,1,339,ratio15_1_6_4.png,,,,,,,,,,,,
,,,,,,,,,,,,None,All,More than half,Most,Half,Few,Many,Some,Less than half,-0.516608596,0.269367019,1,0,0,QQQ7,,,,,,,,English,2020-07-02_12h33.17.751,Experiment_English,3.2.4,Linux x86_64,60,,,1,0,340,167,1,339,ratio21_6_9_2.png,,,,,,,,,,,,
,,,,,,,,,,,,Less than half,Some,Few,None,Half,Many,All,Most,More than half,0.419875304,-0.29799962,1,0,0,QQQ3,,,,,,,,English,2020-07-02_12h33.17.751,Experiment_English,3.2.4,Linux x86_64,60,,,1,0,340,88,1,339,ratio13_3_12_5.png,,,,,,,,,,,,
,,,,,,,,,,,,All,Some,More than half,Less than half,Many,None,Most,Few,Half,0.463799953,0.265642981,1,0,0,QQQ1,,,,,,,,English,2020-07-02_12h33.17.751,Experiment_English,3.2.4,Linux x86_64,60,,,1,0,340,49,1,339,ratioX0_11_11_2.png,,,,,,,,,,,,
,,,,,,,,,,,,More than half,Most,Half,Few,None,All,Many,Some,Less than half,0.500035604,0.242529988,1,0,0,QQQ1,,,,,,,,English,2020-07-02_12h33.17.751,Experiment_English,3.2.4,Linux x86_64,60,,,1,0,340,283,1,339,ratio43_4_7_8.png,,,,,,,,,,,,
,,,,,,,,,,,,Few,Most,Half,Less than half,More than half,Some,Many,None,All,0.50377957,0.014334361,1,0,0,QQQ2,,,,,,,,English,2020-07-02_12h33.17.751,Experiment_English,3.2.4,Linux x86_64,60,,,1,0,340,206,1,339,ratio31_6_8_6.png,,,,,,,,,,,,
,,,,,,,,,,,,None,Many,More than half,Most,Half,All,Less than half,Some,Few,-0.504265507,-0.324487686,1,0,0,QQQ9,,,,,,,,English,2020-07-02_12h33.17.751,Experiment_English,3.2.4,Linux x86_64,60,,,1,0,340,109,1,339,ratio14_2_10_9.png,,,,,,,,,,,,
,,,,,,,,,,,,Half,More than half,Many,Most,Less than half,Few,None,All,Some,0.456358751,-0.038834373,1,0,0,QQQ2,,,,,,,,English,2020-07-02_12h33.17.751,Experiment_English,3.2.4,Linux x86_64,60,,,1,0,340,224,1,339,ratio32_3_5_10.png,,,,,,,,,,,,
,,,,,,,,,,,,All,Some,None,Most,More than half,Half,Few,Less than half,Many,0.033819516,0.360295047,1,0,0,QQQ4,,,,,,,,English,2020-07-02_12h33.17.751,Experiment_English,3.2.4,Linux x86_64,60,,,1,0,340,236,1,339,ratio32_12_20_2.png,,,,,,,,,,,,
,,,,,,,,,,,,Many,More than half,None,Half,Few,Most,Less than half,Some,All,-0.535143256,-0.238429785,1,0,0,QQQ9,,,,,,,,English,2020-07-02_12h33.17.751,Experiment_English,3.2.4,Linux x86_64,60,,,1,0,340,41,1,339,ratioX0_4_4_9.png,,,,,,,,,,,,
,,,,,,,,,,,,Most,Less than half,Some,None,Many,Few,All,Half,More than half,0.418398539,-0.382724921,1,0,0,QQQ3,,,,,,,,English,2020-07-02_12h33.17.751,Experiment_English,3.2.4,Linux x86_64,60,,,1,0,340,17,1,339,ratio12_6_18_5.png,,,,,,,,,,,,
,,,,,,,,,,,,More than half,None,Less than half,Few,Half,All,Many,Most,Some,-0.047951539,0.277162015,1,0,0,QQQ4,,,,,,,,English,2020-07-02_12h33.17.751,Experiment_English,3.2.4,Linux x86_64,60,,,1,0,340,87,1,339,ratio13_2_8_8.png,,,,,,,,,,,,
,,,,,,,,,,,,More than half,Half,All,Some,Few,Many,Less than half,None,Most,0.410437902,0.241814415,1,0,0,QQQ1,,,,,,,,English,2020-07-02_12h33.17.751,Experiment_English,3.2.4,Linux x86_64,60,,,1,0,340,207,1,339,ratio31_6_8_9.png,,,,,,,,,,,,
,,,,,,,,,,,,Less than half,All,None,Many,Most,More than half,Few,Some,Half,0.074927886,0.330116391,1,0,0,QQQ4,,,,,,,,English,2020-07-02_12h33.17.751,Experiment_English,3.2.4,Linux x86_64,60,,,1,0,340,310,1,339,ratio51_10_12_12.png,,,,,,,,,,,,
,,,,,,,,,,,,Few,All,Some,Less than half,Most,Half,Many,More than half,None,0.060153961,-0.313233534,1,0,0,QQQ6,,,,,,,,English,2020-07-02_12h33.17.751,Experiment_English,3.2.4,Linux x86_64,60,,,1,0,340,24,1,339,ratio11_4_8_3.png,,,,,,,,,,,,
,,,,,,,,,,,,Few,Less than half,More than half,Some,Many,Half,All,Most,None,-0.410218398,0.252760073,1,0,0,QQQ7,,,,,,,,English,2020-07-02_12h33.17.751,Experiment_English,3.2.4,Linux x86_64,60,,,1,0,340,43,1,339,ratioX0_6_6_9.png,,,,,,,,,,,,
,,,,,,,,,,,,Few,Most,Many,Some,All,Half,Less than half,More than half,None,0.454705556,0.207561851,1,0,0,QQQ1,,,,,,,,English,2020-07-02_12h33.17.751,Experiment_English,3.2.4,Linux x86_64,60,,,1,0,340,153,1,339,ratio19_2_20_8.png,,,,,,,,,,,,
,,,,,,,,,,,,Less than half,All,More than half,Few,Some,Many,None,Most,Half,-0.017670711,-0.243079424,1,0,0,QQQ6,,,,,,,,English,2020-07-02_12h33.17.751,Experiment_English,3.2.4,Linux x86_64,60,,,1,0,340,276,1,339,ratio41_16_20_4.png,,,,,,,,,,,,
,,,,,,,,,,,,More than half,Half,Many,None,Few,All,Some,Less than half,Most,0.387460232,0.300412317,1,0,0,QQQ1,,,,,,,,English,2020-07-02_12h33.17.751,Experiment_English,3.2.4,Linux x86_64,60,,,1,0,340,36,1,339,ratio11_9_18_1.png,,,,,,,,,,,,
,,,,,,,,,,,,Most,None,More than half,Many,All,Few,Less than half,Some,Half,0.080327193,-0.234042009,1,0,0,QQQ6,,,,,,,,English,2020-07-02_12h33.17.751,Experiment_English,3.2.4,Linux x86_64,60,,,1,0,340,240,1,339,ratio34_3_7_4.png,,,,,,,,,,,,
,,,,,,,,,,,,Few,Half,Most,None,Some,More than half,Less than half,All,Many,0.418040355,0.331190983,1,0,0,QQQ1,,,,,,,,English,2020-07-02_12h33.17.751,Experiment_English,3.2.4,Linux x86_64,60,,,1,0,340,162,1,339,ratio21_2_3_9.png,,,,,,,,,,,,
,,,,,,,,,,,,None,All,Many,Some,Less than half,More than half,Few,Most,Half,-0.082945506,-0.393055201,1,0,0,QQQ6,,,,,,,,English,2020-07-02_12h33.17.751,Experiment_English,3.2.4,Linux x86_64,60,,,1,0,340,172,1,339,ratio21_8_12_6.png,,,,,,,,,,,,
,,,,,,,,,,,,Less than half,Few,None,More than half,Half,Many,All,Most,Some,0.516108195,-0.350107431,1,0,0,QQQ3,,,,,,,,English,2020-07-02_12h33.17.751,Experiment_English,3.2.4,Linux x86_64,60,,,1,0,340,63,1,339,ratio0Y_0_6_8.png,,,,,,,,,,,,
,,,,,,,,,,,,All,Less than half,Few,More than half,Half,None,Some,Many,Most,-0.479897579,-0.004207889,1,0,0,QQQ8,,,,,,,,English,2020-07-02_12h33.17.751,Experiment_English,3.2.4,Linux x86_64,60,,,1,0,340,215,1,339,ratio31_12_16_8.png,,,,,,,,,,,,
,,,,,,,,,,,,All,Most,Half,More than half,None,Some,Many,Few,Less than half,-0.519172668,0.013472795,1,0,0,QQQ8,,,,,,,,English,2020-07-02_12h33.17.751,Experiment_English,3.2.4,Linux x86_64,60,,,1,0,340,125,1,339,ratio15_1_6_19.png,,,,,,,,,,,,
,,,,,,,,,,,,Half,Most,Many,Few,None,More than half,Some,All,Less than half,-0.54719166,-0.278851271,1,0,0,QQQ9,,,,,,,,English,2020-07-02_12h33.17.751,Experiment_English,3.2.4,Linux x86_64,60,,,1,0,340,241,1,339,ratio34_3_7_5.png,,,,,,,,,,,,
,,,,,,,,,,,,Less than half,None,Most,Many,Half,More than half,All,Few,Some,0.043710073,0.213681817,1,0,0,QQQ4,,,,,,,,English,2020-07-02_12h33.17.751,Experiment_English,3.2.4,Linux x86_64,60,,,1,0,340,335,1,339,ratio91_18_20_11.png,,,,,,,,,,,,
,,,,,,,,,,,,Less than half,All,Half,Most,Few,More than half,Some,Many,None,0.449389617,-0.262282848,1,0,0,QQQ3,,,,,,,,English,2020-07-02_12h33.17.751,Experiment_English,3.2.4,Linux x86_64,60,,,1,0,340,198,1,339,ratio23_8_20_7.png,,,,,,,,,,,,
,,,,,,,,,,,,Less than half,Some,Few,Many,None,Most,Half,All,More than half,-0.541831056,0.323207915,1,0,0,QQQ7,,,,,,,,English,2020-07-02_12h33.17.751,Experiment_English,3.2.4,Linux x86_64,60,,,1,0,340,290,1,339,ratio43_8_14_3.png,,,,,,,,,,,,
,,,,,,,,,,,,Less than half,Many,More than half,Most,None,All,Some,Few,Half,0.430468559,0.264393588,1,0,0,QQQ1,,,,,,,,English,2020-07-02_12h33.17.751,Experiment_English,3.2.4,Linux x86_64,60,,,1,0,340,192,1,339,ratio23_6_15_8.png,0.357581377,-0.392130772,1,0,0,continue_button_pause,1,0,1,0,1,0
,,,,,,,,,,,,,,,,,,,,,,,,,,,,,,,,,,English,2020-07-02_12h33.17.751,Experiment_English,3.2.4,Linux x86_64,60,,,1,0,340,192,1,339,ratio23_6_15_8.png,,,,,,,,,,,,
,,,,,,,,,,,,Most,More than half,Less than half,Many,All,Half,None,Some,Few,0.555140972,-0.042381366,1,0,0,QQQ2,,,,,,,,English,2020-07-02_12h33.17.751,Experiment_English,3.2.4,Linux x86_64,60,,,1,0,340,297,1,339,ratio43_8_14_13.png,,,,,,,,,,,,
,,,,,,,,,,,,More than half,Many,All,Half,Less than half,None,Some,Few,Most,-0.396464467,-0.38007911,1,0,0,QQQ9,,,,,,,,English,2020-07-02_12h33.17.751,Experiment_English,3.2.4,Linux x86_64,60,,,1,0,340,336,1,339,ratio91_18_20_12.png,,,,,,,,,,,,
,,,,,,,,,,,,Half,All,Many,Most,More than half,Less than half,Few,None,Some,0.522617976,0.021792253,1,0,0,QQQ2,,,,,,,,English,2020-07-02_12h33.17.751,Experiment_English,3.2.4,Linux x86_64,60,,,1,0,340,59,1,339,ratioX0_20_20_9.png,,,,,,,,,,,,
,,,,,,,,,,,,Less than half,Half,Few,None,Most,Many,Some,All,More than half,-0.363059799,-0.029900193,1,0,0,QQQ8,,,,,,,,English,2020-07-02_12h33.17.751,Experiment_English,3.2.4,Linux x86_64,60,,,1,0,340,58,1,339,ratioX0_19_19_4.png,,,,,,,,,,,,
,,,,,,,,,,,,All,Some,Few,Less than half,More than half,Many,Most,Half,None,-0.48708721,0.318319619,1,0,0,QQQ7,,,,,,,,English,2020-07-02_12h33.17.751,Experiment_English,3.2.4,Linux x86_64,60,,,1,0,340,312,1,339,ratio51_10_12_16.png,,,,,,,,,,,,
,,,,,,,,,,,,Most,Some,All,Few,None,Many,More than half,Half,Less than half,0.45988671,0.263992886,1,0,0,QQQ1,,,,,,,,English,2020-07-02_12h33.17.751,Experiment_English,3.2.4,Linux x86_64,60,,,1,0,340,205,1,339,ratio31_6_8_2.png,,,,,,,,,,,,
,,,,,,,,,,,,Few,Some,Half,All,More than half,Less than half,Many,Most,None,0.507708867,-0.281240384,1,0,0,QQQ3,,,,,,,,English,2020-07-02_12h33.17.751,Experiment_English,3.2.4,Linux x86_64,60,,,1,0,340,29,1,339,ratio11_6_12_1.png,,,,,,,,,,,,
,,,,,,,,,,,,Few,None,Some,More than half,All,Less than half,Most,Many,Half,-0.441264868,-0.064764142,1,0,0,QQQ8,,,,,,,,English,2020-07-02_12h33.17.751,Experiment_English,3.2.4,Linux x86_64,60,,,1,0,340,338,1,339,ratio91_18_20_18.png,,,,,,,,,,,,
,,,,,,,,,,,,Half,Less than half,None,All,Many,Few,Most,Some,More than half,0.121869087,-0.068200986,1,0,0,QQQ5,,,,,,,,English,2020-07-02_12h33.17.751,Experiment_English,3.2.4,Linux x86_64,60,,,1,0,340,210,1,339,ratio31_9_12_9.png,,,,,,,,,,,,
,,,,,,,,,,,,None,Half,Most,Many,More than half,Few,Less than half,Some,All,0.099538008,-0.03920265,1,0,0,QQQ5,,,,,,,,English,2020-07-02_12h33.17.751,Experiment_English,3.2.4,Linux x86_64,60,,,1,0,340,292,1,339,ratio43_8_14_6.png,,,,,,,,,,,,
,,,,,,,,,,,,Some,Less than half,Most,More than half,Few,None,Half,All,Many,-0.401805202,-0.319846233,1,0,0,QQQ9,,,,,,,,English,2020-07-02_12h33.17.751,Experiment_English,3.2.4,Linux x86_64,60,,,1,0,340,175,1,339,ratio21_10_15_2.png,,,,,,,,,,,,
,,,,,,,,,,,,Most,Some,Less than half,More than half,All,Half,Many,Few,None,-0.47759982,0.231457472,1,0,0,QQQ7,,,,,,,,English,2020-07-02_12h33.17.751,Experiment_English,3.2.4,Linux x86_64,60,,,1,0,340,330,1,339,ratio91_18_20_2.png,,,,,,,,,,,,
,,,,,,,,,,,,None,Few,Some,Less than half,Most,More than half,Many,All,Half,-0.454980175,0.262884994,1,0,0,QQQ7,,,,,,,,English,2020-07-02_12h33.17.751,Experiment_English,3.2.4,Linux x86_64,60,,,1,0,340,275,1,339,ratio41_16_20_2.png,,,,,,,,,,,,
,,,,,,,,,,,,All,More than half,Most,Less than half,Few,Some,None,Many,Half,0.139057557,-0.294689973,1,0,0,QQQ6,,,,,,,,English,2020-07-02_12h33.17.751,Experiment_English,3.2.4,Linux x86_64,60,,,1,0,340,301,1,339,ratio51_5_6_4.png,,,,,,,,,,,,
,,,,,,,,,,,,Some,Few,None,More than half,Most,Many,Half,All,Less than half,-0.499943932,0.271897535,1,0,0,QQQ7,,,,,,,,English,2020-07-02_12h33.17.751,Experiment_English,3.2.4,Linux x86_64,60,,,1,0,340,35,1,339,ratio11_8_16_10.png,,,,,,,,,,,,
,,,,,,,,,,,,Half,Most,None,Many,Some,More than half,Few,All,Less than half,-0.075629791,-0.276300907,1,0,0,QQQ6,,,,,,,,English,2020-07-02_12h33.17.751,Experiment_English,3.2.4,Linux x86_64,60,,,1,0,340,311,1,339,ratio51_10_12_14.png,,,,,,,,,,,,
,,,,,,,,,,,,All,Many,Some,Few,Most,None,Half,More than half,Less than half,0.023980538,0.285104076,1,0,0,QQQ4,,,,,,,,English,2020-07-02_12h33.17.751,Experiment_English,3.2.4,Linux x86_64,60,,,1,0,340,0,1,339,ratio12_1_3_3.png,,,,,,,,,,,,
,,,,,,,,,,,,None,Few,Some,Most,More than half,All,Less than half,Many,Half,-0.526755373,0.022233486,1,0,0,QQQ8,,,,,,,,English,2020-07-02_12h33.17.751,Experiment_English,3.2.4,Linux x86_64,60,,,1,0,340,327,1,339,ratio91_9_10_11.png,,,,,,,,,,,,
,,,,,,,,,,,,None,All,Most,Less than half,Few,Half,Some,More than half,Many,0.076114893,-0.387393316,1,0,0,QQQ6,,,,,,,,English,2020-07-02_12h33.17.751,Experiment_English,3.2.4,Linux x86_64,60,,,1,0,340,31,1,339,ratio11_6_12_9.png,,,,,,,,,,,,
,,,,,,,,,,,,None,Few,All,Most,More than half,Less than half,Some,Half,Many,0.00809439,-0.263943036,1,0,0,QQQ6,,,,,,,,English,2020-07-02_12h33.17.751,Experiment_English,3.2.4,Linux x86_64,60,,,1,0,340,242,1,339,ratio34_3_7_6.png,,,,,,,,,,,,
,,,,,,,,,,,,All,None,Many,Less than half,Most,Some,Few,More than half,Half,-0.489417712,0.301898996,1,0,0,QQQ7,,,,,,,,English,2020-07-02_12h33.17.751,Experiment_English,3.2.4,Linux x86_64,60,,,1,0,340,105,1,339,ratio14_2_10_1.png,,,,,,,,,,,,
,,,,,,,,,,,,None,Less than half,Half,All,Most,More than half,Few,Some,Many,-0.414679646,-0.30235664,1,0,0,QQQ9,,,,,,,,English,2020-07-02_12h33.17.751,Experiment_English,3.2.4,Linux x86_64,60,,,1,0,340,307,1,339,ratio51_10_12_1.png,,,,,,,,,,,,
,,,,,,,,,,,,None,Most,Half,All,Less than half,More than half,Few,Many,Some,-0.542849898,0.204952617,1,0,0,QQQ7,,,,,,,,English,2020-07-02_12h33.17.751,Experiment_English,3.2.4,Linux x86_64,60,,,1,0,340,147,1,339,ratio19_1_10_18.png,,,,,,,,,,,,
,,,,,,,,,,,,Some,Most,Half,More than half,Few,All,Less than half,None,Many,0.495358308,0.20217367,1,0,0,QQQ1,,,,,,,,English,2020-07-02_12h33.17.751,Experiment_English,3.2.4,Linux x86_64,60,,,1,0,340,99,1,339,ratio13_5_20_4.png,,,,,,,,,,,,
,,,,,,,,,,,,Most,Less than half,None,More than half,Few,Some,All,Half,Many,-0.003898064,-0.048679153,1,0,0,QQQ5,,,,,,,,English,2020-07-02_12h33.17.751,Experiment_English,3.2.4,Linux x86_64,60,,,1,0,340,145,1,339,ratio19_1_10_15.png,,,,,,,,,,,,
,,,,,,,,,,,,Half,Some,Most,Less than half,More than half,All,None,Few,Many,0.46179088,0.048497836,1,0,0,QQQ2,,,,,,,,English,2020-07-02_12h33.17.751,Experiment_English,3.2.4,Linux x86_64,60,,,1,0,340,261,1,339,ratio41_4_5_3.png,,,,,,,,,,,,
,,,,,,,,,,,,Few,Half,More than half,Many,Some,Less than half,Most,All,None,0.47501119,-0.284583728,1,0,0,QQQ3,,,,,,,,English,2020-07-02_12h33.17.751,Experiment_English,3.2.4,Linux x86_64,60,,,1,0,340,299,1,339,ratio43_8_14_17.png,,,,,,,,,,,,
,,,,,,,,,,,,Less than half,All,Many,Some,None,More than half,Half,Few,Most,-0.367104371,-0.002375325,1,0,0,QQQ8,,,,,,,,English,2020-07-02_12h33.17.751,Experiment_English,3.2.4,Linux x86_64,60,,,1,0,340,146,1,339,ratio19_1_10_17.png,,,,,,,,,,,,
,,,,,,,,,,,,Few,Most,More than half,All,None,Many,Half,Less than half,Some,-0.528576652,0.053309917,1,0,0,QQQ8,,,,,,,,English,2020-07-02_12h33.17.751,Experiment_English,3.2.4,Linux x86_64,60,,,1,0,340,249,1,339,ratio34_3_7_20.png,,,,,,,,,,,,
,,,,,,,,,,,,None,Some,Few,All,Half,Many,More than half,Less than half,Most,0.034969966,-0.273576419,1,0,0,QQQ6,,,,,,,,English,2020-07-02_12h33.17.751,Experiment_English,3.2.4,Linux x86_64,60,,,1,0,340,209,1,339,ratio31_9_12_6.png,,,,,,,,,,,,
,,,,,,,,,,,,Most,None,More than half,Half,Some,Less than half,Many,Few,All,0.491919041,-0.278784672,1,0,0,QQQ3,,,,,,,,English,2020-07-02_12h33.17.751,Experiment_English,3.2.4,Linux x86_64,60,,,1,0,340,288,1,339,ratio43_4_7_18.png,,,,,,,,,,,,
,,,,,,,,,,,,More than half,Less than half,None,All,Many,Few,Half,Some,Most,-0.140062014,-0.312451681,1,0,0,QQQ6,,,,,,,,English,2020-07-02_12h33.17.751,Experiment_English,3.2.4,Linux x86_64,60,,,1,0,340,131,1,339,ratio15_2_12_14.png,,,,,,,,,,,,
,,,,,,,,,,,,Most,Half,All,Less than half,None,Some,Few,Many,More than half,-0.40587612,0.220224957,1,0,0,QQQ7,,,,,,,,English,2020-07-02_12h33.17.751,Experiment_English,3.2.4,Linux x86_64,60,,,1,0,340,104,1,339,ratio14_1_5_10.png,,,,,,,,,,,,
,,,,,,,,,,,,More than half,Few,Half,Many,All,Most,Less than half,Some,None,-0.496373375,0.26320982,1,0,0,QQQ7,,,,,,,,English,2020-07-02_12h33.17.751,Experiment_English,3.2.4,Linux x86_64,60,,,1,0,340,248,1,339,ratio34_3_7_19.png,0.406691551,-0.389528195,1,0,0,continue_button_pause,1,0,1,0,1,0
,,,,,,,,,,,,,,,,,,,,,,,,,,,,,,,,,,English,2020-07-02_12h33.17.751,Experiment_English,3.2.4,Linux x86_64,60,,,1,0,340,248,1,339,ratio34_3_7_19.png,,,,,,,,,,,,
,,,,,,,,,,,,More than half,All,Some,Most,Few,Less than half,Half,None,Many,-0.042470058,-0.037300269,1,0,0,QQQ5,,,,,,,,English,2020-07-02_12h33.17.751,Experiment_English,3.2.4,Linux x86_64,60,,,1,0,340,154,1,339,ratio19_2_20_11.png,,,,,,,,,,,,
,,,,,,,,,,,,More than half,Most,Less than half,Half,None,Some,All,Many,Few,-0.580009441,-0.014036139,1,0,0,QQQ8,,,,,,,,English,2020-07-02_12h33.17.751,Experiment_English,3.2.4,Linux x86_64,60,,,1,0,340,320,1,339,ratio91_9_10_1.png,,,,,,,,,,,,
,,,,,,,,,,,,Less than half,Few,All,Half,None,Many,Some,Most,More than half,-0.03204306,0.307152033,1,0,0,QQQ4,,,,,,,,English,2020-07-02_12h33.17.751,Experiment_English,3.2.4,Linux x86_64,60,,,1,0,340,20,1,339,ratio11_2_4_3.png,,,,,,,,,,,,
,,,,,,,,,,,,Less than half,Many,Most,None,More than half,Some,All,Half,Few,0.005416473,0.237396995,1,0,0,QQQ4,,,,,,,,English,2020-07-02_12h33.17.751,Experiment_English,3.2.4,Linux x86_64,60,,,1,0,340,62,1,339,ratio0Y_0_5_4.png,,,,,,,,,,,,
,,,,,,,,,,,,Half,Some,Few,Most,None,All,Many,Less than half,More than half,-0.409405589,-0.285382509,1,0,0,QQQ9,,,,,,,,English,2020-07-02_12h33.17.751,Experiment_English,3.2.4,Linux x86_64,60,,,1,0,340,173,1,339,ratio21_8_12_9.png,,,,,,,,,,,,
,,,,,,,,,,,,More than half,None,Half,Many,All,Less than half,Few,Some,Most,-0.537698944,0.263419469,1,0,0,QQQ7,,,,,,,,English,2020-07-02_12h33.17.751,Experiment_English,3.2.4,Linux x86_64,60,,,1,0,340,98,1,339,ratio13_5_20_3.png,,,,,,,,,,,,
,,,,,,,,,,,,Most,Many,Some,More than half,None,All,Few,Half,Less than half,0.525962353,-0.049099843,1,0,0,QQQ2,,,,,,,,English,2020-07-02_12h33.17.751,Experiment_English,3.2.4,Linux x86_64,60,,,1,0,340,214,1,339,ratio31_12_16_5.png,,,,,,,,,,,,
,,,,,,,,,,,,More than half,Most,All,Some,Few,Less than half,Many,Half,None,0.49118948,0.21733588,1,0,0,QQQ1,,,,,,,,English,2020-07-02_12h33.17.751,Experiment_English,3.2.4,Linux x86_64,60,,,1,0,340,285,1,339,ratio43_4_7_14.png,,,,,,,,,,,,
,,,,,,,,,,,,Many,Half,None,Few,More than half,All,Less than half,Most,Some,-0.00960056,-0.038103501,1,0,0,QQQ5,,,,,,,,English,2020-07-02_12h33.17.751,Experiment_English,3.2.4,Linux x86_64,60,,,1,0,340,38,1,339,ratio11_10_20_5.png,,,,,,,,,,,,
,,,,,,,,,,,,Some,All,Less than half,Half,None,More than half,Many,Most,Few,-0.476543188,0.277631978,1,0,0,QQQ7,,,,,,,,English,2020-07-02_12h33.17.751,Experiment_English,3.2.4,Linux x86_64,60,,,1,0,340,179,1,339,ratio21_12_18_8.png,,,,,,,,,,,,
,,,,,,,,,,,,Most,More than half,None,Few,All,Half,Some,Many,Less than half,-0.508379459,0.012260238,1,0,0,QQQ8,,,,,,,,English,2020-07-02_12h33.17.751,Experiment_English,3.2.4,Linux x86_64,60,,,1,0,340,169,1,339,ratio21_6_9_7.png,,,,,,,,,,,,
,,,,,,,,,,,,All,Many,Some,None,Less than half,Half,Most,Few,More than half,-0.549007257,0.375220507,1,0,0,QQQ7,,,,,,,,English,2020-07-02_12h33.17.751,Experiment_English,3.2.4,Linux x86_64,60,,,1,0,340,306,1,339,ratio51_5_6_18.png,,,,,,,,,,,,
,,,,,,,,,,,,Half,Many,More than half,Few,Most,None,All,Less than half,Some,-0.406299273,0.293197612,1,0,0,QQQ7,,,,,,,,English,2020-07-02_12h33.17.751,Experiment_English,3.2.4,Linux x86_64,60,,,1,0,340,46,1,339,ratioX0_9_9_3.png,,,,,,,,,,,,
,,,,,,,,,,,,Few,Most,Half,Some,Many,More than half,All,Less than half,None,0.017113686,-0.300728957,1,0,0,QQQ6,,,,,,,,English,2020-07-02_12h33.17.751,Experiment_English,3.2.4,Linux x86_64,60,,,1,0,340,280,1,339,ratio43_4_7_2.png,,,,,,,,,,,,
,,,,,,,,,,,,All,Some,More than half,Many,Less than half,Half,Most,Few,None,0.0803744,0.283291598,1,0,0,QQQ4,,,,,,,,English,2020-07-02_12h33.17.751,Experiment_English,3.2.4,Linux x86_64,60,,,1,0,340,232,1,339,ratio32_9_15_8.png,,,,,,,,,,,,
,,,,,,,,,,,,Half,More than half,Many,All,Some,Most,None,Few,Less than half,0.427960873,-0.304949522,1,0,0,QQQ3,,,,,,,,English,2020-07-02_12h33.17.751,Experiment_English,3.2.4,Linux x86_64,60,,,1,0,340,177,1,339,ratio21_12_18_1.png,,,,,,,,,,,,
,,,,,,,,,,,,All,Many,Less than half,Some,None,Most,More than half,Half,Few,0.148948034,-0.291043997,1,0,0,QQQ6,,,,,,,,English,2020-07-02_12h33.17.751,Experiment_English,3.2.4,Linux x86_64,60,,,1,0,340,300,1,339,ratio51_5_6_1.png,,,,,,,,,,,,
,,,,,,,,,,,,None,Less than half,Some,Most,Few,All,More than half,Half,Many,0.567593733,-0.009154201,1,0,0,QQQ2,,,,,,,,English,2020-07-02_12h33.17.751,Experiment_English,3.2.4,Linux x86_64,60,,,1,0,340,181,1,339,ratio23_2_5_6.png,,,,,,,,,,,,
,,,,,,,,,,,,Many,Less than half,Few,All,None,Most,More than half,Some,Half,0.00764219,-0.019045671,1,0,0,QQQ5,,,,,,,,English,2020-07-02_12h33.17.751,Experiment_English,3.2.4,Linux x86_64,60,,,1,0,340,70,1,339,ratio0Y_0_12_5.png,,,,,,,,,,,,
,,,,,,,,,,,,None,Less than half,Few,Many,Some,Most,All,Half,More than half,-0.453518073,0.261740247,1,0,0,QQQ7,,,,,,,,English,2020-07-02_12h33.17.751,Experiment_English,3.2.4,Linux x86_64,60,,,1,0,340,48,1,339,ratioX0_10_10_1.png,,,,,,,,,,,,
,,,,,,,,,,,,Many,Few,All,Less than half,None,Some,More than half,Half,Most,-0.522764365,-0.222691139,1,0,0,QQQ9,,,,,,,,English,2020-07-02_12h33.17.751,Experiment_English,3.2.4,Linux x86_64,60,,,1,0,340,304,1,339,ratio51_5_6_13.png,,,,,,,,,,,,
,,,,,,,,,,,,Few,Most,All,Many,Less than half,Some,None,More than half,Half,0.488654772,-0.026607553,1,0,0,QQQ2,,,,,,,,English,2020-07-02_12h33.17.751,Experiment_English,3.2.4,Linux x86_64,60,,,1,0,340,328,1,339,ratio91_9_10_15.png,,,,,,,,,,,,
,,,,,,,,,,,,Few,More than half,Most,All,Many,None,Half,Less than half,Some,0.383070151,-0.253782829,1,0,0,QQQ3,,,,,,,,English,2020-07-02_12h33.17.751,Experiment_English,3.2.4,Linux x86_64,60,,,1,0,340,321,1,339,ratio91_9_10_2.png,,,,,,,,,,,,
,,,,,,,,,,,,Most,Some,Half,Many,Few,More than half,None,All,Less than half,0.48510615,-0.23114268,1,0,0,QQQ3,,,,,,,,English,2020-07-02_12h33.17.751,Experiment_English,3.2.4,Linux x86_64,60,,,1,0,340,251,1,339,ratio34_6_14_2.png,,,,,,,,,,,,
,,,,,,,,,,,,More than half,None,Few,All,Many,Half,Most,Some,Less than half,0.454869906,-0.350259542,1,0,0,QQQ3,,,,,,,,English,2020-07-02_12h33.17.751,Experiment_English,3.2.4,Linux x86_64,60,,,1,0,340,90,1,339,ratio13_3_12_7.png,,,,,,,,,,,,
,,,,,,,,,,,,More than half,Some,Many,None,Less than half,All,Half,Most,Few,-0.462858359,-0.256495635,1,0,0,QQQ9,,,,,,,,English,2020-07-02_12h33.17.751,Experiment_English,3.2.4,Linux x86_64,60,,,1,0,340,120,1,339,ratio15_1_6_1.png,,,,,,,,,,,,
,,,,,,,,,,,,Some,Half,Most,Few,None,Many,More than half,All,Less than half,0.427777926,-0.261186679,1,0,0,QQQ3,,,,,,,,English,2020-07-02_12h33.17.751,Experiment_English,3.2.4,Linux x86_64,60,,,1,0,340,334,1,339,ratio91_18_20_9.png,,,,,,,,,,,,
,,,,,,,,,,,,Few,None,Less than half,Many,Most,Some,Half,All,More than half,-0.476357341,0.044200778,1,0,0,QQQ8,,,,,,,,English,2020-07-02_12h33.17.751,Experiment_English,3.2.4,Linux x86_64,60,,,1,0,340,50,1,339,ratioX0_12_12_3.png,,,,,,,,,,,,
,,,,,,,,,,,,Many,More than half,Some,None,Less than half,Half,Few,All,Most,0.059962511,-0.056393107,1,0,0,QQQ5,,,,,,,,English,2020-07-02_12h33.17.751,Experiment_English,3.2.4,Linux x86_64,60,,,1,0,340,245,1,339,ratio34_3_7_10.png,,,,,,,,,,,,
,,,,,,,,,,,,Few,None,All,Half,Some,Less than half,Many,Most,More than half,-0.445935806,0.219977379,1,0,0,QQQ7,,,,,,,,English,2020-07-02_12h33.17.751,Experiment_English,3.2.4,Linux x86_64,60,,,1,0,340,176,1,339,ratio21_10_15_3.png,,,,,,,,,,,,
,,,,,,,,,,,,Most,Few,All,Some,Many,Less than half,Half,None,More than half,-0.403429389,-0.250565052,1,0,0,QQQ9,,,,,,,,English,2020-07-02_12h33.17.751,Experiment_English,3.2.4,Linux x86_64,60,,,1,0,340,161,1,339,ratio21_2_3_8.png,,,,,,,,,,,,
,,,,,,,,,,,,Few,None,Half,Most,Less than half,Some,All,Many,More than half,0.505926768,0.378766477,1,0,0,QQQ1,,,,,,,,English,2020-07-02_12h33.17.751,Experiment_English,3.2.4,Linux x86_64,60,,,1,0,340,150,1,339,ratio19_2_20_1.png,,,,,,,,,,,,
,,,,,,,,,,,,None,Most,All,Less than half,More than half,Few,Half,Some,Many,0.081981103,0.041642427,1,0,0,QQQ5,,,,,,,,English,2020-07-02_12h33.17.751,Experiment_English,3.2.4,Linux x86_64,60,,,1,0,340,196,1,339,ratio23_8_20_5.png,,,,,,,,,,,,
,,,,,,,,,,,,Some,None,Less than half,Many,All,Few,Half,More than half,Most,-0.405943354,0.257445912,1,0,0,QQQ7,,,,,,,,English,2020-07-02_12h33.17.751,Experiment_English,3.2.4,Linux x86_64,60,,,1,0,340,28,1,339,ratio11_5_10_9.png,0.335085154,-0.370194912,1,0,0,continue_button_pause,1,0,1,0,1,0
,,,,,,,,,,,,,,,,,,,,,,,,,,,,,,,,,,English,2020-07-02_12h33.17.751,Experiment_English,3.2.4,Linux x86_64,60,,,1,0,340,28,1,339,ratio11_5_10_9.png,,,,,,,,,,,,
,,,,,,,,,,,,Many,All,More than half,Few,Half,None,Most,Some,Less than half,0.043636958,0.253304164,1,0,0,QQQ4,,,,,,,,English,2020-07-02_12h33.17.751,Experiment_English,3.2.4,Linux x86_64,60,,,1,0,340,143,1,339,ratio19_1_10_9.png,,,,,,,,,,,,
,,,,,,,,,,,,None,Most,Half,All,Few,Some,Many,More than half,Less than half,0.445947011,-0.026193221,1,0,0,QQQ2,,,,,,,,English,2020-07-02_12h33.17.751,Experiment_English,3.2.4,Linux x86_64,60,,,1,0,340,263,1,339,ratio41_4_5_5.png,,,,,,,,,,,,
,,,,,,,,,,,,All,Few,Many,None,Less than half,Some,Most,Half,More than half,0.004292885,0.031644583,1,0,0,QQQ5,,,,,,,,English,2020-07-02_12h33.17.751,Experiment_English,3.2.4,Linux x86_64,60,,,1,0,340,183,1,339,ratio23_2_5_9.png,,,,,,,,,,,,
,,,,,,,,,,,,Half,Many,None,Less than half,Most,More than half,Few,All,Some,0.047304471,-0.236121972,1,0,0,QQQ6,,,,,,,,English,2020-07-02_12h33.17.751,Experiment_English,3.2.4,Linux x86_64,60,,,1,0,340,281,1,339,ratio43_4_7_4.png,,,,,,,,,,,,
,,,,,,,,,,,,More than half,Some,Half,Most,Few,Less than half,Many,All,None,-0.520894726,-0.005115827,1,0,0,QQQ8,,,,,,,,English,2020-07-02_12h33.17.751,Experiment_English,3.2.4,Linux x86_64,60,,,1,0,340,54,1,339,ratioX0_15_15_5.png,,,,,,,,,,,,
,,,,,,,,,,,,Less than half,Many,Some,All,Most,None,Half,Few,More than half,-0.009180625,0.317980011,1,0,0,QQQ4,,,,,,,,English,2020-07-02_12h33.17.751,Experiment_English,3.2.4,Linux x86_64,60,,,1,0,340,42,1,339,ratioX0_5_5_5.png,,,,,,,,,,,,
,,,,,,,,,,,,Half,Less than half,None,More than half,Few,Some,Many,All,Most,0.085221926,-0.011735002,1,0,0,QQQ5,,,,,,,,English,2020-07-02_12h33.17.751,Experiment_English,3.2.4,Linux x86_64,60,,,1,0,340,102,1,339,ratio14_1_5_8.png,,,,,,,,,,,,
,,,,,,,,,,,,Few,Some,Half,None,Less than half,Most,Many,All,More than half,-0.531731963,0.226576825,1,0,0,QQQ7,,,,,,,,English,2020-07-02_12h33.17.751,Experiment_English,3.2.4,Linux x86_64,60,,,1,0,340,309,1,339,ratio51_10_12_10.png,,,,,,,,,,,,
,,,,,,,,,,,,Less than half,More than half,All,None,Most,Few,Half,Some,Many,-0.025194565,-0.220930258,1,0,0,QQQ6,,,,,,,,English,2020-07-02_12h33.17.751,Experiment_English,3.2.4,Linux x86_64,60,,,1,0,340,123,1,339,ratio15_1_6_12.png,,,,,,,,,,,,
,,,,,,,,,,,,Some,Most,Less than half,Half,More than half,All,Few,None,Many,-0.45045352,-0.312721491,1,0,0,QQQ9,,,,,,,,English,2020-07-02_12h33.17.751,Experiment_English,3.2.4,Linux x86_64,60,,,1,0,340,277,1,339,ratio41_16_20_8.png,,,,,,,,,,,,
,,,,,,,,,,,,More than half,Few,Less than half,Half,Some,All,Most,Many,None,-0.026195765,0.032756646,1,0,0,QQQ5,,,,,,,,English,2020-07-02_12h33.17.751,Experiment_English,3.2.4,Linux x86_64,60,,,1,0,340,256,1,339,ratio34_6_14_11.png,,,,,,,,,,,,
,,,,,,,,,,,,Most,None,All,Few,Less than half,More than half,Many,Some,Half,-0.026195765,0.032756646,1,0,0,QQQ5,,,,,,,,English,2020-07-02_12h33.17.751,Experiment_English,3.2.4,Linux x86_64,60,,,1,0,340,8,1,339,ratio12_3_9_4.png,,,,,,,,,,,,
,,,,,,,,,,,,None,Many,More than half,Half,Some,All,Less than half,Most,Few,0.458054225,-0.017331004,1,0,0,QQQ2,,,,,,,,English,2020-07-02_12h33.17.751,Experiment_English,3.2.4,Linux x86_64,60,,,1,0,340,291,1,339,ratio43_8_14_5.png,,,,,,,,,,,,
,,,,,,,,,,,,Some,Few,None,Many,Most,Half,All,Less than half,More than half,-0.033109109,0.031105757,1,0,0,QQQ5,,,,,,,,English,2020-07-02_12h33.17.751,Experiment_English,3.2.4,Linux x86_64,60,,,1,0,340,337,1,339,ratio91_18_20_16.png,,,,,,,,,,,,
,,,,,,,,,,,,All,None,Few,Most,Many,Less than half,Some,More than half,Half,-0.008921385,0.353761643,1,0,0,QQQ4,,,,,,,,English,2020-07-02_12h33.17.751,Experiment_English,3.2.4,Linux x86_64,60,,,1,0,340,271,1,339,ratio41_12_15_6.png,,,,,,,,,,,,
,,,,,,,,,,,,All,Most,More than half,Many,Few,Less than half,Some,None,Half,0.503607114,-0.039609869,1,0,0,QQQ2,,,,,,,,English,2020-07-02_12h33.17.751,Experiment_English,3.2.4,Linux x86_64,60,,,1,0,340,314,1,339,ratio51_15_18_4.png,,,,,,,,,,,,
,,,,,,,,,,,,Many,Half,Most,Some,All,More than half,Less than half,None,Few,0.465739091,-0.32609574,1,0,0,QQQ3,,,,,,,,English,2020-07-02_12h33.17.751,Experiment_English,3.2.4,Linux x86_64,60,,,1,0,340,324,1,339,ratio91_9_10_7.png,,,,,,,,,,,,
,,,,,,,,,,,,Many,All,None,Most,Half,Some,More than half,Less than half,Few,-0.410507997,-0.059555213,1,0,0,QQQ8,,,,,,,,English,2020-07-02_12h33.17.751,Experiment_English,3.2.4,Linux x86_64,60,,,1,0,340,184,1,339,ratio23_2_5_10.png,,,,,,,,,,,,
,,,,,,,,,,,,None,Most,Half,Less than half,More than half,Few,All,Many,Some,-0.009628932,-0.309942007,1,0,0,QQQ6,,,,,,,,English,2020-07-02_12h33.17.751,Experiment_English,3.2.4,Linux x86_64,60,,,1,0,340,149,1,339,ratio19_1_10_20.png,,,,,,,,,,,,
,,,,,,,,,,,,Less than half,Some,Few,Many,None,All,Half,Most,More than half,-0.55253764,-0.024012446,1,0,0,QQQ8,,,,,,,,English,2020-07-02_12h33.17.751,Experiment_English,3.2.4,Linux x86_64,60,,,1,0,340,39,1,339,ratio11_10_20_6.png,,,,,,,,,,,,
,,,,,,,,,,,,None,Some,Few,Many,Half,Less than half,Most,More than half,All,0.514050325,-0.264963229,1,0,0,QQQ3,,,,,,,,English,2020-07-02_12h33.17.751,Experiment_English,3.2.4,Linux x86_64,60,,,1,0,340,129,1,339,ratio15_2_12_9.png,,,,,,,,,,,,
,,,,,,,,,,,,Few,Half,Less than half,Many,None,More than half,Most,Some,All,-0.475553274,0.272530496,1,0,0,QQQ7,,,,,,,,English,2020-07-02_12h33.17.751,Experiment_English,3.2.4,Linux x86_64,60,,,1,0,340,219,1,339,ratio31_15_20_10.png,,,,,,,,,,,,
,,,,,,,,,,,,Less than half,Many,More than half,Few,Half,Some,None,Most,All,0.043092807,-0.034968654,1,0,0,QQQ5,,,,,,,,English,2020-07-02_12h33.17.751,Experiment_English,3.2.4,Linux x86_64,60,,,1,0,340,189,1,339,ratio23_4_10_8.png,,,,,,,,,,,,
,,,,,,,,,,,,Many,Most,Some,More than half,All,None,Less than half,Half,Few,-0.420015971,-0.255508105,1,0,0,QQQ9,,,,,,,,English,2020-07-02_12h33.17.751,Experiment_English,3.2.4,Linux x86_64,60,,,1,0,340,80,1,339,ratio13_1_4_3.png,,,,,,,,,,,,
,,,,,,,,,,,,Few,Half,More than half,All,Most,Many,None,Some,Less than half,0.096679211,-0.269398928,1,0,0,QQQ6,,,,,,,,English,2020-07-02_12h33.17.751,Experiment_English,3.2.4,Linux x86_64,60,,,1,0,340,332,1,339,ratio91_18_20_4.png,,,,,,,,,,,,
,,,,,,,,,,,,Less than half,Some,More than half,Many,Most,Few,Half,All,None,-0.4439013,-0.293491602,1,0,0,QQQ9,,,,,,,,English,2020-07-02_12h33.17.751,Experiment_English,3.2.4,Linux x86_64,60,,,1,0,340,77,1,339,ratio0Y_0_18_3.png,,,,,,,,,,,,
,,,,,,,,,,,,Many,Less than half,All,Some,Most,Few,None,Half,More than half,-0.617147466,-0.316883326,1,0,0,QQQ9,,,,,,,,English,2020-07-02_12h33.17.751,Experiment_English,3.2.4,Linux x86_64,60,,,1,0,340,298,1,339,ratio43_8_14_14.png,,,,,,,,,,,,
,,,,,,,,,,,,Few,All,Less than half,Half,Many,More than half,Most,None,Some,-0.018546184,0.357290566,1,0,0,QQQ4,,,,,,,,English,2020-07-02_12h33.17.751,Experiment_English,3.2.4,Linux x86_64,60,,,1,0,340,226,1,339,ratio32_6_10_5.png,,,,,,,,,,,,
,,,,,,,,,,,,All,More than half,Half,Many,Most,Less than half,Few,Some,None,0.549940427,-0.241583109,1,0,0,QQQ3,,,,,,,,English,2020-07-02_12h33.17.751,Experiment_English,3.2.4,Linux x86_64,60,,,1,0,340,21,1,339,ratio11_2_4_10.png,,,,,,,,,,,,
,,,,,,,,,,,,More than half,Less than half,Many,Most,Few,Half,All,None,Some,0.503739675,-0.084930102,1,0,0,QQQ2,,,,,,,,English,2020-07-02_12h33.17.751,Experiment_English,3.2.4,Linux x86_64,60,,,1,0,340,259,1,339,ratio34_6_14_19.png,,,,,,,,,,,,
,,,,,,,,,,,,Some,All,Less than half,Few,More than half,None,Many,Most,Half,0.158071836,0.247178276,1,0,0,QQQ4,,,,,,,,English,2020-07-02_12h33.17.751,Experiment_English,3.2.4,Linux x86_64,60,,,1,0,340,82,1,339,ratio13_1_4_7.png,,,,,,,,,,,,
,,,,,,,,,,,,Less than half,Half,Some,All,More than half,None,Few,Many,Most,-0.423830191,0.019654274,1,0,0,QQQ8,,,,,,,,English,2020-07-02_12h33.17.751,Experiment_English,3.2.4,Linux x86_64,60,,,1,0,340,203,1,339,ratio31_3_4_9.png,,,,,,,,,,,,
,,,,,,,,,,,,Less than half,More than half,None,Many,Half,Few,Most,All,Some,0.584356626,0.042922219,1,0,0,QQQ2,,,,,,,,English,2020-07-02_12h33.17.751,Experiment_English,3.2.4,Linux x86_64,60,,,1,0,340,268,1,339,ratio41_8_10_5.png,,,,,,,,,,,,
,,,,,,,,,,,,More than half,Some,All,Most,Many,None,Few,Less than half,Half,-0.495545506,0.237794598,1,0,0,QQQ7,,,,,,,,English,2020-07-02_12h33.17.751,Experiment_English,3.2.4,Linux x86_64,60,,,1,0,340,139,1,339,ratio15_3_18_20.png,0.35949858,-0.420019468,1,0,0,continue_button_pause,1,0,1,0,1,0
,,,,,,,,,,,,,,,,,,,,,,,,,,,,,,,,,,English,2020-07-02_12h33.17.751,Experiment_English,3.2.4,Linux x86_64,60,,,1,0,340,139,1,339,ratio15_3_18_20.png,,,,,,,,,,,,
,,,,,,,,,,,,Less than half,Half,Some,Few,Most,None,All,More than half,Many,0.498318036,-0.027029753,1,0,0,QQQ2,,,,,,,,English,2020-07-02_12h33.17.751,Experiment_English,3.2.4,Linux x86_64,60,,,1,0,340,187,1,339,ratio23_4_10_5.png,,,,,,,,,,,,
,,,,,,,,,,,,Most,More than half,Some,None,Many,All,Half,Few,Less than half,0.423743645,-0.020804803,1,0,0,QQQ2,,,,,,,,English,2020-07-02_12h33.17.751,Experiment_English,3.2.4,Linux x86_64,60,,,1,0,340,171,1,339,ratio21_8_12_4.png,,,,,,,,,,,,
,,,,,,,,,,,,None,More than half,Most,Many,Half,Less than half,All,Few,Some,-0.584105929,0.017980893,1,0,0,QQQ8,,,,,,,,English,2020-07-02_12h33.17.751,Experiment_English,3.2.4,Linux x86_64,60,,,1,0,340,114,1,339,ratio14_3_15_10.png,,,,,,,,,,,,
,,,,,,,,,,,,Many,Few,Some,More than half,All,Less than half,Half,Most,None,-0.099947294,0.270798107,1,0,0,QQQ4,,,,,,,,English,2020-07-02_12h33.17.751,Experiment_English,3.2.4,Linux x86_64,60,,,1,0,340,201,1,339,ratio31_3_4_7.png,,,,,,,,,,,,
,,,,,,,,,,,,Some,Half,Many,Less than half,Few,All,More than half,Most,None,0.015741984,-0.050702254,1,0,0,QQQ5,,,,,,,,English,2020-07-02_12h33.17.751,Experiment_English,3.2.4,Linux x86_64,60,,,1,0,340,92,1,339,ratio13_4_16_3.png,,,,,,,,,,,,
,,,,,,,,,,,,Many,Less than half,Half,More than half,Most,All,Few,None,Some,-0.031237761,-0.024411321,1,0,0,QQQ5,,,,,,,,English,2020-07-02_12h33.17.751,Experiment_English,3.2.4,Linux x86_64,60,,,1,0,340,194,1,339,ratio23_6_15_10.png,,,,,,,,,,,,
,,,,,,,,,,,,Most,More than half,Few,All,Many,Less than half,Half,None,Some,0.417665561,0.328344524,1,0,0,QQQ1,,,,,,,,English,2020-07-02_12h33.17.751,Experiment_English,3.2.4,Linux x86_64,60,,,1,0,340,295,1,339,ratio43_8_14_11.png,,,,,,,,,,,,
,,,,,,,,,,,,Some,Most,More than half,All,Few,Half,Less than half,None,Many,0.453120391,-0.248723984,1,0,0,QQQ3,,,,,,,,English,2020-07-02_12h33.17.751,Experiment_English,3.2.4,Linux x86_64,60,,,1,0,340,220,1,339,ratio32_3_5_1.png,,,,,,,,,,,,
,,,,,,,,,,,,All,More than half,Many,Most,Less than half,Some,Half,None,Few,-0.607003748,-0.265002886,1,0,0,QQQ9,,,,,,,,English,2020-07-02_12h33.17.751,Experiment_English,3.2.4,Linux x86_64,60,,,1,0,340,118,1,339,ratio14_4_20_8.png,,,,,,,,,,,,
,,,,,,,,,,,,All,Many,Most,Less than half,Few,Some,None,More than half,Half,-0.067474047,0.015012304,1,0,0,QQQ5,,,,,,,,English,2020-07-02_12h33.17.751,Experiment_English,3.2.4,Linux x86_64,60,,,1,0,340,25,1,339,ratio11_4_8_10.png,,,,,,,,,,,,
,,,,,,,,,,,,Many,Some,Most,Few,All,More than half,Less than half,None,Half,-0.405073086,-0.002705216,1,0,0,QQQ8,,,,,,,,English,2020-07-02_12h33.17.751,Experiment_English,3.2.4,Linux x86_64,60,,,1,0,340,60,1,339,ratio0Y_0_3_5.png,,,,,,,,,,,,
,,,,,,,,,,,,All,More than half,Most,None,Half,Few,Some,Many,Less than half,0.005307357,-0.205144723,1,0,0,QQQ6,,,,,,,,English,2020-07-02_12h33.17.751,Experiment_English,3.2.4,Linux x86_64,60,,,1,0,340,101,1,339,ratio14_1_5_7.png,,,,,,,,,,,,
,,,,,,,,,,,,Many,Half,More than half,Few,Some,None,All,Less than half,Most,0.126422485,0.299322863,1,0,0,QQQ4,,,,,,,,English,2020-07-02_12h33.17.751,Experiment_English,3.2.4,Linux x86_64,60,,,1,0,340,137,1,339,ratio15_3_18_16.png,,,,,,,,,,,,
,,,,,,,,,,,,Half,More than half,None,Some,Most,Few,Less than half,All,Many,-0.023887634,0.3030683,1,0,0,QQQ4,,,,,,,,English,2020-07-02_12h33.17.751,Experiment_English,3.2.4,Linux x86_64,60,,,1,0,340,96,1,339,ratio13_5_20_1.png,,,,,,,,,,,,
,,,,,,,,,,,,More than half,None,Few,Less than half,Some,Half,Many,Most,All,0.563690662,-0.267914295,1,0,0,QQQ3,,,,,,,,English,2020-07-02_12h33.17.751,Experiment_English,3.2.4,Linux x86_64,60,,,1,0,340,151,1,339,ratio19_2_20_4.png,,,,,,,,,,,,
,,,,,,,,,,,,More than half,None,Few,All,Half,Less than half,Many,Some,Most,0.563690662,-0.267914295,1,0,0,QQQ3,,,,,,,,English,2020-07-02_12h33.17.751,Experiment_English,3.2.4,Linux x86_64,60,,,1,0,340,152,1,339,ratio19_2_20_6.png,,,,,,,,,,,,
,,,,,,,,,,,,Less than half,Some,All,None,Few,Half,Most,Many,More than half,0.093314489,-0.03673466,1,0,0,QQQ5,,,,,,,,English,2020-07-02_12h33.17.751,Experiment_English,3.2.4,Linux x86_64,60,,,1,0,340,91,1,339,ratio13_3_12_10.png,,,,,,,,,,,,
,,,,,,,,,,,,Many,Most,None,More than half,Less than half,Half,Some,Few,All,0.031270504,0.252629161,1,0,0,QQQ4,,,,,,,,English,2020-07-02_12h33.17.751,Experiment_English,3.2.4,Linux x86_64,60,,,1,0,340,286,1,339,ratio43_4_7_15.png,,,,,,,,,,,,
,,,,,,,,,,,,All,More than half,Some,None,Many,Half,Few,Most,Less than half,-0.503945947,0.346595387,1,0,0,QQQ7,,,,,,,,English,2020-07-02_12h33.17.751,Experiment_English,3.2.4,Linux x86_64,60,,,1,0,340,11,1,339,ratio12_4_12_7.png,,,,,,,,,,,,
,,,,,,,,,,,,All,Many,Most,Less than half,Few,Half,More than half,None,Some,-0.349613945,-0.361808379,1,0,0,QQQ9,,,,,,,,English,2020-07-02_12h33.17.751,Experiment_English,3.2.4,Linux x86_64,60,,,1,0,340,144,1,339,ratio19_1_10_11.png,,,,,,,,,,,,
,,,,,,,,,,,,Less than half,Most,Half,Some,More than half,Many,None,All,Few,-0.0447402,0.004824082,1,0,0,QQQ5,,,,,,,,English,2020-07-02_12h33.17.751,Experiment_English,3.2.4,Linux x86_64,60,,,1,0,340,199,1,339,ratio23_8_20_8.png,,,,,,,,,,,,
,,,,,,,,,,,,None,Few,More than half,Half,Less than half,All,Most,Many,Some,0.458602905,-0.273858865,1,0,0,QQQ3,,,,,,,,English,2020-07-02_12h33.17.751,Experiment_English,3.2.4,Linux x86_64,60,,,1,0,340,211,1,339,ratio31_9_12_10.png,,,,,,,,,,,,
,,,,,,,,,,,,All,Most,Half,Few,Less than half,Many,Some,More than half,None,-0.460040053,0.231004536,1,0,0,QQQ7,,,,,,,,English,2020-07-02_12h33.17.751,Experiment_English,3.2.4,Linux x86_64,60,,,1,0,340,163,1,339,ratio21_4_6_1.png,,,,,,,,,,,,
,,,,,,,,,,,,Many,All,Most,Some,Few,Half,Less than half,More than half,None,0.501413981,0.302950799,1,0,0,QQQ1,,,,,,,,English,2020-07-02_12h33.17.751,Experiment_English,3.2.4,Linux x86_64,60,,,1,0,340,212,1,339,ratio31_12_16_1.png,,,,,,,,,,,,
,,,,,,,,,,,,Half,Many,Few,More than half,Most,Less than half,Some,All,None,-0.041179498,-0.23899436,1,0,0,QQQ6,,,,,,,,English,2020-07-02_12h33.17.751,Experiment_English,3.2.4,Linux x86_64,60,,,1,0,340,247,1,339,ratio34_3_7_12.png,,,,,,,,,,,,
,,,,,,,,,,,,None,More than half,All,Many,Few,Some,Half,Less than half,Most,-0.139000336,0.009440303,1,0,0,QQQ5,,,,,,,,English,2020-07-02_12h33.17.751,Experiment_English,3.2.4,Linux x86_64,60,,,1,0,340,110,1,339,ratio14_3_15_2.png,,,,,,,,,,,,
,,,,,,,,,,,,Most,Few,Many,More than half,All,None,Half,Less than half,Some,-0.516035597,-0.25423344,1,0,0,QQQ9,,,,,,,,English,2020-07-02_12h33.17.751,Experiment_English,3.2.4,Linux x86_64,60,,,1,0,340,174,1,339,ratio21_10_15_1.png,,,,,,,,,,,,
,,,,,,,,,,,,None,Half,Most,Some,More than half,All,Many,Few,Less than half,-0.591890653,-0.319145838,1,0,0,QQQ9,,,,,,,,English,2020-07-02_12h33.17.751,Experiment_English,3.2.4,Linux x86_64,60,,,1,0,340,186,1,339,ratio23_4_10_2.png,,,,,,,,,,,,
,,,,,,,,,,,,None,All,Few,Half,Some,Most,More than half,Many,Less than half,-0.400327086,-0.007797043,1,0,0,QQQ8,,,,,,,,English,2020-07-02_12h33.17.751,Experiment_English,3.2.4,Linux x86_64,60,,,1,0,340,279,1,339,ratio41_16_20_10.png,,,,,,,,,,,,
,,,,,,,,,,,,Some,None,Half,More than half,All,Most,Few,Many,Less than half,0.466662725,0.004707654,1,0,0,QQQ2,,,,,,,,English,2020-07-02_12h33.17.751,Experiment_English,3.2.4,Linux x86_64,60,,,1,0,340,76,1,339,ratio0Y_0_17_10.png,,,,,,,,,,,,
,,,,,,,,,,,,None,Few,Many,Some,More than half,Most,All,Half,Less than half,0.007498741,0.23831588,1,0,0,QQQ4,,,,,,,,English,2020-07-02_12h33.17.751,Experiment_English,3.2.4,Linux x86_64,60,,,1,0,340,166,1,339,ratio21_6_9_1.png,,,,,,,,,,,,
,,,,,,,,,,,,More than half,Half,All,Some,Few,Most,Less than half,None,Many,-0.407621145,-0.238925616,1,0,0,QQQ9,,,,,,,,English,2020-07-02_12h33.17.751,Experiment_English,3.2.4,Linux x86_64,60,,,1,0,340,313,1,339,ratio51_15_18_2.png,,,,,,,,,,,,
,,,,,,,,,,,,All,Most,Less than half,Some,Many,None,Few,More than half,Half,-0.424586733,0.234971801,1,0,0,QQQ7,,,,,,,,English,2020-07-02_12h33.17.751,Experiment_English,3.2.4,Linux x86_64,60,,,1,0,340,81,1,339,ratio13_1_4_5.png,,,,,,,,,,,,
,,,,,,,,,,,,Less than half,Most,Many,None,Some,All,Few,Half,More than half,0.416861375,-0.237337907,1,0,0,QQQ3,,,,,,,,English,2020-07-02_12h33.17.751,Experiment_English,3.2.4,Linux x86_64,60,,,1,0,340,233,1,339,ratio32_9_15_9.png,,,,,,,,,,,,
