continue_mouse.x,continue_mouse.y,continue_mouse.leftButton,continue_mouse.midButton,continue_mouse.rightButton,continue_mouse.clicked_name,continue_mouse_2.x,continue_mouse_2.y,continue_mouse_2.leftButton,continue_mouse_2.midButton,continue_mouse_2.rightButton,continue_mouse_2.clicked_name,Q1,Q2,Q3,Q4,Q5,Q6,Q7,Q8,Q9,select_answer.x,select_answer.y,select_answer.leftButton,select_answer.midButton,select_answer.rightButton,select_answer.clicked_name,trial.thisRepN,trial.thisTrialN,trial.thisN,trial.thisIndex,trial.ran,trial.order,trials,Native tongue*,date,expName,psychopyVersion,OS,frameRate,key_resp.keys,key_resp.rt,trial_2.thisRepN,trial_2.thisTrialN,trial_2.thisN,trial_2.thisIndex,trial_2.ran,trial_2.order,continue_mouse_3.x,continue_mouse_3.y,continue_mouse_3.leftButton,continue_mouse_3.midButton,continue_mouse_3.rightButton,continue_mouse_3.clicked_name,insts.thisRepN,insts.thisTrialN,insts.thisN,insts.thisIndex,insts.ran,insts.order,Actual_Experiment.thisRepN,Actual_Experiment.thisTrialN,Actual_Experiment.thisN,Actual_Experiment.thisIndex,Actual_Experiment.ran,Actual_Experiment.order,Pic,mouse_pause.x,mouse_pause.y,mouse_pause.leftButton,mouse_pause.midButton,mouse_pause.rightButton,mouse_pause.clicked_name,pause.thisRepN,pause.thisTrialN,pause.thisN,pause.thisIndex,pause.ran,pause.order
0.380555574,-0.426851866,1,0,0,continue_button,0.375925945,-0.443518533,1,0,0,continue_button_2,Most,Half,More than half,Some,Many,Less than half,None,All,Few,0.105263175,-0.293905829,1,0,0,QQQ6,1,0,16,0,1,15,ratio91_9_10_19.png,English,2020-07-02_11h01.59.659,Experiment_English,3.2.4,Win32,60,,,,,,,,,,,,,,,,,,,,,,,,,,,,,,,,,,,,,,,
,,,,,,,,,,,,All,Half,Less than half,Some,Many,Most,Few,More than half,None,0.455401685,-0.323822727,1,0,0,QQQ3,1,0,16,13,1,15,ratio12_5_15_1.png,English,2020-07-02_11h01.59.659,Experiment_English,3.2.4,Win32,60,,,,,,,,,,,,,,,,,,,,,,,,,,,,,,,,,,,,,,,
,,,,,,,,,,,,Many,Some,More than half,Half,Most,Less than half,None,Few,All,0.00221615,0.021883649,1,0,0,QQQ5,1,0,16,8,1,15,ratio21_12_18_3.png,English,2020-07-02_11h01.59.659,Experiment_English,3.2.4,Win32,60,,,,,,,,,,,,,,,,,,,,,,,,,,,,,,,,,,,,,,,
,,,,,,,,,,,,Less than half,All,Half,None,More than half,Some,Many,Most,Few,0.444321352,0.272299149,1,0,0,QQQ1,1,0,16,6,1,15,ratio31_12_16_7.png,English,2020-07-02_11h01.59.659,Experiment_English,3.2.4,Win32,60,,,,,,,,,,,,,,,,,,,,,,,,,,,,,,,,,,,,,,,
,,,,,,,,,,,,Half,Most,None,Few,Some,All,More than half,Many,Less than half,0.480886585,0.026315782,1,0,0,QQQ2,1,0,16,9,1,15,ratio19_1_10_8.png,English,2020-07-02_11h01.59.659,Experiment_English,3.2.4,Win32,60,,,,,,,,,,,,,,,,,,,,,,,,,,,,,,,,,,,,,,,
,,,,,,,,,,,,More than half,All,Few,Less than half,Half,Some,Many,Most,None,0.575069412,0.30110803,1,0,0,QQQ1,,,,,,,ratio32_6_10_2.png,English,2020-07-02_11h01.59.659,Experiment_English,3.2.4,Win32,60,a,19.84500003,1,0,16,5,1,15,,,,,,,,,,,,,,,,,,,,,,,,,,,,,,,
,,,,,,,,,,,,Most,All,Less than half,None,Half,Few,Many,More than half,Some,0.480886585,0.346537394,1,0,0,QQQ1,,,,,,,ratio51_5_6_8.png,English,2020-07-02_11h01.59.659,Experiment_English,3.2.4,Win32,60,,,1,0,16,1,1,15,,,,,,,,,,,,,,,,,,,,,,,,,,,,,,,
,,,,,,,,,,,,Most,None,Many,Few,All,Some,Half,More than half,Less than half,-0.417728522,-0.050138512,1,0,0,QQQ8,,,,,,,ratio43_8_14_19.png,English,2020-07-02_11h01.59.659,Experiment_English,3.2.4,Win32,60,,,1,0,16,2,1,15,,,,,,,,,,,,,,,,,,,,,,,,,,,,,,,
,,,,,,,,,,,,All,Less than half,None,Most,More than half,Half,Few,Some,Many,-0.047645347,-0.001385049,1,0,0,QQQ5,,,,,,,ratio11_5_10_6.png,English,2020-07-02_11h01.59.659,Experiment_English,3.2.4,Win32,60,,,1,0,16,14,1,15,,,,,,,,,,,,,,,,,,,,,,,,,,,,,,,
,,,,,,,,,,,,Some,Half,Less than half,Few,More than half,Most,Many,None,All,0.496398915,0.014127383,1,0,0,QQQ2,,,,,,,ratio21_12_18_3.png,English,2020-07-02_11h01.59.659,Experiment_English,3.2.4,Win32,60,,,1,0,16,8,1,15,,,,,,,,,,,,,,,,,,,,,,,,,,,,,,,
,,,,,,,,,,,,,,,,,,,,,,,,,,,,,,,,,,English,2020-07-02_11h01.59.659,Experiment_English,3.2.4,Win32,60,,,,,,,,,0.380055423,-0.394736855,1,0,0,continue_button_3,1,0,1,0,1,0,,,,,,,,,,,,,,,,,,,
,,,,,,,,,,,,Most,More than half,Some,All,Half,None,Many,Few,Less than half,0.495290882,0.318836562,1,0,0,QQQ1,,,,,,,,English,2020-07-02_11h01.59.659,Experiment_English,3.2.4,Win32,60,,,,,,,,,,,,,,,,,,,,,1,0,340,238,1,339,ratio32_12_20_9.png,,,,,,,,,,,,
,,,,,,,,,,,,Half,All,None,Most,Many,Few,More than half,Some,Less than half,0.487534649,-0.020221614,1,0,0,QQQ2,,,,,,,,English,2020-07-02_11h01.59.659,Experiment_English,3.2.4,Win32,60,,,,,,,,,,,,,,,,,,,,,1,0,340,50,1,339,ratioX0_12_12_3.png,,,,,,,,,,,,
,,,,,,,,,,,,More than half,Half,Some,Few,Many,None,Less than half,Most,All,0.447645587,0.277839315,1,0,0,QQQ1,,,,,,,,English,2020-07-02_11h01.59.659,Experiment_English,3.2.4,Win32,60,,,,,,,,,,,,,,,,,,,,,1,0,340,234,1,339,ratio32_9_15_10.png,,,,,,,,,,,,
,,,,,,,,,,,,Few,More than half,All,Most,Less than half,None,Some,Many,Half,0.017728548,0.287811614,1,0,0,QQQ4,,,,,,,,English,2020-07-02_11h01.59.659,Experiment_English,3.2.4,Win32,60,,,,,,,,,,,,,,,,,,,,,1,0,340,332,1,339,ratio91_18_20_4.png,,,,,,,,,,,,
,,,,,,,,,,,,Many,None,Most,Few,Less than half,All,More than half,Half,Some,0.052077647,0.25567865,1,0,0,QQQ4,,,,,,,,English,2020-07-02_11h01.59.659,Experiment_English,3.2.4,Win32,60,,,,,,,,,,,,,,,,,,,,,1,0,340,139,1,339,ratio15_3_18_20.png,,,,,,,,,,,,
,,,,,,,,,,,,Most,None,Many,All,Less than half,More than half,Few,Some,Half,-0.425484755,0.223545702,1,0,0,QQQ7,,,,,,,,English,2020-07-02_11h01.59.659,Experiment_English,3.2.4,Win32,60,,,,,,,,,,,,,,,,,,,,,1,0,340,101,1,339,ratio14_1_5_7.png,,,,,,,,,,,,
,,,,,,,,,,,,Many,More than half,Most,Some,Few,All,Less than half,Half,None,0.475346419,-0.261772865,1,0,0,QQQ3,,,,,,,,English,2020-07-02_11h01.59.659,Experiment_English,3.2.4,Win32,60,,,,,,,,,,,,,,,,,,,,,1,0,340,304,1,339,ratio51_5_6_13.png,,,,,,,,,,,,
,,,,,,,,,,,,Many,Less than half,More than half,Few,Half,None,All,Some,Most,-0.520775615,0.257894683,1,0,0,QQQ7,,,,,,,,English,2020-07-02_11h01.59.659,Experiment_English,3.2.4,Win32,60,,,,,,,,,,,,,,,,,,,,,1,0,340,40,1,339,ratioX0_3_3_5.png,,,,,,,,,,,,
,,,,,,,,,,,,Most,Less than half,Few,Many,None,Half,More than half,All,Some,0.498614982,-0.324930828,1,0,0,QQQ3,,,,,,,,English,2020-07-02_11h01.59.659,Experiment_English,3.2.4,Win32,60,,,,,,,,,,,,,,,,,,,,,1,0,340,192,1,339,ratio23_6_15_8.png,,,,,,,,,,,,
,,,,,,,,,,,,More than half,Few,Less than half,None,Half,Most,All,Many,Some,-0.001108017,-0.314958461,1,0,0,QQQ6,,,,,,,,English,2020-07-02_11h01.59.659,Experiment_English,3.2.4,Win32,60,,,,,,,,,,,,,,,,,,,,,1,0,340,325,1,339,ratio91_9_10_8.png,,,,,,,,,,,,
,,,,,,,,,,,,Few,None,Many,More than half,Less than half,All,Some,Half,Most,-0.446537387,-0.304986162,1,0,0,QQQ9,,,,,,,,English,2020-07-02_11h01.59.659,Experiment_English,3.2.4,Win32,60,,,,,,,,,,,,,,,,,,,,,1,0,340,303,1,339,ratio51_5_6_6.png,,,,,,,,,,,,
,,,,,,,,,,,,Few,Many,Most,More than half,All,None,Less than half,Half,Some,-0.024376716,0.283379481,1,0,0,QQQ4,,,,,,,,English,2020-07-02_11h01.59.659,Experiment_English,3.2.4,Win32,60,,,,,,,,,,,,,,,,,,,,,1,0,340,32,1,339,ratio11_7_14_5.png,,,,,,,,,,,,
,,,,,,,,,,,,Many,None,More than half,Few,Half,All,Most,Less than half,Some,0.097506943,-0.342659292,1,0,0,QQQ6,,,,,,,,English,2020-07-02_11h01.59.659,Experiment_English,3.2.4,Win32,60,,,,,,,,,,,,,,,,,,,,,1,0,340,79,1,339,ratio0Y_0_20_4.png,,,,,,,,,,,,
,,,,,,,,,,,,Some,Less than half,None,Half,More than half,Most,Many,Few,All,-0.436565088,-0.349307492,1,0,0,QQQ9,,,,,,,,English,2020-07-02_11h01.59.659,Experiment_English,3.2.4,Win32,60,,,,,,,,,,,,,,,,,,,,,1,0,340,57,1,339,ratioX0_18_18_1.png,,,,,,,,,,,,
,,,,,,,,,,,,All,Half,Most,Some,More than half,None,Less than half,Few,Many,0.497507084,-0.297229996,1,0,0,QQQ3,,,,,,,,English,2020-07-02_11h01.59.659,Experiment_English,3.2.4,Win32,60,,,,,,,,,,,,,,,,,,,,,1,0,340,279,1,339,ratio41_16_20_10.png,,,,,,,,,,,,
,,,,,,,,,,,,Few,None,Some,Half,More than half,Most,All,Less than half,Many,0.541828414,0.055124647,1,0,0,QQQ2,,,,,,,,English,2020-07-02_11h01.59.659,Experiment_English,3.2.4,Win32,60,,,,,,,,,,,,,,,,,,,,,1,0,340,60,1,339,ratio0Y_0_3_5.png,,,,,,,,,,,,
,,,,,,,,,,,,Most,More than half,Some,Less than half,None,Many,All,Few,Half,-0.370083092,-0.005817182,1,0,0,QQQ8,,,,,,,,English,2020-07-02_11h01.59.659,Experiment_English,3.2.4,Win32,60,,,,,,,,,,,,,,,,,,,,,1,0,340,123,1,339,ratio15_1_6_12.png,,,,,,,,,,,,
,,,,,,,,,,,,Some,Many,Most,Half,All,Less than half,Few,None,More than half,0.437673153,-0.298337962,1,0,0,QQQ3,,,,,,,,English,2020-07-02_11h01.59.659,Experiment_English,3.2.4,Win32,60,,,,,,,,,,,,,,,,,,,,,1,0,340,261,1,339,ratio41_4_5_3.png,,,,,,,,,,,,
,,,,,,,,,,,,Most,Half,Some,Many,Less than half,Few,More than half,None,All,0.488642682,0.275623265,1,0,0,QQQ1,,,,,,,,English,2020-07-02_11h01.59.659,Experiment_English,3.2.4,Win32,60,,,,,,,,,,,,,,,,,,,,,1,0,340,169,1,339,ratio21_6_9_7.png,,,,,,,,,,,,
,,,,,,,,,,,,Less than half,More than half,None,Many,Most,All,Few,Half,Some,0.055401679,-0.04127428,1,0,0,QQQ5,,,,,,,,English,2020-07-02_11h01.59.659,Experiment_English,3.2.4,Win32,60,,,,,,,,,,,,,,,,,,,,,1,0,340,212,1,339,ratio31_12_16_1.png,,,,,,,,,,,,
,,,,,,,,,,,,Many,None,Half,Few,More than half,Most,All,Less than half,Some,0.029916981,-0.016897515,1,0,0,QQQ5,,,,,,,,English,2020-07-02_11h01.59.659,Experiment_English,3.2.4,Win32,60,,,,,,,,,,,,,,,,,,,,,1,0,340,166,1,339,ratio21_6_9_1.png,,,,,,,,,,,,
,,,,,,,,,,,,Less than half,Few,Most,None,Half,All,More than half,Many,Some,0.500831048,-0.000277016,1,0,0,QQQ2,,,,,,,,English,2020-07-02_11h01.59.659,Experiment_English,3.2.4,Win32,60,,,,,,,,,,,,,,,,,,,,,1,0,340,138,1,339,ratio15_3_18_17.png,,,,,,,,,,,,
,,,,,,,,,,,,Half,Many,More than half,All,None,Some,Most,Few,Less than half,0.480886585,0.276731282,1,0,0,QQQ1,,,,,,,,English,2020-07-02_11h01.59.659,Experiment_English,3.2.4,Win32,60,,,,,,,,,,,,,,,,,,,,,1,0,340,199,1,339,ratio23_8_20_8.png,,,,,,,,,,,,
,,,,,,,,,,,,Most,Many,Few,None,More than half,Some,Less than half,All,Half,0.074238244,-0.269529165,1,0,0,QQQ6,,,,,,,,English,2020-07-02_11h01.59.659,Experiment_English,3.2.4,Win32,60,,,,,,,,,,,,,,,,,,,,,1,0,340,97,1,339,ratio13_5_20_2.png,,,,,,,,,,,,
,,,,,,,,,,,,Half,Most,All,Some,Many,Less than half,Few,More than half,None,0.415512487,0.006371184,1,0,0,QQQ2,,,,,,,,English,2020-07-02_11h01.59.659,Experiment_English,3.2.4,Win32,60,,,,,,,,,,,,,,,,,,,,,1,0,340,314,1,339,ratio51_15_18_4.png,,,,,,,,,,,,
,,,,,,,,,,,,Most,All,Less than half,None,More than half,Half,Few,Some,Many,-0.019944515,0.360941801,1,0,0,QQQ4,,,,,,,,English,2020-07-02_11h01.59.659,Experiment_English,3.2.4,Win32,60,,,,,,,,,,,,,,,,,,,,,1,0,340,69,1,339,ratio0Y_0_11_6.png,,,,,,,,,,,,
,,,,,,,,,,,,Most,None,Many,More than half,Less than half,All,Few,Some,Half,0.47756235,0.322160645,1,0,0,QQQ1,,,,,,,,English,2020-07-02_11h01.59.659,Experiment_English,3.2.4,Win32,60,,,,,,,,,,,,,,,,,,,,,1,0,340,206,1,339,ratio31_6_8_6.png,,,,,,,,,,,,
,,,,,,,,,,,,None,More than half,All,Some,Half,Less than half,Few,Many,Most,-0.45096952,0.263434849,1,0,0,QQQ7,,,,,,,,English,2020-07-02_11h01.59.659,Experiment_English,3.2.4,Win32,60,,,,,,,,,,,,,,,,,,,,,1,0,340,3,1,339,ratio12_2_6_3.png,,,,,,,,,,,,
,,,,,,,,,,,,Most,None,Many,All,Few,Less than half,More than half,Some,Half,0.027700847,-0.268421064,1,0,0,QQQ6,,,,,,,,English,2020-07-02_11h01.59.659,Experiment_English,3.2.4,Win32,60,,,,,,,,,,,,,,,,,,,,,1,0,340,231,1,339,ratio32_9_15_2.png,,,,,,,,,,,,
,,,,,,,,,,,,None,More than half,Most,All,Half,Less than half,Many,Few,Some,0.453185753,0.292243764,1,0,0,QQQ1,,,,,,,,English,2020-07-02_11h01.59.659,Experiment_English,3.2.4,Win32,60,,,,,,,,,,,,,,,,,,,,,1,0,340,76,1,339,ratio0Y_0_17_10.png,,,,,,,,,,,,
,,,,,,,,,,,,Most,Many,All,Some,Half,More than half,None,Few,Less than half,-0.472022152,-0.025761781,1,0,0,QQQ8,,,,,,,,English,2020-07-02_11h01.59.659,Experiment_English,3.2.4,Win32,60,,,,,,,,,,,,,,,,,,,,,1,0,340,158,1,339,ratio19_2_20_17.png,,,,,,,,,,,,
,,,,,,,,,,,,More than half,Few,Many,Less than half,Some,Most,Half,None,All,0.415512487,-0.004709149,1,0,0,QQQ2,,,,,,,,English,2020-07-02_11h01.59.659,Experiment_English,3.2.4,Win32,60,,,,,,,,,,,,,,,,,,,,,1,0,340,112,1,339,ratio14_3_15_4.png,,,,,,,,,,,,
,,,,,,,,,,,,Most,All,None,Some,More than half,Many,Few,Half,Less than half,-0.515235449,-0.327146827,1,0,0,QQQ9,,,,,,,,English,2020-07-02_11h01.59.659,Experiment_English,3.2.4,Win32,60,,,,,,,,,,,,,,,,,,,,,1,0,340,165,1,339,ratio21_4_6_10.png,,,,,,,,,,,,
,,,,,,,,,,,,None,Most,Few,Less than half,Many,Some,All,More than half,Half,-0.480886418,0.356509693,1,0,0,QQQ7,,,,,,,,English,2020-07-02_11h01.59.659,Experiment_English,3.2.4,Win32,60,,,,,,,,,,,,,,,,,,,,,1,0,340,59,1,339,ratioX0_20_20_9.png,0.32465376,-0.404709155,1,0,0,continue_button_pause,1,0,1,0,1,0
,,,,,,,,,,,,,,,,,,,,,,,,,,,,,,,,,,English,2020-07-02_11h01.59.659,Experiment_English,3.2.4,Win32,60,,,,,,,,,,,,,,,,,,,,,1,0,340,59,1,339,ratioX0_20_20_9.png,,,,,,,,,,,,
,,,,,,,,,,,,Half,Most,Less than half,All,Many,Some,None,Few,More than half,0.392243924,-0.035734114,1,0,0,QQQ2,,,,,,,,English,2020-07-02_11h01.59.659,Experiment_English,3.2.4,Win32,60,,,,,,,,,,,,,,,,,,,,,1,0,340,271,1,339,ratio41_12_15_6.png,,,,,,,,,,,,
,,,,,,,,,,,,Half,All,Most,None,Few,Many,More than half,Less than half,Some,0.427700853,-0.351523558,1,0,0,QQQ3,,,,,,,,English,2020-07-02_11h01.59.659,Experiment_English,3.2.4,Win32,60,,,,,,,,,,,,,,,,,,,,,1,0,340,273,1,339,ratio41_12_15_8.png,,,,,,,,,,,,
,,,,,,,,,,,,Few,More than half,Most,All,Less than half,Many,Half,None,Some,0.428808887,0.2534626,1,0,0,QQQ1,,,,,,,,English,2020-07-02_11h01.59.659,Experiment_English,3.2.4,Win32,60,,,,,,,,,,,,,,,,,,,,,1,0,340,10,1,339,ratio12_4_12_4.png,,,,,,,,,,,,
,,,,,,,,,,,,None,All,More than half,Few,Some,Many,Most,Half,Less than half,0.428808887,0.2534626,1,0,0,QQQ1,,,,,,,,English,2020-07-02_11h01.59.659,Experiment_English,3.2.4,Win32,60,,,,,,,,,,,,,,,,,,,,,1,0,340,63,1,339,ratio0Y_0_6_8.png,,,,,,,,,,,,
,,,,,,,,,,,,Many,Some,Less than half,Most,Half,All,More than half,Few,None,-0.485318551,0.027423816,1,0,0,QQQ8,,,,,,,,English,2020-07-02_11h01.59.659,Experiment_English,3.2.4,Win32,60,,,,,,,,,,,,,,,,,,,,,1,0,340,89,1,339,ratio13_3_12_6.png,,,,,,,,,,,,
,,,,,,,,,,,,Few,None,Some,Most,Many,More than half,All,Less than half,Half,-0.064265845,-0.28393353,1,0,0,QQQ6,,,,,,,,English,2020-07-02_11h01.59.659,Experiment_English,3.2.4,Win32,60,,,,,,,,,,,,,,,,,,,,,1,0,340,171,1,339,ratio21_8_12_4.png,,,,,,,,,,,,
,,,,,,,,,,,,Half,More than half,Some,All,Many,Few,Most,Less than half,None,-0.462049853,-0.047922446,1,0,0,QQQ8,,,,,,,,English,2020-07-02_11h01.59.659,Experiment_English,3.2.4,Win32,60,,,,,,,,,,,,,,,,,,,,,1,0,340,23,1,339,ratio11_3_6_9.png,,,,,,,,,,,,
,,,,,,,,,,,,Some,All,Many,None,Most,Few,Less than half,Half,More than half,0.072022178,-0.013573449,1,0,0,QQQ5,,,,,,,,English,2020-07-02_11h01.59.659,Experiment_English,3.2.4,Win32,60,,,,,,,,,,,,,,,,,,,,,1,0,340,204,1,339,ratio31_6_8_1.png,,,,,,,,,,,,
,,,,,,,,,,,,None,Most,Half,Many,More than half,All,Some,Few,Less than half,0.516343514,-0.003601116,1,0,0,QQQ2,,,,,,,,English,2020-07-02_11h01.59.659,Experiment_English,3.2.4,Win32,60,,,,,,,,,,,,,,,,,,,,,1,0,340,333,1,339,ratio91_18_20_6.png,,,,,,,,,,,,
,,,,,,,,,,,,Some,All,None,Less than half,More than half,Half,Many,Few,Most,0.081994477,0.01855955,1,0,0,QQQ5,,,,,,,,English,2020-07-02_11h01.59.659,Experiment_English,3.2.4,Win32,60,,,,,,,,,,,,,,,,,,,,,1,0,340,280,1,339,ratio43_4_7_2.png,,,,,,,,,,,,
,,,,,,,,,,,,Some,More than half,Less than half,All,Half,Few,None,Many,Most,-0.433240988,0.034072015,1,0,0,QQQ8,,,,,,,,English,2020-07-02_11h01.59.659,Experiment_English,3.2.4,Win32,60,,,,,,,,,,,,,,,,,,,,,1,0,340,267,1,339,ratio41_8_10_4.png,,,,,,,,,,,,
,,,,,,,,,,,,Some,Most,Half,Many,More than half,All,None,Less than half,Few,0.516343514,-0.266204998,1,0,0,QQQ3,,,,,,,,English,2020-07-02_11h01.59.659,Experiment_English,3.2.4,Win32,60,,,,,,,,,,,,,,,,,,,,,1,0,340,27,1,339,ratio11_5_10_7.png,,,,,,,,,,,,
,,,,,,,,,,,,Most,Less than half,All,Some,Few,None,Half,Many,More than half,0.396675922,0.2534626,1,0,0,QQQ1,,,,,,,,English,2020-07-02_11h01.59.659,Experiment_English,3.2.4,Win32,60,,,,,,,,,,,,,,,,,,,,,1,0,340,203,1,339,ratio31_3_4_9.png,,,,,,,,,,,,
,,,,,,,,,,,,Few,Less than half,All,More than half,Many,Half,Some,None,Most,0.424376753,-0.062326878,1,0,0,QQQ2,,,,,,,,English,2020-07-02_11h01.59.659,Experiment_English,3.2.4,Win32,60,,,,,,,,,,,,,,,,,,,,,1,0,340,39,1,339,ratio11_10_20_6.png,,,,,,,,,,,,
,,,,,,,,,,,,More than half,Few,Half,Many,None,Less than half,Some,Most,All,-0.418836555,-0.05900288,1,0,0,QQQ8,,,,,,,,English,2020-07-02_11h01.59.659,Experiment_English,3.2.4,Win32,60,,,,,,,,,,,,,,,,,,,,,1,0,340,329,1,339,ratio91_9_10_20.png,,,,,,,,,,,,
,,,,,,,,,,,,Less than half,Most,Some,All,Many,Half,None,Few,More than half,0.402216088,0.272299149,1,0,0,QQQ1,,,,,,,,English,2020-07-02_11h01.59.659,Experiment_English,3.2.4,Win32,60,,,,,,,,,,,,,,,,,,,,,1,0,340,249,1,339,ratio34_3_7_20.png,,,,,,,,,,,,
,,,,,,,,,,,,All,Many,None,Less than half,Most,Few,Some,Half,More than half,0.029916981,-0.246260399,1,0,0,QQQ6,,,,,,,,English,2020-07-02_11h01.59.659,Experiment_English,3.2.4,Win32,60,,,,,,,,,,,,,,,,,,,,,1,0,340,113,1,339,ratio14_3_15_8.png,,,,,,,,,,,,
,,,,,,,,,,,,Most,Few,Many,More than half,None,Half,Less than half,Some,All,-0.40332409,0.273407199,1,0,0,QQQ7,,,,,,,,English,2020-07-02_11h01.59.659,Experiment_English,3.2.4,Win32,60,,,,,,,,,,,,,,,,,,,,,1,0,340,4,1,339,ratio12_2_6_5.png,,,,,,,,,,,,
,,,,,,,,,,,,Many,Less than half,More than half,Half,Most,All,None,Some,Few,-0.007756217,0.316620479,1,0,0,QQQ4,,,,,,,,English,2020-07-02_11h01.59.659,Experiment_English,3.2.4,Win32,60,,,,,,,,,,,,,,,,,,,,,1,0,340,239,1,339,ratio32_12_20_10.png,,,,,,,,,,,,
,,,,,,,,,,,,All,More than half,Some,Few,Less than half,Half,Most,None,Many,0.039889213,-0.296121896,1,0,0,QQQ6,,,,,,,,English,2020-07-02_11h01.59.659,Experiment_English,3.2.4,Win32,60,,,,,,,,,,,,,,,,,,,,,1,0,340,36,1,339,ratio11_9_18_1.png,,,,,,,,,,,,
,,,,,,,,,,,,Most,More than half,Few,Half,Many,Some,Less than half,All,None,0.445429385,0.017451516,1,0,0,QQQ2,,,,,,,,English,2020-07-02_11h01.59.659,Experiment_English,3.2.4,Win32,60,,,,,,,,,,,,,,,,,,,,,1,0,340,258,1,339,ratio34_6_14_14.png,,,,,,,,,,,,
,,,,,,,,,,,,Some,All,More than half,Less than half,Many,Most,None,Few,Half,0.449861518,-0.231855967,1,0,0,QQQ3,,,,,,,,English,2020-07-02_11h01.59.659,Experiment_English,3.2.4,Win32,60,,,,,,,,,,,,,,,,,,,,,1,0,340,297,1,339,ratio43_8_14_13.png,,,,,,,,,,,,
,,,,,,,,,,,,Half,More than half,Less than half,Few,Most,All,None,Many,Some,0.480886585,0.2567867,1,0,0,QQQ1,,,,,,,,English,2020-07-02_11h01.59.659,Experiment_English,3.2.4,Win32,60,,,,,,,,,,,,,,,,,,,,,1,0,340,254,1,339,ratio34_6_14_9.png,,,,,,,,,,,,
,,,,,,,,,,,,Few,Half,Less than half,More than half,None,All,Most,Many,Some,-0.084210512,-0.064543046,1,0,0,QQQ5,,,,,,,,English,2020-07-02_11h01.59.659,Experiment_English,3.2.4,Win32,60,,,,,,,,,,,,,,,,,,,,,1,0,340,70,1,339,ratio0Y_0_12_5.png,,,,,,,,,,,,
,,,,,,,,,,,,Some,All,Half,Most,Less than half,Many,None,More than half,Few,0.011080348,-0.020221614,1,0,0,QQQ5,,,,,,,,English,2020-07-02_11h01.59.659,Experiment_English,3.2.4,Win32,60,,,,,,,,,,,,,,,,,,,,,1,0,340,117,1,339,ratio14_4_20_6.png,,,,,,,,,,,,
,,,,,,,,,,,,None,Most,Half,All,Less than half,Some,More than half,Few,Many,-0.458725753,0.028531849,1,0,0,QQQ8,,,,,,,,English,2020-07-02_11h01.59.659,Experiment_English,3.2.4,Win32,60,,,,,,,,,,,,,,,,,,,,,1,0,340,107,1,339,ratio14_2_10_5.png,,,,,,,,,,,,
,,,,,,,,,,,,Less than half,Half,None,Few,All,Some,Most,More than half,Many,0.402216088,-0.280609498,1,0,0,QQQ3,,,,,,,,English,2020-07-02_11h01.59.659,Experiment_English,3.2.4,Win32,60,,,,,,,,,,,,,,,,,,,,,1,0,340,67,1,339,ratio0Y_0_10_10.png,,,,,,,,,,,,
,,,,,,,,,,,,Half,Some,Most,Few,All,Many,More than half,Less than half,None,-0.048753447,0.276731282,1,0,0,QQQ4,,,,,,,,English,2020-07-02_11h01.59.659,Experiment_English,3.2.4,Win32,60,,,,,,,,,,,,,,,,,,,,,1,0,340,153,1,339,ratio19_2_20_8.png,,,,,,,,,,,,
,,,,,,,,,,,,More than half,Half,Less than half,Some,Few,Most,Many,None,All,0.044321346,-0.047922446,1,0,0,QQQ5,,,,,,,,English,2020-07-02_11h01.59.659,Experiment_English,3.2.4,Win32,60,,,,,,,,,,,,,,,,,,,,,1,0,340,197,1,339,ratio23_8_20_6.png,,,,,,,,,,,,
,,,,,,,,,,,,Half,All,Most,None,More than half,Few,Many,Less than half,Some,0.00221615,-0.33157896,1,0,0,QQQ6,,,,,,,,English,2020-07-02_11h01.59.659,Experiment_English,3.2.4,Win32,60,,,,,,,,,,,,,,,,,,,,,1,0,340,83,1,339,ratio13_1_4_10.png,,,,,,,,,,,,
,,,,,,,,,,,,All,Most,Some,Half,Few,Less than half,Many,More than half,None,-0.456509686,-0.316066494,1,0,0,QQQ9,,,,,,,,English,2020-07-02_11h01.59.659,Experiment_English,3.2.4,Win32,60,,,,,,,,,,,,,,,,,,,,,1,0,340,74,1,339,ratio0Y_0_15_10.png,,,,,,,,,,,,
,,,,,,,,,,,,Half,Some,All,Few,None,Many,More than half,Most,Less than half,-0.463157886,0.271191115,1,0,0,QQQ7,,,,,,,,English,2020-07-02_11h01.59.659,Experiment_English,3.2.4,Win32,60,,,,,,,,,,,,,,,,,,,,,1,0,340,30,1,339,ratio11_6_12_6.png,,,,,,,,,,,,
,,,,,,,,,,,,All,None,Most,Many,Few,Half,Some,Less than half,More than half,-0.453185586,0.004155117,1,0,0,QQQ8,,,,,,,,English,2020-07-02_11h01.59.659,Experiment_English,3.2.4,Win32,60,,,,,,,,,,,,,,,,,,,,,1,0,340,9,1,339,ratio12_3_9_5.png,,,,,,,,,,,,
,,,,,,,,,,,,More than half,All,Half,Few,None,Most,Less than half,Some,Many,0.417728554,0.314404429,1,0,0,QQQ1,,,,,,,,English,2020-07-02_11h01.59.659,Experiment_English,3.2.4,Win32,60,,,,,,,,,,,,,,,,,,,,,1,0,340,293,1,339,ratio43_8_14_7.png,0.344598359,-0.408033322,1,0,0,continue_button_pause,1,0,1,0,1,0
,,,,,,,,,,,,,,,,,,,,,,,,,,,,,,,,,,English,2020-07-02_11h01.59.659,Experiment_English,3.2.4,Win32,60,,,,,,,,,,,,,,,,,,,,,1,0,340,293,1,339,ratio43_8_14_7.png,,,,,,,,,,,,
,,,,,,,,,,,,All,None,Most,Less than half,Some,Half,More than half,Many,Few,-0.459833786,0.30110803,1,0,0,QQQ7,,,,,,,,English,2020-07-02_11h01.59.659,Experiment_English,3.2.4,Win32,60,,,,,,,,,,,,,,,,,,,,,1,0,340,211,1,339,ratio31_9_12_10.png,,,,,,,,,,,,
,,,,,,,,,,,,All,Few,More than half,Many,Most,Some,None,Less than half,Half,-0.028808849,0.321052629,1,0,0,QQQ4,,,,,,,,English,2020-07-02_11h01.59.659,Experiment_English,3.2.4,Win32,60,,,,,,,,,,,,,,,,,,,,,1,0,340,292,1,339,ratio43_8_14_6.png,,,,,,,,,,,,
,,,,,,,,,,,,More than half,Most,Many,Half,Less than half,Few,None,All,Some,-0.026592782,0.009695284,1,0,0,QQQ5,,,,,,,,English,2020-07-02_11h01.59.659,Experiment_English,3.2.4,Win32,60,,,,,,,,,,,,,,,,,,,,,1,0,340,181,1,339,ratio23_2_5_6.png,,,,,,,,,,,,
,,,,,,,,,,,,Less than half,More than half,Half,All,None,Most,Some,Many,Few,0.520775647,0.280055348,1,0,0,QQQ1,,,,,,,,English,2020-07-02_11h01.59.659,Experiment_English,3.2.4,Win32,60,,,,,,,,,,,,,,,,,,,,,1,0,340,93,1,339,ratio13_4_16_7.png,,,,,,,,,,,,
,,,,,,,,,,,,Some,Half,All,Most,More than half,None,Many,Few,Less than half,-0.40664819,-0.003601116,1,0,0,QQQ8,,,,,,,,English,2020-07-02_11h01.59.659,Experiment_English,3.2.4,Win32,60,,,,,,,,,,,,,,,,,,,,,1,0,340,155,1,339,ratio19_2_20_13.png,,,,,,,,,,,,
,,,,,,,,,,,,More than half,None,Many,Most,Few,Some,All,Less than half,Half,-0.484210518,0.2567867,1,0,0,QQQ7,,,,,,,,English,2020-07-02_11h01.59.659,Experiment_English,3.2.4,Win32,60,,,,,,,,,,,,,,,,,,,,,1,0,340,42,1,339,ratioX0_5_5_5.png,,,,,,,,,,,,
,,,,,,,,,,,,None,Few,Most,Less than half,More than half,Many,Some,All,Half,0.469806252,0.315512463,1,0,0,QQQ1,,,,,,,,English,2020-07-02_11h01.59.659,Experiment_English,3.2.4,Win32,60,,,,,,,,,,,,,,,,,,,,,1,0,340,124,1,339,ratio15_1_6_16.png,,,,,,,,,,,,
,,,,,,,,,,,,More than half,Few,Many,None,Most,All,Less than half,Some,Half,-0.395567857,0.000831017,1,0,0,QQQ8,,,,,,,,English,2020-07-02_11h01.59.659,Experiment_English,3.2.4,Win32,60,,,,,,,,,,,,,,,,,,,,,1,0,340,38,1,339,ratio11_10_20_5.png,,,,,,,,,,,,
,,,,,,,,,,,,Most,More than half,All,Few,None,Half,Less than half,Some,Many,-0.01883655,0.239058151,1,0,0,QQQ4,,,,,,,,English,2020-07-02_11h01.59.659,Experiment_English,3.2.4,Win32,60,,,,,,,,,,,,,,,,,,,,,1,0,340,82,1,339,ratio13_1_4_7.png,,,,,,,,,,,,
,,,,,,,,,,,,More than half,Many,Most,All,Few,None,Some,Half,Less than half,-0.375623258,-0.307202228,1,0,0,QQQ9,,,,,,,,English,2020-07-02_11h01.59.659,Experiment_English,3.2.4,Win32,60,,,,,,,,,,,,,,,,,,,,,1,0,340,257,1,339,ratio34_6_14_12.png,,,,,,,,,,,,
,,,,,,,,,,,,All,Half,Less than half,Many,Some,More than half,None,Most,Few,0.460941851,-0.28393353,1,0,0,QQQ3,,,,,,,,English,2020-07-02_11h01.59.659,Experiment_English,3.2.4,Win32,60,,,,,,,,,,,,,,,,,,,,,1,0,340,24,1,339,ratio11_4_8_3.png,,,,,,,,,,,,
,,,,,,,,,,,,Many,None,All,Half,Less than half,More than half,Few,Some,Most,-0.033240982,-0.055678679,1,0,0,QQQ5,,,,,,,,English,2020-07-02_11h01.59.659,Experiment_English,3.2.4,Win32,60,,,,,,,,,,,,,,,,,,,,,1,0,340,180,1,339,ratio23_2_5_4.png,,,,,,,,,,,,
,,,,,,,,,,,,All,Some,Few,More than half,None,Half,Most,Less than half,Many,0.435457086,-0.281717463,1,0,0,QQQ3,,,,,,,,English,2020-07-02_11h01.59.659,Experiment_English,3.2.4,Win32,60,,,,,,,,,,,,,,,,,,,,,1,0,340,127,1,339,ratio15_2_12_2.png,,,,,,,,,,,,
,,,,,,,,,,,,Few,Many,More than half,All,Half,Less than half,None,Most,Some,-0.006648184,-0.001385049,1,0,0,QQQ5,,,,,,,,English,2020-07-02_11h01.59.659,Experiment_English,3.2.4,Win32,60,,,,,,,,,,,,,,,,,,,,,1,0,340,246,1,339,ratio34_3_7_11.png,,,,,,,,,,,,
,,,,,,,,,,,,Many,None,Half,Less than half,Most,Some,All,More than half,Few,-0.509695283,-0.362603891,1,0,0,QQQ9,,,,,,,,English,2020-07-02_11h01.59.659,Experiment_English,3.2.4,Win32,60,,,,,,,,,,,,,,,,,,,,,1,0,340,104,1,339,ratio14_1_5_10.png,,,,,,,,,,,,
,,,,,,,,,,,,All,Many,None,Some,More than half,Most,Less than half,Half,Few,-0.023268683,-0.040166213,1,0,0,QQQ5,,,,,,,,English,2020-07-02_11h01.59.659,Experiment_English,3.2.4,Win32,60,,,,,,,,,,,,,,,,,,,,,1,0,340,233,1,339,ratio32_9_15_9.png,,,,,,,,,,,,
,,,,,,,,,,,,More than half,All,Half,Few,Most,Many,Less than half,None,Some,-0.382271458,0.004155117,1,0,0,QQQ8,,,,,,,,English,2020-07-02_11h01.59.659,Experiment_English,3.2.4,Win32,60,,,,,,,,,,,,,,,,,,,,,1,0,340,73,1,339,ratio0Y_0_14_7.png,,,,,,,,,,,,
,,,,,,,,,,,,All,More than half,Most,Less than half,Many,Half,Few,Some,None,-0.003324016,-0.270637131,1,0,0,QQQ6,,,,,,,,English,2020-07-02_11h01.59.659,Experiment_English,3.2.4,Win32,60,,,,,,,,,,,,,,,,,,,,,1,0,340,21,1,339,ratio11_2_4_10.png,,,,,,,,,,,,
,,,,,,,,,,,,More than half,All,Less than half,Many,Some,Few,None,Half,Most,-0.518559549,-0.044598346,1,0,0,QQQ8,,,,,,,,English,2020-07-02_11h01.59.659,Experiment_English,3.2.4,Win32,60,,,,,,,,,,,,,,,,,,,,,1,0,340,251,1,339,ratio34_6_14_2.png,,,,,,,,,,,,
,,,,,,,,,,,,Some,None,More than half,Less than half,Half,Many,All,Few,Most,0.443213319,-0.237396133,1,0,0,QQQ3,,,,,,,,English,2020-07-02_11h01.59.659,Experiment_English,3.2.4,Win32,60,,,,,,,,,,,,,,,,,,,,,1,0,340,222,1,339,ratio32_3_5_4.png,,,,,,,,,,,,
,,,,,,,,,,,,Less than half,Few,None,Most,Half,More than half,All,Many,Some,0.405540188,0.327700812,1,0,0,QQQ1,,,,,,,,English,2020-07-02_11h01.59.659,Experiment_English,3.2.4,Win32,60,,,,,,,,,,,,,,,,,,,,,1,0,340,7,1,339,ratio12_3_9_2.png,,,,,,,,,,,,
,,,,,,,,,,,,All,More than half,Less than half,None,Many,Some,Half,Most,Few,0.448753485,-0.279501397,1,0,0,QQQ3,,,,,,,,English,2020-07-02_11h01.59.659,Experiment_English,3.2.4,Win32,60,,,,,,,,,,,,,,,,,,,,,1,0,340,0,1,339,ratio12_1_3_3.png,,,,,,,,,,,,
,,,,,,,,,,,,More than half,Half,Many,None,Most,Few,All,Less than half,Some,-0.01883655,-0.326038793,1,0,0,QQQ6,,,,,,,,English,2020-07-02_11h01.59.659,Experiment_English,3.2.4,Win32,60,,,,,,,,,,,,,,,,,,,,,1,0,340,95,1,339,ratio13_4_16_10.png,,,,,,,,,,,,
,,,,,,,,,,,,All,None,Half,Few,Most,Less than half,More than half,Some,Many,0.043213313,0.01855955,1,0,0,QQQ5,,,,,,,,English,2020-07-02_11h01.59.659,Experiment_English,3.2.4,Win32,60,,,,,,,,,,,,,,,,,,,,,1,0,340,215,1,339,ratio31_12_16_8.png,,,,,,,,,,,,
,,,,,,,,,,,,Some,More than half,Many,Most,None,Few,Half,All,Less than half,-0.017728516,-0.314958461,1,0,0,QQQ6,,,,,,,,English,2020-07-02_11h01.59.659,Experiment_English,3.2.4,Win32,60,,,,,,,,,,,,,,,,,,,,,1,0,340,86,1,339,ratio13_2_8_6.png,,,,,,,,,,,,
,,,,,,,,,,,,Many,Half,More than half,None,Most,All,Few,Some,Less than half,-0.425484755,0.24681435,1,0,0,QQQ7,,,,,,,,English,2020-07-02_11h01.59.659,Experiment_English,3.2.4,Win32,60,,,,,,,,,,,,,,,,,,,,,1,0,340,144,1,339,ratio19_1_10_11.png,,,,,,,,,,,,
,,,,,,,,,,,,All,Less than half,Most,More than half,None,Half,Many,Some,Few,0.007756316,-0.303878128,1,0,0,QQQ6,,,,,,,,English,2020-07-02_11h01.59.659,Experiment_English,3.2.4,Win32,60,,,,,,,,,,,,,,,,,,,,,1,0,340,286,1,339,ratio43_4_7_15.png,,,,,,,,,,,,
,,,,,,,,,,,,More than half,Some,Less than half,Many,All,Few,None,Most,Half,-0.485318551,-0.019113615,1,0,0,QQQ8,,,,,,,,English,2020-07-02_11h01.59.659,Experiment_English,3.2.4,Win32,60,,,,,,,,,,,,,,,,,,,,,1,0,340,272,1,339,ratio41_12_15_7.png,,,,,,,,,,,,
,,,,,,,,,,,,Many,Few,Most,All,More than half,Some,Less than half,None,Half,0.406648221,-0.238504166,1,0,0,QQQ3,,,,,,,,English,2020-07-02_11h01.59.659,Experiment_English,3.2.4,Win32,60,,,,,,,,,,,,,,,,,,,,,1,0,340,275,1,339,ratio41_16_20_2.png,,,,,,,,,,,,
,,,,,,,,,,,,None,Less than half,Most,All,Half,Many,More than half,Some,Few,0.438781186,-0.303878128,1,0,0,QQQ3,,,,,,,,English,2020-07-02_11h01.59.659,Experiment_English,3.2.4,Win32,60,,,,,,,,,,,,,,,,,,,,,1,0,340,309,1,339,ratio51_10_12_10.png,,,,,,,,,,,,
,,,,,,,,,,,,Half,Few,All,Many,None,Some,Less than half,More than half,Most,-0.550692513,-0.301662062,1,0,0,QQQ9,,,,,,,,English,2020-07-02_11h01.59.659,Experiment_English,3.2.4,Win32,60,,,,,,,,,,,,,,,,,,,,,1,0,340,260,1,339,ratio41_4_5_2.png,,,,,,,,,,,,
,,,,,,,,,,,,Some,Half,Less than half,More than half,Few,None,Most,Many,All,-0.045429348,-0.066759011,1,0,0,QQQ5,,,,,,,,English,2020-07-02_11h01.59.659,Experiment_English,3.2.4,Win32,60,,,,,,,,,,,,,,,,,,,,,1,0,340,154,1,339,ratio19_2_20_11.png,,,,,,,,,,,,
,,,,,,,,,,,,More than half,None,Some,Most,All,Less than half,Half,Many,Few,-0.469806085,-0.289473696,1,0,0,QQQ9,,,,,,,,English,2020-07-02_11h01.59.659,Experiment_English,3.2.4,Win32,60,,,,,,,,,,,,,,,,,,,,,1,0,340,129,1,339,ratio15_2_12_9.png,,,,,,,,,,,,
,,,,,,,,,,,,Less than half,More than half,None,All,Few,Most,Some,Half,Many,0.412188388,-0.341551327,1,0,0,QQQ3,,,,,,,,English,2020-07-02_11h01.59.659,Experiment_English,3.2.4,Win32,60,,,,,,,,,,,,,,,,,,,,,1,0,340,65,1,339,ratio0Y_0_8_4.png,0.365650991,-0.388088656,1,0,0,continue_button_pause,1,0,1,0,1,0
,,,,,,,,,,,,,,,,,,,,,,,,,,,,,,,,,,English,2020-07-02_11h01.59.659,Experiment_English,3.2.4,Win32,60,,,,,,,,,,,,,,,,,,,,,1,0,340,65,1,339,ratio0Y_0_8_4.png,,,,,,,,,,,,
,,,,,,,,,,,,Half,All,Most,Less than half,None,Many,More than half,Few,Some,0.515235481,0.260110783,1,0,0,QQQ1,,,,,,,,English,2020-07-02_11h01.59.659,Experiment_English,3.2.4,Win32,60,,,,,,,,,,,,,,,,,,,,,1,0,340,13,1,339,ratio12_5_15_3.png,,,,,,,,,,,,
,,,,,,,,,,,,Less than half,Many,Half,More than half,Some,Most,All,None,Few,0.00221615,-0.288365663,1,0,0,QQQ6,,,,,,,,English,2020-07-02_11h01.59.659,Experiment_English,3.2.4,Win32,60,,,,,,,,,,,,,,,,,,,,,1,0,340,217,1,339,ratio31_15_20_5.png,,,,,,,,,,,,
,,,,,,,,,,,,Half,None,Most,More than half,Some,All,Many,Less than half,Few,0.479778416,-0.301662062,1,0,0,QQQ3,,,,,,,,English,2020-07-02_11h01.59.659,Experiment_English,3.2.4,Win32,60,,,,,,,,,,,,,,,,,,,,,1,0,340,319,1,339,ratio51_15_18_20.png,,,,,,,,,,,,
,,,,,,,,,,,,All,Most,Less than half,More than half,Half,Few,Many,Some,None,-0.432132955,0.254570617,1,0,0,QQQ7,,,,,,,,English,2020-07-02_11h01.59.659,Experiment_English,3.2.4,Win32,60,,,,,,,,,,,,,,,,,,,,,1,0,340,225,1,339,ratio32_6_10_4.png,,,,,,,,,,,,
,,,,,,,,,,,,More than half,None,All,Many,Some,Less than half,Few,Half,Most,0.006648215,0.321052629,1,0,0,QQQ4,,,,,,,,English,2020-07-02_11h01.59.659,Experiment_English,3.2.4,Win32,60,,,,,,,,,,,,,,,,,,,,,1,0,340,313,1,339,ratio51_15_18_2.png,,,,,,,,,,,,
,,,,,,,,,,,,Most,Half,All,More than half,None,Many,Some,Few,Less than half,-0.527423815,-0.055678679,1,0,0,QQQ8,,,,,,,,English,2020-07-02_11h01.59.659,Experiment_English,3.2.4,Win32,60,,,,,,,,,,,,,,,,,,,,,1,0,340,147,1,339,ratio19_1_10_18.png,,,,,,,,,,,,
,,,,,,,,,,,,Less than half,Half,Most,All,Many,Some,More than half,None,Few,-0.047645347,0.244598317,1,0,0,QQQ4,,,,,,,,English,2020-07-02_11h01.59.659,Experiment_English,3.2.4,Win32,60,,,,,,,,,,,,,,,,,,,,,1,0,340,48,1,339,ratioX0_10_10_1.png,,,,,,,,,,,,
,,,,,,,,,,,,None,Half,Some,Few,Most,All,Less than half,Many,More than half,0.048753479,-0.020221614,1,0,0,QQQ5,,,,,,,,English,2020-07-02_11h01.59.659,Experiment_English,3.2.4,Win32,60,,,,,,,,,,,,,,,,,,,,,1,0,340,320,1,339,ratio91_9_10_1.png,,,,,,,,,,,,
,,,,,,,,,,,,Many,Most,Some,More than half,Half,None,Few,All,Less than half,-0.01218835,-0.030193948,1,0,0,QQQ5,,,,,,,,English,2020-07-02_11h01.59.659,Experiment_English,3.2.4,Win32,60,,,,,,,,,,,,,,,,,,,,,1,0,340,247,1,339,ratio34_3_7_12.png,,,,,,,,,,,,
,,,,,,,,,,,,None,Half,More than half,Few,Most,Less than half,Many,Some,All,-0.033240982,-0.306094195,1,0,0,QQQ6,,,,,,,,English,2020-07-02_11h01.59.659,Experiment_English,3.2.4,Win32,60,,,,,,,,,,,,,,,,,,,,,1,0,340,8,1,339,ratio12_3_9_4.png,,,,,,,,,,,,
,,,,,,,,,,,,None,Less than half,Most,More than half,Half,Few,All,Some,Many,-0.449861487,-0.350415525,1,0,0,QQQ9,,,,,,,,English,2020-07-02_11h01.59.659,Experiment_English,3.2.4,Win32,60,,,,,,,,,,,,,,,,,,,,,1,0,340,177,1,339,ratio21_12_18_1.png,,,,,,,,,,,,
,,,,,,,,,,,,All,Many,Half,Some,Most,Less than half,None,More than half,Few,0.110803342,-0.326038793,1,0,0,QQQ6,,,,,,,,English,2020-07-02_11h01.59.659,Experiment_English,3.2.4,Win32,60,,,,,,,,,,,,,,,,,,,,,1,0,340,240,1,339,ratio34_3_7_4.png,,,,,,,,,,,,
,,,,,,,,,,,,All,None,Few,Most,Less than half,Half,Many,Some,More than half,0.077562344,-0.03240998,1,0,0,QQQ5,,,,,,,,English,2020-07-02_11h01.59.659,Experiment_English,3.2.4,Win32,60,,,,,,,,,,,,,,,,,,,,,1,0,340,253,1,339,ratio34_6_14_5.png,,,,,,,,,,,,
,,,,,,,,,,,,All,Most,Many,Half,Few,Some,Less than half,More than half,None,0.077562344,-0.03240998,1,0,0,QQQ5,,,,,,,,English,2020-07-02_11h01.59.659,Experiment_English,3.2.4,Win32,60,,,,,,,,,,,,,,,,,,,,,1,0,340,111,1,339,ratio14_3_15_3.png,,,,,,,,,,,,
,,,,,,,,,,,,Less than half,All,Half,Most,Few,Many,Some,More than half,None,0.035457148,0.315512463,1,0,0,QQQ4,,,,,,,,English,2020-07-02_11h01.59.659,Experiment_English,3.2.4,Win32,60,,,,,,,,,,,,,,,,,,,,,1,0,340,300,1,339,ratio51_5_6_1.png,,,,,,,,,,,,
,,,,,,,,,,,,Many,More than half,Few,Less than half,Some,Half,Most,None,All,0.427700853,-0.259556798,1,0,0,QQQ3,,,,,,,,English,2020-07-02_11h01.59.659,Experiment_English,3.2.4,Win32,60,,,,,,,,,,,,,,,,,,,,,1,0,340,80,1,339,ratio13_1_4_3.png,,,,,,,,,,,,
,,,,,,,,,,,,Most,Few,None,Less than half,Some,All,Half,Many,More than half,0.434349053,-0.001385049,1,0,0,QQQ2,,,,,,,,English,2020-07-02_11h01.59.659,Experiment_English,3.2.4,Win32,60,,,,,,,,,,,,,,,,,,,,,1,0,340,102,1,339,ratio14_1_5_8.png,,,,,,,,,,,,
,,,,,,,,,,,,Half,Less than half,Many,Some,None,More than half,Most,All,Few,-0.524099715,0.318836562,1,0,0,QQQ7,,,,,,,,English,2020-07-02_11h01.59.659,Experiment_English,3.2.4,Win32,60,,,,,,,,,,,,,,,,,,,,,1,0,340,219,1,339,ratio31_15_20_10.png,,,,,,,,,,,,
,,,,,,,,,,,,Half,Less than half,Many,Some,Few,Most,More than half,All,None,0.017728548,-0.242936299,1,0,0,QQQ6,,,,,,,,English,2020-07-02_11h01.59.659,Experiment_English,3.2.4,Win32,60,,,,,,,,,,,,,,,,,,,,,1,0,340,263,1,339,ratio41_4_5_5.png,,,,,,,,,,,,
,,,,,,,,,,,,Half,More than half,All,Less than half,Few,None,Some,Most,Many,0.03878118,0.007479217,1,0,0,QQQ5,,,,,,,,English,2020-07-02_11h01.59.659,Experiment_English,3.2.4,Win32,60,,,,,,,,,,,,,,,,,,,,,1,0,340,15,1,339,ratio12_5_15_5.png,,,,,,,,,,,,
,,,,,,,,,,,,None,Most,Many,Some,Less than half,More than half,All,Few,Half,0.464266086,0.327700812,1,0,0,QQQ1,,,,,,,,English,2020-07-02_11h01.59.659,Experiment_English,3.2.4,Win32,60,,,,,,,,,,,,,,,,,,,,,1,0,340,72,1,339,ratio0Y_0_13_4.png,,,,,,,,,,,,
,,,,,,,,,,,,All,Many,Half,More than half,Less than half,Few,None,Most,Some,0.018836649,0.297783931,1,0,0,QQQ4,,,,,,,,English,2020-07-02_11h01.59.659,Experiment_English,3.2.4,Win32,60,,,,,,,,,,,,,,,,,,,,,1,0,340,161,1,339,ratio21_2_3_8.png,,,,,,,,,,,,
,,,,,,,,,,,,Most,More than half,All,Few,None,Less than half,Many,Half,Some,-0.516343482,0.244598317,1,0,0,QQQ7,,,,,,,,English,2020-07-02_11h01.59.659,Experiment_English,3.2.4,Win32,60,,,,,,,,,,,,,,,,,,,,,1,0,340,277,1,339,ratio41_16_20_8.png,,,,,,,,,,,,
,,,,,,,,,,,,Many,Most,Few,Less than half,None,Some,All,Half,More than half,-0.075346178,0.241274184,1,0,0,QQQ4,,,,,,,,English,2020-07-02_11h01.59.659,Experiment_English,3.2.4,Win32,60,,,,,,,,,,,,,,,,,,,,,1,0,340,185,1,339,ratio23_4_10_1.png,,,,,,,,,,,,
,,,,,,,,,,,,More than half,Few,Many,Less than half,All,None,Most,Some,Half,0.42326872,0.29113568,1,0,0,QQQ1,,,,,,,,English,2020-07-02_11h01.59.659,Experiment_English,3.2.4,Win32,60,,,,,,,,,,,,,,,,,,,,,1,0,340,224,1,339,ratio32_3_5_10.png,,,,,,,,,,,,
,,,,,,,,,,,,All,Some,None,More than half,Most,Few,Half,Less than half,Many,-0.465373952,0.040720215,1,0,0,QQQ8,,,,,,,,English,2020-07-02_11h01.59.659,Experiment_English,3.2.4,Win32,60,,,,,,,,,,,,,,,,,,,,,1,0,340,186,1,339,ratio23_4_10_2.png,,,,,,,,,,,,
,,,,,,,,,,,,Half,Some,None,More than half,Many,All,Most,Less than half,Few,-0.383379491,0.241274184,1,0,0,QQQ7,,,,,,,,English,2020-07-02_11h01.59.659,Experiment_English,3.2.4,Win32,60,,,,,,,,,,,,,,,,,,,,,1,0,340,170,1,339,ratio21_6_9_8.png,,,,,,,,,,,,
,,,,,,,,,,,,None,Few,Many,More than half,Most,Half,All,Less than half,Some,0.483102516,0.045152348,1,0,0,QQQ2,,,,,,,,English,2020-07-02_11h01.59.659,Experiment_English,3.2.4,Win32,60,,,,,,,,,,,,,,,,,,,,,1,0,340,137,1,339,ratio15_3_18_16.png,,,,,,,,,,,,
,,,,,,,,,,,,None,Some,Half,Many,Less than half,More than half,Most,Few,All,0.054293645,0.292243764,1,0,0,QQQ4,,,,,,,,English,2020-07-02_11h01.59.659,Experiment_English,3.2.4,Win32,60,,,,,,,,,,,,,,,,,,,,,1,0,340,308,1,339,ratio51_10_12_9.png,,,,,,,,,,,,
,,,,,,,,,,,,More than half,None,Many,Less than half,Some,Most,Half,All,Few,-0.464265919,0.272299149,1,0,0,QQQ7,,,,,,,,English,2020-07-02_11h01.59.659,Experiment_English,3.2.4,Win32,60,,,,,,,,,,,,,,,,,,,,,1,0,340,29,1,339,ratio11_6_12_1.png,,,,,,,,,,,,
,,,,,,,,,,,,More than half,All,Most,Half,Many,Less than half,Few,Some,None,-0.463157886,0.270083099,1,0,0,QQQ7,,,,,,,,English,2020-07-02_11h01.59.659,Experiment_English,3.2.4,Win32,60,,,,,,,,,,,,,,,,,,,,,1,0,340,145,1,339,ratio19_1_10_15.png,,,,,,,,,,,,
,,,,,,,,,,,,Many,None,Few,Most,All,Half,Less than half,More than half,Some,0.04653748,0.318836562,1,0,0,QQQ4,,,,,,,,English,2020-07-02_11h01.59.659,Experiment_English,3.2.4,Win32,60,,,,,,,,,,,,,,,,,,,,,1,0,340,336,1,339,ratio91_18_20_12.png,,,,,,,,,,,,
,,,,,,,,,,,,Few,Some,Most,None,Less than half,All,Half,Many,More than half,0.403324257,0.278947365,1,0,0,QQQ1,,,,,,,,English,2020-07-02_11h01.59.659,Experiment_English,3.2.4,Win32,60,,,,,,,,,,,,,,,,,,,,,1,0,340,148,1,339,ratio19_1_10_19.png,,,,,,,,,,,,
,,,,,,,,,,,,Half,All,Most,More than half,Less than half,Many,Few,Some,None,0.42991692,-0.272853197,1,0,0,QQQ3,,,,,,,,English,2020-07-02_11h01.59.659,Experiment_English,3.2.4,Win32,60,,,,,,,,,,,,,,,,,,,,,1,0,340,306,1,339,ratio51_5_6_18.png,0.413296421,-0.390304722,1,0,0,continue_button_pause,1,0,1,0,1,0
,,,,,,,,,,,,,,,,,,,,,,,,,,,,,,,,,,English,2020-07-02_11h01.59.659,Experiment_English,3.2.4,Win32,60,,,,,,,,,,,,,,,,,,,,,1,0,340,306,1,339,ratio51_5_6_18.png,,,,,,,,,,,,
,,,,,,,,,,,,Some,Few,All,Half,Less than half,None,Many,Most,More than half,0.066482011,0.277839315,1,0,0,QQQ4,,,,,,,,English,2020-07-02_11h01.59.659,Experiment_English,3.2.4,Win32,60,,,,,,,,,,,,,,,,,,,,,1,0,340,252,1,339,ratio34_6_14_3.png,,,,,,,,,,,,
,,,,,,,,,,,,Few,None,Less than half,More than half,Half,Most,All,Some,Many,0.54736858,-0.256232698,1,0,0,QQQ3,,,,,,,,English,2020-07-02_11h01.59.659,Experiment_English,3.2.4,Win32,60,,,,,,,,,,,,,,,,,,,,,1,0,340,17,1,339,ratio12_6_18_5.png,,,,,,,,,,,,
,,,,,,,,,,,,None,Many,Most,Half,Few,Some,Less than half,More than half,All,0.52853188,-0.08337951,1,0,0,QQQ2,,,,,,,,English,2020-07-02_11h01.59.659,Experiment_English,3.2.4,Win32,60,,,,,,,,,,,,,,,,,,,,,1,0,340,218,1,339,ratio31_15_20_7.png,,,,,,,,,,,,
,,,,,,,,,,,,Less than half,Some,None,Most,Few,Half,More than half,All,Many,-0.448753453,-0.364819957,1,0,0,QQQ9,,,,,,,,English,2020-07-02_11h01.59.659,Experiment_English,3.2.4,Win32,60,,,,,,,,,,,,,,,,,,,,,1,0,340,274,1,339,ratio41_12_15_9.png,,,,,,,,,,,,
,,,,,,,,,,,,More than half,Half,Most,Some,None,Less than half,Many,Few,All,-0.05650968,-0.310526328,1,0,0,QQQ6,,,,,,,,English,2020-07-02_11h01.59.659,Experiment_English,3.2.4,Win32,60,,,,,,,,,,,,,,,,,,,,,1,0,340,191,1,339,ratio23_6_15_7.png,,,,,,,,,,,,
,,,,,,,,,,,,Few,Some,All,More than half,Most,None,Many,Less than half,Half,0.463157917,0.237950118,1,0,0,QQQ1,,,,,,,,English,2020-07-02_11h01.59.659,Experiment_English,3.2.4,Win32,60,,,,,,,,,,,,,,,,,,,,,1,0,340,92,1,339,ratio13_4_16_3.png,,,,,,,,,,,,
,,,,,,,,,,,,Less than half,All,Most,Some,None,Many,More than half,Few,Half,-0.50526315,0.285595514,1,0,0,QQQ7,,,,,,,,English,2020-07-02_11h01.59.659,Experiment_English,3.2.4,Win32,60,,,,,,,,,,,,,,,,,,,,,1,0,340,290,1,339,ratio43_8_14_3.png,,,,,,,,,,,,
,,,,,,,,,,,,More than half,All,Less than half,Few,Many,None,Half,Most,Some,0.393351822,-0.268421064,1,0,0,QQQ3,,,,,,,,English,2020-07-02_11h01.59.659,Experiment_English,3.2.4,Win32,60,,,,,,,,,,,,,,,,,,,,,1,0,340,118,1,339,ratio14_4_20_8.png,,,,,,,,,,,,
,,,,,,,,,,,,None,Some,More than half,Few,Less than half,All,Most,Many,Half,0.495290882,-0.337119126,1,0,0,QQQ3,,,,,,,,English,2020-07-02_11h01.59.659,Experiment_English,3.2.4,Win32,60,,,,,,,,,,,,,,,,,,,,,1,0,340,220,1,339,ratio32_3_5_1.png,,,,,,,,,,,,
,,,,,,,,,,,,Some,Most,Half,Less than half,More than half,Few,All,Many,None,0.015512481,-0.333795026,1,0,0,QQQ6,,,,,,,,English,2020-07-02_11h01.59.659,Experiment_English,3.2.4,Win32,60,,,,,,,,,,,,,,,,,,,,,1,0,340,91,1,339,ratio13_3_12_10.png,,,,,,,,,,,,
,,,,,,,,,,,,More than half,Few,Most,Many,Less than half,Some,Half,All,None,-0.079778379,0.287811614,1,0,0,QQQ4,,,,,,,,English,2020-07-02_11h01.59.659,Experiment_English,3.2.4,Win32,60,,,,,,,,,,,,,,,,,,,,,1,0,340,270,1,339,ratio41_12_15_3.png,,,,,,,,,,,,
,,,,,,,,,,,,Half,Many,None,Less than half,Few,All,Some,Most,More than half,0.47423825,-0.023545714,1,0,0,QQQ2,,,,,,,,English,2020-07-02_11h01.59.659,Experiment_English,3.2.4,Win32,60,,,,,,,,,,,,,,,,,,,,,1,0,340,37,1,339,ratio11_9_18_8.png,,,,,,,,,,,,
,,,,,,,,,,,,Most,More than half,None,Some,Few,Half,All,Many,Less than half,0.070914144,0.000831017,1,0,0,QQQ5,,,,,,,,English,2020-07-02_11h01.59.659,Experiment_English,3.2.4,Win32,60,,,,,,,,,,,,,,,,,,,,,1,0,340,94,1,339,ratio13_4_16_8.png,,,,,,,,,,,,
,,,,,,,,,,,,Half,Many,Some,Less than half,All,More than half,None,Most,Few,-0.487534617,-0.343767326,1,0,0,QQQ9,,,,,,,,English,2020-07-02_11h01.59.659,Experiment_English,3.2.4,Win32,60,,,,,,,,,,,,,,,,,,,,,1,0,340,108,1,339,ratio14_2_10_6.png,,,,,,,,,,,,
,,,,,,,,,,,,Few,All,Less than half,Many,More than half,None,Half,Most,Some,-0.045429348,-0.085595577,1,0,0,QQQ5,,,,,,,,English,2020-07-02_11h01.59.659,Experiment_English,3.2.4,Win32,60,,,,,,,,,,,,,,,,,,,,,1,0,340,167,1,339,ratio21_6_9_2.png,,,,,,,,,,,,
,,,,,,,,,,,,Less than half,All,More than half,None,Most,Few,Many,Some,Half,0.493074815,0.333240978,1,0,0,QQQ1,,,,,,,,English,2020-07-02_11h01.59.659,Experiment_English,3.2.4,Win32,60,,,,,,,,,,,,,,,,,,,,,1,0,340,85,1,339,ratio13_2_8_5.png,,,,,,,,,,,,
,,,,,,,,,,,,Some,Less than half,Half,All,Many,More than half,Few,None,Most,-0.017728516,-0.280609498,1,0,0,QQQ6,,,,,,,,English,2020-07-02_11h01.59.659,Experiment_English,3.2.4,Win32,60,,,,,,,,,,,,,,,,,,,,,1,0,340,33,1,339,ratio11_7_14_8.png,,,,,,,,,,,,
,,,,,,,,,,,,None,Half,Few,All,Less than half,More than half,Most,Some,Many,-0.467590019,0.306648197,1,0,0,QQQ7,,,,,,,,English,2020-07-02_11h01.59.659,Experiment_English,3.2.4,Win32,60,,,,,,,,,,,,,,,,,,,,,1,0,340,323,1,339,ratio91_9_10_5.png,,,,,,,,,,,,
,,,,,,,,,,,,Most,More than half,Many,None,Less than half,Few,All,Some,Half,-0.053185513,-0.227423834,1,0,0,QQQ6,,,,,,,,English,2020-07-02_11h01.59.659,Experiment_English,3.2.4,Win32,60,,,,,,,,,,,,,,,,,,,,,1,0,340,130,1,339,ratio15_2_12_12.png,,,,,,,,,,,,
,,,,,,,,,,,,Some,All,Few,Less than half,More than half,None,Many,Most,Half,0.003324116,-0.04127428,1,0,0,QQQ5,,,,,,,,English,2020-07-02_11h01.59.659,Experiment_English,3.2.4,Win32,60,,,,,,,,,,,,,,,,,,,,,1,0,340,242,1,339,ratio34_3_7_6.png,,,,,,,,,,,,
,,,,,,,,,,,,None,Some,All,Many,Most,More than half,Half,Less than half,Few,-0.075346178,0.247922434,1,0,0,QQQ4,,,,,,,,English,2020-07-02_11h01.59.659,Experiment_English,3.2.4,Win32,60,,,,,,,,,,,,,,,,,,,,,1,0,340,178,1,339,ratio21_12_18_2.png,,,,,,,,,,,,
,,,,,,,,,,,,Less than half,Half,More than half,Some,Many,All,Most,Few,None,-0.480886418,-0.04238228,1,0,0,QQQ8,,,,,,,,English,2020-07-02_11h01.59.659,Experiment_English,3.2.4,Win32,60,,,,,,,,,,,,,,,,,,,,,1,0,340,141,1,339,ratio19_1_10_2.png,,,,,,,,,,,,
,,,,,,,,,,,,All,Few,More than half,Less than half,Many,Half,Most,Some,None,0.360110825,-0.275069331,1,0,0,QQQ3,,,,,,,,English,2020-07-02_11h01.59.659,Experiment_English,3.2.4,Win32,60,,,,,,,,,,,,,,,,,,,,,1,0,340,174,1,339,ratio21_10_15_1.png,,,,,,,,,,,,
,,,,,,,,,,,,Less than half,Few,Many,None,More than half,Half,Most,Some,All,0.072022178,-0.004709149,1,0,0,QQQ5,,,,,,,,English,2020-07-02_11h01.59.659,Experiment_English,3.2.4,Win32,60,,,,,,,,,,,,,,,,,,,,,1,0,340,230,1,339,ratio32_9_15_1.png,,,,,,,,,,,,
,,,,,,,,,,,,Half,Many,All,Less than half,Few,Some,More than half,Most,None,0.03878118,-0.009141282,1,0,0,QQQ5,,,,,,,,English,2020-07-02_11h01.59.659,Experiment_English,3.2.4,Win32,60,,,,,,,,,,,,,,,,,,,,,1,0,340,136,1,339,ratio15_3_18_8.png,,,,,,,,,,,,
,,,,,,,,,,,,Some,More than half,Half,Most,All,Few,None,Many,Less than half,0.008864282,-0.287257629,1,0,0,QQQ6,,,,,,,,English,2020-07-02_11h01.59.659,Experiment_English,3.2.4,Win32,60,,,,,,,,,,,,,,,,,,,,,1,0,340,142,1,339,ratio19_1_10_6.png,,,,,,,,,,,,
,,,,,,,,,,,,More than half,None,Most,Half,Less than half,Some,Few,All,Many,0.407756255,0.014127383,1,0,0,QQQ2,,,,,,,,English,2020-07-02_11h01.59.659,Experiment_English,3.2.4,Win32,60,,,,,,,,,,,,,,,,,,,,,1,0,340,75,1,339,ratio0Y_0_16_10.png,,,,,,,,,,,,
,,,,,,,,,,,,Most,Few,Some,Half,None,More than half,Less than half,Many,All,-0.360110793,0.247922434,1,0,0,QQQ7,,,,,,,,English,2020-07-02_11h01.59.659,Experiment_English,3.2.4,Win32,60,,,,,,,,,,,,,,,,,,,,,1,0,340,182,1,339,ratio23_2_5_7.png,,,,,,,,,,,,
,,,,,,,,,,,,More than half,All,None,Some,Many,Most,Half,Few,Less than half,-0.065373946,0.01523545,1,0,0,QQQ5,,,,,,,,English,2020-07-02_11h01.59.659,Experiment_English,3.2.4,Win32,60,,,,,,,,,,,,,,,,,,,,,1,0,340,179,1,339,ratio21_12_18_8.png,,,,,,,,,,,,
,,,,,,,,,,,,More than half,Some,Many,Few,Most,None,All,Less than half,Half,-0.019944515,-0.342659292,1,0,0,QQQ6,,,,,,,,English,2020-07-02_11h01.59.659,Experiment_English,3.2.4,Win32,60,,,,,,,,,,,,,,,,,,,,,1,0,340,64,1,339,ratio0Y_0_7_1.png,,,,,,,,,,,,
,,,,,,,,,,,,Few,All,Some,Half,Many,Most,None,More than half,Less than half,0.485318583,0.270083099,1,0,0,QQQ1,,,,,,,,English,2020-07-02_11h01.59.659,Experiment_English,3.2.4,Win32,60,,,,,,,,,,,,,,,,,,,,,1,0,340,90,1,339,ratio13_3_12_7.png,,,,,,,,,,,,
,,,,,,,,,,,,Some,Less than half,Most,Few,Half,More than half,Many,All,None,0.478670383,-0.270637131,1,0,0,QQQ3,,,,,,,,English,2020-07-02_11h01.59.659,Experiment_English,3.2.4,Win32,60,,,,,,,,,,,,,,,,,,,,,1,0,340,301,1,339,ratio51_5_6_4.png,,,,,,,,,,,,
,,,,,,,,,,,,All,Few,More than half,Many,Less than half,Most,Some,Half,None,-0.431024921,-0.049030479,1,0,0,QQQ8,,,,,,,,English,2020-07-02_11h01.59.659,Experiment_English,3.2.4,Win32,60,,,,,,,,,,,,,,,,,,,,,1,0,340,284,1,339,ratio43_4_7_11.png,,,,,,,,,,,,
,,,,,,,,,,,,Less than half,Many,Few,More than half,All,Most,Some,None,Half,-0.466481986,-0.32160666,1,0,0,QQQ9,,,,,,,,English,2020-07-02_11h01.59.659,Experiment_English,3.2.4,Win32,60,,,,,,,,,,,,,,,,,,,,,1,0,340,281,1,339,ratio43_4_7_4.png,0.332409993,-0.380332491,1,0,0,continue_button_pause,1,0,1,0,1,0
,,,,,,,,,,,,,,,,,,,,,,,,,,,,,,,,,,English,2020-07-02_11h01.59.659,Experiment_English,3.2.4,Win32,60,,,,,,,,,,,,,,,,,,,,,1,0,340,281,1,339,ratio43_4_7_4.png,,,,,,,,,,,,
,,,,,,,,,,,,All,Half,None,Few,Many,Most,Some,More than half,Less than half,-0.548476447,-0.045706379,1,0,0,QQQ8,,,,,,,,English,2020-07-02_11h01.59.659,Experiment_English,3.2.4,Win32,60,,,,,,,,,,,,,,,,,,,,,1,0,340,244,1,339,ratio34_3_7_9.png,,,,,,,,,,,,
,,,,,,,,,,,,Many,Half,Less than half,All,Some,Few,More than half,Most,None,-0.01551245,-0.312742394,1,0,0,QQQ6,,,,,,,,English,2020-07-02_11h01.59.659,Experiment_English,3.2.4,Win32,60,,,,,,,,,,,,,,,,,,,,,1,0,340,157,1,339,ratio19_2_20_16.png,,,,,,,,,,,,
,,,,,,,,,,,,Some,All,Few,None,Half,Many,Most,More than half,Less than half,-0.440997221,0.319944596,1,0,0,QQQ7,,,,,,,,English,2020-07-02_11h01.59.659,Experiment_English,3.2.4,Win32,60,,,,,,,,,,,,,,,,,,,,,1,0,340,268,1,339,ratio41_8_10_5.png,,,,,,,,,,,,
,,,,,,,,,,,,Some,Most,All,Few,Many,Half,More than half,None,Less than half,0.454293651,0.086149545,1,0,0,QQQ2,,,,,,,,English,2020-07-02_11h01.59.659,Experiment_English,3.2.4,Win32,60,,,,,,,,,,,,,,,,,,,,,1,0,340,311,1,339,ratio51_10_12_14.png,,,,,,,,,,,,
,,,,,,,,,,,,Half,Many,Most,More than half,Less than half,All,Few,Some,None,-0.571745145,0.277839315,1,0,0,QQQ7,,,,,,,,English,2020-07-02_11h01.59.659,Experiment_English,3.2.4,Win32,60,,,,,,,,,,,,,,,,,,,,,1,0,340,134,1,339,ratio15_3_18_5.png,,,,,,,,,,,,
,,,,,,,,,,,,Few,Most,Half,Less than half,Many,More than half,None,Some,All,-0.459833786,-0.302770163,1,0,0,QQQ9,,,,,,,,English,2020-07-02_11h01.59.659,Experiment_English,3.2.4,Win32,60,,,,,,,,,,,,,,,,,,,,,1,0,340,52,1,339,ratioX0_13_13_10.png,,,,,,,,,,,,
,,,,,,,,,,,,Few,None,All,Half,Less than half,Many,Some,Most,More than half,0.011080348,-0.037950147,1,0,0,QQQ5,,,,,,,,English,2020-07-02_11h01.59.659,Experiment_English,3.2.4,Win32,60,,,,,,,,,,,,,,,,,,,,,1,0,340,190,1,339,ratio23_6_15_3.png,,,,,,,,,,,,
,,,,,,,,,,,,Some,Less than half,Many,Half,More than half,All,Few,Most,None,-0.384487525,-0.027977847,1,0,0,QQQ8,,,,,,,,English,2020-07-02_11h01.59.659,Experiment_English,3.2.4,Win32,60,,,,,,,,,,,,,,,,,,,,,1,0,340,328,1,339,ratio91_9_10_15.png,,,,,,,,,,,,
,,,,,,,,,,,,More than half,Some,Few,Less than half,None,All,Most,Many,Half,0.416620521,-0.271745164,1,0,0,QQQ3,,,,,,,,English,2020-07-02_11h01.59.659,Experiment_English,3.2.4,Win32,60,,,,,,,,,,,,,,,,,,,,,1,0,340,115,1,339,ratio14_4_20_1.png,,,,,,,,,,,,
,,,,,,,,,,,,More than half,Few,Some,Most,None,Many,Half,Less than half,All,0.04210528,0.275623265,1,0,0,QQQ4,,,,,,,,English,2020-07-02_11h01.59.659,Experiment_English,3.2.4,Win32,60,,,,,,,,,,,,,,,,,,,,,1,0,340,321,1,339,ratio91_9_10_2.png,,,,,,,,,,,,
,,,,,,,,,,,,Some,More than half,None,Few,Less than half,Many,Half,All,Most,0.498614982,0.060664813,1,0,0,QQQ2,,,,,,,,English,2020-07-02_11h01.59.659,Experiment_English,3.2.4,Win32,60,,,,,,,,,,,,,,,,,,,,,1,0,340,172,1,339,ratio21_8_12_6.png,,,,,,,,,,,,
,,,,,,,,,,,,Most,Many,All,Half,Less than half,None,Few,More than half,Some,-0.426592788,0.34875346,1,0,0,QQQ7,,,,,,,,English,2020-07-02_11h01.59.659,Experiment_English,3.2.4,Win32,60,,,,,,,,,,,,,,,,,,,,,1,0,340,106,1,339,ratio14_2_10_2.png,,,,,,,,,,,,
,,,,,,,,,,,,Few,Half,Some,Less than half,More than half,Most,All,None,Many,0.003324116,-0.28393353,1,0,0,QQQ6,,,,,,,,English,2020-07-02_11h01.59.659,Experiment_English,3.2.4,Win32,60,,,,,,,,,,,,,,,,,,,,,1,0,340,337,1,339,ratio91_18_20_16.png,,,,,,,,,,,,
,,,,,,,,,,,,None,Some,Few,Half,Less than half,More than half,Many,All,Most,-0.496398884,-0.319390662,1,0,0,QQQ9,,,,,,,,English,2020-07-02_11h01.59.659,Experiment_English,3.2.4,Win32,60,,,,,,,,,,,,,,,,,,,,,1,0,340,338,1,339,ratio91_18_20_18.png,,,,,,,,,,,,
,,,,,,,,,,,,Some,Most,None,More than half,Half,All,Many,Less than half,Few,0.424376753,-0.265096964,1,0,0,QQQ3,,,,,,,,English,2020-07-02_11h01.59.659,Experiment_English,3.2.4,Win32,60,,,,,,,,,,,,,,,,,,,,,1,0,340,66,1,339,ratio0Y_0_9_8.png,,,,,,,,,,,,
,,,,,,,,,,,,Half,Some,Most,Few,Many,Less than half,More than half,None,All,0.491966917,-0.37590029,1,0,0,QQQ3,,,,,,,,English,2020-07-02_11h01.59.659,Experiment_English,3.2.4,Win32,60,,,,,,,,,,,,,,,,,,,,,1,0,340,255,1,339,ratio34_6_14_10.png,,,,,,,,,,,,
,,,,,,,,,,,,Many,Few,More than half,Less than half,None,Most,Some,All,Half,-0.006648184,0.254570617,1,0,0,QQQ4,,,,,,,,English,2020-07-02_11h01.59.659,Experiment_English,3.2.4,Win32,60,,,,,,,,,,,,,,,,,,,,,1,0,340,25,1,339,ratio11_4_8_10.png,,,,,,,,,,,,
,,,,,,,,,,,,Some,None,Most,More than half,All,Few,Half,Many,Less than half,-0.014404349,0.247922434,1,0,0,QQQ4,,,,,,,,English,2020-07-02_11h01.59.659,Experiment_English,3.2.4,Win32,60,,,,,,,,,,,,,,,,,,,,,1,0,340,295,1,339,ratio43_8_14_11.png,,,,,,,,,,,,
,,,,,,,,,,,,Half,Many,None,More than half,Most,Some,Less than half,Few,All,-0.460941819,-0.270637131,1,0,0,QQQ9,,,,,,,,English,2020-07-02_11h01.59.659,Experiment_English,3.2.4,Win32,60,,,,,,,,,,,,,,,,,,,,,1,0,340,53,1,339,ratioX0_14_14_8.png,,,,,,,,,,,,
,,,,,,,,,,,,Half,All,None,Most,Few,Many,Some,Less than half,More than half,-0.029916882,0.292243764,1,0,0,QQQ4,,,,,,,,English,2020-07-02_11h01.59.659,Experiment_English,3.2.4,Win32,60,,,,,,,,,,,,,,,,,,,,,1,0,340,318,1,339,ratio51_15_18_18.png,,,,,,,,,,,,
,,,,,,,,,,,,Half,Few,None,All,More than half,Many,Some,Less than half,Most,0.513019414,0.008587216,1,0,0,QQQ2,,,,,,,,English,2020-07-02_11h01.59.659,Experiment_English,3.2.4,Win32,60,,,,,,,,,,,,,,,,,,,,,1,0,340,109,1,339,ratio14_2_10_9.png,,,,,,,,,,,,
,,,,,,,,,,,,None,Many,Some,Most,Few,Half,All,More than half,Less than half,0.074238244,0.01855955,1,0,0,QQQ5,,,,,,,,English,2020-07-02_11h01.59.659,Experiment_English,3.2.4,Win32,60,,,,,,,,,,,,,,,,,,,,,1,0,340,16,1,339,ratio12_5_15_6.png,,,,,,,,,,,,
,,,,,,,,,,,,Some,Many,Most,Less than half,None,Half,Few,All,More than half,0.037673147,0.257894683,1,0,0,QQQ4,,,,,,,,English,2020-07-02_11h01.59.659,Experiment_English,3.2.4,Win32,60,,,,,,,,,,,,,,,,,,,,,1,0,340,183,1,339,ratio23_2_5_9.png,,,,,,,,,,,,
,,,,,,,,,,,,Many,None,Most,Half,All,More than half,Some,Few,Less than half,0.517451547,-0.308310329,1,0,0,QQQ3,,,,,,,,English,2020-07-02_11h01.59.659,Experiment_English,3.2.4,Win32,60,,,,,,,,,,,,,,,,,,,,,1,0,340,339,1,339,ratio91_18_20_19.png,,,,,,,,,,,,
,,,,,,,,,,,,Some,Less than half,Few,None,All,More than half,Most,Half,Many,-0.458725753,0.224653685,1,0,0,QQQ7,,,,,,,,English,2020-07-02_11h01.59.659,Experiment_English,3.2.4,Win32,60,,,,,,,,,,,,,,,,,,,,,1,0,340,312,1,339,ratio51_10_12_16.png,,,,,,,,,,,,
,,,,,,,,,,,,Half,None,Some,Few,Most,All,More than half,Many,Less than half,-0.422160655,0.229085869,1,0,0,QQQ7,,,,,,,,English,2020-07-02_11h01.59.659,Experiment_English,3.2.4,Win32,60,,,,,,,,,,,,,,,,,,,,,1,0,340,26,1,339,ratio11_5_10_4.png,,,,,,,,,,,,
,,,,,,,,,,,,All,Most,Some,Many,None,More than half,Half,Few,Less than half,0.050969546,0.337673128,1,0,0,QQQ4,,,,,,,,English,2020-07-02_11h01.59.659,Experiment_English,3.2.4,Win32,60,,,,,,,,,,,,,,,,,,,,,1,0,340,266,1,339,ratio41_8_10_2.png,,,,,,,,,,,,
,,,,,,,,,,,,Some,None,Half,Many,More than half,Most,Few,All,Less than half,0.013296483,-0.330470994,1,0,0,QQQ6,,,,,,,,English,2020-07-02_11h01.59.659,Experiment_English,3.2.4,Win32,60,,,,,,,,,,,,,,,,,,,,,1,0,340,214,1,339,ratio31_12_16_5.png,,,,,,,,,,,,
,,,,,,,,,,,,None,Few,Many,Less than half,Some,More than half,Half,All,Most,0.011080348,0.317728529,1,0,0,QQQ4,,,,,,,,English,2020-07-02_11h01.59.659,Experiment_English,3.2.4,Win32,60,,,,,,,,,,,,,,,,,,,,,1,0,340,256,1,339,ratio34_6_14_11.png,,,,,,,,,,,,
,,,,,,,,,,,,Few,Many,Some,Less than half,Half,All,More than half,None,Most,-0.445429354,-0.267313031,1,0,0,QQQ9,,,,,,,,English,2020-07-02_11h01.59.659,Experiment_English,3.2.4,Win32,60,,,,,,,,,,,,,,,,,,,,,1,0,340,326,1,339,ratio91_9_10_10.png,,,,,,,,,,,,
,,,,,,,,,,,,Most,Half,All,Many,Some,More than half,Less than half,Few,None,-0.524099715,0.009695284,1,0,0,QQQ8,,,,,,,,English,2020-07-02_11h01.59.659,Experiment_English,3.2.4,Win32,60,,,,,,,,,,,,,,,,,,,,,1,0,340,146,1,339,ratio19_1_10_17.png,,,,,,,,,,,,
,,,,,,,,,,,,None,All,Few,Most,More than half,Half,Some,Less than half,Many,-0.531855948,-0.33490306,1,0,0,QQQ9,,,,,,,,English,2020-07-02_11h01.59.659,Experiment_English,3.2.4,Win32,60,,,,,,,,,,,,,,,,,,,,,1,0,340,228,1,339,ratio32_6_10_7.png,,,,,,,,,,,,
,,,,,,,,,,,,Half,None,Less than half,Most,Many,Few,All,More than half,Some,-0.527423815,0.231301935,1,0,0,QQQ7,,,,,,,,English,2020-07-02_11h01.59.659,Experiment_English,3.2.4,Win32,60,,,,,,,,,,,,,,,,,,,,,1,0,340,56,1,339,ratioX0_17_17_10.png,,,,,,,,,,,,
,,,,,,,,,,,,None,Half,Many,More than half,All,Less than half,Some,Few,Most,-0.074238212,-0.262880898,1,0,0,QQQ6,,,,,,,,English,2020-07-02_11h01.59.659,Experiment_English,3.2.4,Win32,60,,,,,,,,,,,,,,,,,,,,,1,0,340,12,1,339,ratio12_4_12_10.png,0.383379523,-0.404709155,1,0,0,continue_button_pause,1,0,1,0,1,0
,,,,,,,,,,,,,,,,,,,,,,,,,,,,,,,,,,English,2020-07-02_11h01.59.659,Experiment_English,3.2.4,Win32,60,,,,,,,,,,,,,,,,,,,,,1,0,340,12,1,339,ratio12_4_12_10.png,,,,,,,,,,,,
,,,,,,,,,,,,Half,More than half,All,None,Many,Few,Some,Less than half,Most,-0.39667589,-0.043490313,1,0,0,QQQ8,,,,,,,,English,2020-07-02_11h01.59.659,Experiment_English,3.2.4,Win32,60,,,,,,,,,,,,,,,,,,,,,1,0,340,193,1,339,ratio23_6_15_9.png,,,,,,,,,,,,
,,,,,,,,,,,,All,More than half,Some,None,Most,Less than half,Half,Few,Many,0.510803348,-0.020221614,1,0,0,QQQ2,,,,,,,,English,2020-07-02_11h01.59.659,Experiment_English,3.2.4,Win32,60,,,,,,,,,,,,,,,,,,,,,1,0,340,315,1,339,ratio51_15_18_10.png,,,,,,,,,,,,
,,,,,,,,,,,,None,Less than half,More than half,All,Half,Some,Most,Few,Many,0.505263181,0.317728529,1,0,0,QQQ1,,,,,,,,English,2020-07-02_11h01.59.659,Experiment_English,3.2.4,Win32,60,,,,,,,,,,,,,,,,,,,,,1,0,340,61,1,339,ratio0Y_0_4_7.png,,,,,,,,,,,,
,,,,,,,,,,,,Few,Most,None,Many,All,Less than half,Half,More than half,Some,0.021052648,-0.051246546,1,0,0,QQQ5,,,,,,,,English,2020-07-02_11h01.59.659,Experiment_English,3.2.4,Win32,60,,,,,,,,,,,,,,,,,,,,,1,0,340,45,1,339,ratioX0_8_8_3.png,,,,,,,,,,,,
,,,,,,,,,,,,All,Most,More than half,Half,Some,Less than half,None,Many,Few,-0.439889187,-0.299445995,1,0,0,QQQ9,,,,,,,,English,2020-07-02_11h01.59.659,Experiment_English,3.2.4,Win32,60,,,,,,,,,,,,,,,,,,,,,1,0,340,149,1,339,ratio19_1_10_20.png,,,,,,,,,,,,
,,,,,,,,,,,,Many,All,Some,Less than half,Half,Few,None,More than half,Most,-0.50526315,-0.031301947,1,0,0,QQQ8,,,,,,,,English,2020-07-02_11h01.59.659,Experiment_English,3.2.4,Win32,60,,,,,,,,,,,,,,,,,,,,,1,0,340,176,1,339,ratio21_10_15_3.png,,,,,,,,,,,,
,,,,,,,,,,,,Most,Many,Half,Few,None,All,More than half,Less than half,Some,0.029916981,0.3775623,1,0,0,QQQ4,,,,,,,,English,2020-07-02_11h01.59.659,Experiment_English,3.2.4,Win32,60,,,,,,,,,,,,,,,,,,,,,1,0,340,103,1,339,ratio14_1_5_9.png,,,,,,,,,,,,
,,,,,,,,,,,,Few,All,Less than half,None,Many,More than half,Most,Some,Half,-0.053185513,-0.267313031,1,0,0,QQQ6,,,,,,,,English,2020-07-02_11h01.59.659,Experiment_English,3.2.4,Win32,60,,,,,,,,,,,,,,,,,,,,,1,0,340,207,1,339,ratio31_6_8_9.png,,,,,,,,,,,,
,,,,,,,,,,,,All,Some,Many,Half,Less than half,None,Most,More than half,Few,-0.052077547,-0.267313031,1,0,0,QQQ6,,,,,,,,English,2020-07-02_11h01.59.659,Experiment_English,3.2.4,Win32,60,,,,,,,,,,,,,,,,,,,,,1,0,340,68,1,339,ratio0Y_0_11_3.png,,,,,,,,,,,,
,,,,,,,,,,,,Many,Half,Few,More than half,Some,Less than half,All,Most,None,-0.032132949,-0.367036024,1,0,0,QQQ6,,,,,,,,English,2020-07-02_11h01.59.659,Experiment_English,3.2.4,Win32,60,,,,,,,,,,,,,,,,,,,,,1,0,340,194,1,339,ratio23_6_15_10.png,,,,,,,,,,,,
,,,,,,,,,,,,Half,None,More than half,Many,Most,Some,All,Less than half,Few,-0.428808855,0.332132961,1,0,0,QQQ7,,,,,,,,English,2020-07-02_11h01.59.659,Experiment_English,3.2.4,Win32,60,,,,,,,,,,,,,,,,,,,,,1,0,340,58,1,339,ratioX0_19_19_4.png,,,,,,,,,,,,
,,,,,,,,,,,,Few,Half,All,Less than half,More than half,Most,None,Some,Many,-0.052077547,0.050692514,1,0,0,QQQ5,,,,,,,,English,2020-07-02_11h01.59.659,Experiment_English,3.2.4,Win32,60,,,,,,,,,,,,,,,,,,,,,1,0,340,236,1,339,ratio32_12_20_2.png,,,,,,,,,,,,
,,,,,,,,,,,,None,Few,Less than half,More than half,All,Half,Most,Many,Some,-0.052077547,0.050692514,1,0,0,QQQ5,,,,,,,,English,2020-07-02_11h01.59.659,Experiment_English,3.2.4,Win32,60,,,,,,,,,,,,,,,,,,,,,1,0,340,43,1,339,ratioX0_6_6_9.png,,,,,,,,,,,,
,,,,,,,,,,,,More than half,Half,Many,Most,Few,Some,Less than half,None,All,-0.475346252,0.250138484,1,0,0,QQQ7,,,,,,,,English,2020-07-02_11h01.59.659,Experiment_English,3.2.4,Win32,60,,,,,,,,,,,,,,,,,,,,,1,0,340,5,1,339,ratio12_2_6_9.png,,,,,,,,,,,,
,,,,,,,,,,,,More than half,Less than half,Few,Half,None,Most,All,Many,Some,0.418836587,0.283379481,1,0,0,QQQ1,,,,,,,,English,2020-07-02_11h01.59.659,Experiment_English,3.2.4,Win32,60,,,,,,,,,,,,,,,,,,,,,1,0,340,298,1,339,ratio43_8_14_14.png,,,,,,,,,,,,
,,,,,,,,,,,,Half,Most,Many,Few,Less than half,More than half,Some,None,All,-0.05983378,0.313296396,1,0,0,QQQ4,,,,,,,,English,2020-07-02_11h01.59.659,Experiment_English,3.2.4,Win32,60,,,,,,,,,,,,,,,,,,,,,1,0,340,121,1,339,ratio15_1_6_4.png,,,,,,,,,,,,
,,,,,,,,,,,,Some,Half,None,All,More than half,Most,Less than half,Many,Few,-0.497506883,-0.32160666,1,0,0,QQQ9,,,,,,,,English,2020-07-02_11h01.59.659,Experiment_English,3.2.4,Win32,60,,,,,,,,,,,,,,,,,,,,,1,0,340,133,1,339,ratio15_3_18_3.png,,,,,,,,,,,,
,,,,,,,,,,,,Half,Many,Less than half,None,More than half,Some,Most,Few,All,-0.434349021,0.273407199,1,0,0,QQQ7,,,,,,,,English,2020-07-02_11h01.59.659,Experiment_English,3.2.4,Win32,60,,,,,,,,,,,,,,,,,,,,,1,0,340,335,1,339,ratio91_18_20_11.png,,,,,,,,,,,,
,,,,,,,,,,,,Half,Most,None,More than half,All,Few,Many,Some,Less than half,-0.429916888,-0.344875359,1,0,0,QQQ9,,,,,,,,English,2020-07-02_11h01.59.659,Experiment_English,3.2.4,Win32,60,,,,,,,,,,,,,,,,,,,,,1,0,340,18,1,339,ratio12_6_18_7.png,,,,,,,,,,,,
,,,,,,,,,,,,Some,Few,Less than half,Most,More than half,None,Many,All,Half,-0.559556779,-0.230748001,1,0,0,QQQ9,,,,,,,,English,2020-07-02_11h01.59.659,Experiment_English,3.2.4,Win32,60,,,,,,,,,,,,,,,,,,,,,1,0,340,289,1,339,ratio43_4_7_20.png,,,,,,,,,,,,
,,,,,,,,,,,,Less than half,Most,Few,None,All,Half,Many,More than half,Some,-0.579501378,-0.036842113,1,0,0,QQQ8,,,,,,,,English,2020-07-02_11h01.59.659,Experiment_English,3.2.4,Win32,60,,,,,,,,,,,,,,,,,,,,,1,0,340,173,1,339,ratio21_8_12_9.png,,,,,,,,,,,,
,,,,,,,,,,,,Few,Less than half,All,Most,Half,More than half,Many,None,Some,0.386703758,0.297783931,1,0,0,QQQ1,,,,,,,,English,2020-07-02_11h01.59.659,Experiment_English,3.2.4,Win32,60,,,,,,,,,,,,,,,,,,,,,1,0,340,125,1,339,ratio15_1_6_19.png,,,,,,,,,,,,
,,,,,,,,,,,,Less than half,All,Many,Few,Some,More than half,Most,None,Half,0.023268714,0.318836562,1,0,0,QQQ4,,,,,,,,English,2020-07-02_11h01.59.659,Experiment_English,3.2.4,Win32,60,,,,,,,,,,,,,,,,,,,,,1,0,340,135,1,339,ratio15_3_18_7.png,,,,,,,,,,,,
,,,,,,,,,,,,Half,Many,None,Few,Less than half,Most,More than half,All,Some,-0.469806085,0.273407199,1,0,0,QQQ7,,,,,,,,English,2020-07-02_11h01.59.659,Experiment_English,3.2.4,Win32,60,,,,,,,,,,,,,,,,,,,,,1,0,340,282,1,339,ratio43_4_7_7.png,,,,,,,,,,,,
,,,,,,,,,,,,None,Most,Few,Many,Some,Half,Less than half,More than half,All,-0.481994451,0.078393346,1,0,0,QQQ8,,,,,,,,English,2020-07-02_11h01.59.659,Experiment_English,3.2.4,Win32,60,,,,,,,,,,,,,,,,,,,,,1,0,340,288,1,339,ratio43_4_7_18.png,,,,,,,,,,,,
,,,,,,,,,,,,Most,More than half,Half,Many,Some,None,Less than half,Few,All,-0.009972283,-0.092243844,1,0,0,QQQ5,,,,,,,,English,2020-07-02_11h01.59.659,Experiment_English,3.2.4,Win32,60,,,,,,,,,,,,,,,,,,,,,1,0,340,14,1,339,ratio12_5_15_4.png,,,,,,,,,,,,
,,,,,,,,,,,,Many,Some,None,Most,Few,Less than half,Half,All,More than half,0.539612212,0.287811614,1,0,0,QQQ1,,,,,,,,English,2020-07-02_11h01.59.659,Experiment_English,3.2.4,Win32,60,,,,,,,,,,,,,,,,,,,,,1,0,340,208,1,339,ratio31_9_12_3.png,,,,,,,,,,,,
,,,,,,,,,,,,Some,All,Half,Less than half,Few,Many,None,More than half,Most,-0.013296383,0.266758982,1,0,0,QQQ4,,,,,,,,English,2020-07-02_11h01.59.659,Experiment_English,3.2.4,Win32,60,,,,,,,,,,,,,,,,,,,,,1,0,340,245,1,339,ratio34_3_7_10.png,,,,,,,,,,,,
,,,,,,,,,,,,Many,Half,Some,Less than half,Few,All,None,More than half,Most,-0.409972289,-0.343767326,1,0,0,QQQ9,,,,,,,,English,2020-07-02_11h01.59.659,Experiment_English,3.2.4,Win32,60,,,,,,,,,,,,,,,,,,,,,1,0,340,305,1,339,ratio51_5_6_14.png,,,,,,,,,,,,
,,,,,,,,,,,,Many,More than half,Few,All,Less than half,Most,None,Half,Some,-0.481994451,0.21246537,1,0,0,QQQ7,,,,,,,,English,2020-07-02_11h01.59.659,Experiment_English,3.2.4,Win32,60,,,,,,,,,,,,,,,,,,,,,1,0,340,62,1,339,ratio0Y_0_5_4.png,,,,,,,,,,,,
,,,,,,,,,,,,More than half,Most,Half,All,Less than half,Many,Few,Some,None,0.413296421,0.004155117,1,0,0,QQQ2,,,,,,,,English,2020-07-02_11h01.59.659,Experiment_English,3.2.4,Win32,60,,,,,,,,,,,,,,,,,,,,,1,0,340,330,1,339,ratio91_18_20_2.png,,,,,,,,,,,,
,,,,,,,,,,,,Some,Half,Most,Few,More than half,Many,All,None,Less than half,-0.386703591,-0.286149664,1,0,0,QQQ9,,,,,,,,English,2020-07-02_11h01.59.659,Experiment_English,3.2.4,Win32,60,,,,,,,,,,,,,,,,,,,,,1,0,340,187,1,339,ratio23_4_10_5.png,,,,,,,,,,,,
,,,,,,,,,,,,Many,None,Few,All,More than half,Half,Some,Less than half,Most,-0.078670345,-0.02908588,1,0,0,QQQ5,,,,,,,,English,2020-07-02_11h01.59.659,Experiment_English,3.2.4,Win32,60,,,,,,,,,,,,,,,,,,,,,1,0,340,28,1,339,ratio11_5_10_9.png,,,,,,,,,,,,
,,,,,,,,,,,,More than half,Most,None,Many,Less than half,Few,Half,All,Some,0.401108055,0.236842101,1,0,0,QQQ1,,,,,,,,English,2020-07-02_11h01.59.659,Experiment_English,3.2.4,Win32,60,,,,,,,,,,,,,,,,,,,,,1,0,340,175,1,339,ratio21_10_15_2.png,0.37894739,-0.37922439,1,0,0,continue_button_pause,1,0,1,0,1,0
,,,,,,,,,,,,,,,,,,,,,,,,,,,,,,,,,,English,2020-07-02_11h01.59.659,Experiment_English,3.2.4,Win32,60,,,,,,,,,,,,,,,,,,,,,1,0,340,175,1,339,ratio21_10_15_2.png,,,,,,,,,,,,
,,,,,,,,,,,,All,Most,None,Few,Less than half,More than half,Half,Some,Many,0.053185612,-0.313850495,1,0,0,QQQ6,,,,,,,,English,2020-07-02_11h01.59.659,Experiment_English,3.2.4,Win32,60,,,,,,,,,,,,,,,,,,,,,1,0,340,162,1,339,ratio21_2_3_9.png,,,,,,,,,,,,
,,,,,,,,,,,,More than half,Some,Half,Less than half,Few,All,None,Most,Many,0.009972315,-0.009141282,1,0,0,QQQ5,,,,,,,,English,2020-07-02_11h01.59.659,Experiment_English,3.2.4,Win32,60,,,,,,,,,,,,,,,,,,,,,1,0,340,116,1,339,ratio14_4_20_3.png,,,,,,,,,,,,
,,,,,,,,,,,,Few,None,Most,Many,More than half,Some,Less than half,All,Half,-0.511911349,0.29999998,1,0,0,QQQ7,,,,,,,,English,2020-07-02_11h01.59.659,Experiment_English,3.2.4,Win32,60,,,,,,,,,,,,,,,,,,,,,1,0,340,250,1,339,ratio34_6_14_1.png,,,,,,,,,,,,
,,,,,,,,,,,,Few,All,Half,Most,Many,More than half,None,Less than half,Some,0.440997252,0.325484762,1,0,0,QQQ1,,,,,,,,English,2020-07-02_11h01.59.659,Experiment_English,3.2.4,Win32,60,,,,,,,,,,,,,,,,,,,,,1,0,340,84,1,339,ratio13_2_8_1.png,,,,,,,,,,,,
,,,,,,,,,,,,All,Less than half,Most,Some,Many,More than half,None,Half,Few,-0.417728522,-0.322714694,1,0,0,QQQ9,,,,,,,,English,2020-07-02_11h01.59.659,Experiment_English,3.2.4,Win32,60,,,,,,,,,,,,,,,,,,,,,1,0,340,131,1,339,ratio15_2_12_14.png,,,,,,,,,,,,
,,,,,,,,,,,,Half,Few,All,Many,None,Most,Less than half,More than half,Some,0.519667749,-0.002493116,1,0,0,QQQ2,,,,,,,,English,2020-07-02_11h01.59.659,Experiment_English,3.2.4,Win32,60,,,,,,,,,,,,,,,,,,,,,1,0,340,150,1,339,ratio19_2_20_1.png,,,,,,,,,,,,
,,,,,,,,,,,,Half,More than half,Less than half,Many,Most,Some,Few,All,None,-0.01883655,-0.073407211,1,0,0,QQQ5,,,,,,,,English,2020-07-02_11h01.59.659,Experiment_English,3.2.4,Win32,60,,,,,,,,,,,,,,,,,,,,,1,0,340,262,1,339,ratio41_4_5_4.png,,,,,,,,,,,,
,,,,,,,,,,,,Some,Half,Most,Less than half,All,None,Many,More than half,Few,-0.452077553,0.028531849,1,0,0,QQQ8,,,,,,,,English,2020-07-02_11h01.59.659,Experiment_English,3.2.4,Win32,60,,,,,,,,,,,,,,,,,,,,,1,0,340,294,1,339,ratio43_8_14_9.png,,,,,,,,,,,,
,,,,,,,,,,,,None,More than half,All,Most,Many,Some,Half,Few,Less than half,0.47756235,-0.024653781,1,0,0,QQQ2,,,,,,,,English,2020-07-02_11h01.59.659,Experiment_English,3.2.4,Win32,60,,,,,,,,,,,,,,,,,,,,,1,0,340,221,1,339,ratio32_3_5_3.png,,,,,,,,,,,,
,,,,,,,,,,,,None,Few,All,Many,Less than half,Half,More than half,Most,Some,0.42659282,-0.261772865,1,0,0,QQQ3,,,,,,,,English,2020-07-02_11h01.59.659,Experiment_English,3.2.4,Win32,60,,,,,,,,,,,,,,,,,,,,,1,0,340,51,1,339,ratioX0_12_12_9.png,,,,,,,,,,,,
,,,,,,,,,,,,Most,Half,Many,Some,None,Few,All,More than half,Less than half,0.099723009,-0.280609498,1,0,0,QQQ6,,,,,,,,English,2020-07-02_11h01.59.659,Experiment_English,3.2.4,Win32,60,,,,,,,,,,,,,,,,,,,,,1,0,340,122,1,339,ratio15_1_6_7.png,,,,,,,,,,,,
,,,,,,,,,,,,Few,More than half,Less than half,Most,Many,All,Half,None,Some,0.005540182,-0.001385049,1,0,0,QQQ5,,,,,,,,English,2020-07-02_11h01.59.659,Experiment_English,3.2.4,Win32,60,,,,,,,,,,,,,,,,,,,,,1,0,340,237,1,339,ratio32_12_20_5.png,,,,,,,,,,,,
,,,,,,,,,,,,Some,All,More than half,Few,None,Many,Most,Half,Less than half,0.015512481,0.346537394,1,0,0,QQQ4,,,,,,,,English,2020-07-02_11h01.59.659,Experiment_English,3.2.4,Win32,60,,,,,,,,,,,,,,,,,,,,,1,0,340,126,1,339,ratio15_2_12_1.png,,,,,,,,,,,,
,,,,,,,,,,,,Half,More than half,Few,All,Many,Some,Most,Less than half,None,-0.428808855,0.220221602,1,0,0,QQQ7,,,,,,,,English,2020-07-02_11h01.59.659,Experiment_English,3.2.4,Win32,60,,,,,,,,,,,,,,,,,,,,,1,0,340,209,1,339,ratio31_9_12_6.png,,,,,,,,,,,,
,,,,,,,,,,,,All,None,Few,Less than half,Some,Most,More than half,Many,Half,0.011080348,0.385318558,1,0,0,QQQ4,,,,,,,,English,2020-07-02_11h01.59.659,Experiment_English,3.2.4,Win32,60,,,,,,,,,,,,,,,,,,,,,1,0,340,188,1,339,ratio23_4_10_6.png,,,,,,,,,,,,
,,,,,,,,,,,,Few,More than half,Most,All,Half,None,Less than half,Some,Many,-0.417728522,-0.327146827,1,0,0,QQQ9,,,,,,,,English,2020-07-02_11h01.59.659,Experiment_English,3.2.4,Win32,60,,,,,,,,,,,,,,,,,,,,,1,0,340,278,1,339,ratio41_16_20_9.png,,,,,,,,,,,,
,,,,,,,,,,,,Some,Less than half,All,Many,More than half,Half,Few,None,Most,-0.438781154,-0.308310329,1,0,0,QQQ9,,,,,,,,English,2020-07-02_11h01.59.659,Experiment_English,3.2.4,Win32,60,,,,,,,,,,,,,,,,,,,,,1,0,340,201,1,339,ratio31_3_4_7.png,,,,,,,,,,,,
,,,,,,,,,,,,Half,Some,Many,None,Less than half,More than half,All,Few,Most,-0.036565014,0.01191135,1,0,0,QQQ5,,,,,,,,English,2020-07-02_11h01.59.659,Experiment_English,3.2.4,Win32,60,,,,,,,,,,,,,,,,,,,,,1,0,340,248,1,339,ratio34_3_7_19.png,,,,,,,,,,,,
,,,,,,,,,,,,All,Many,None,Half,Most,Less than half,More than half,Some,Few,-0.439889187,0.278947365,1,0,0,QQQ7,,,,,,,,English,2020-07-02_11h01.59.659,Experiment_English,3.2.4,Win32,60,,,,,,,,,,,,,,,,,,,,,1,0,340,264,1,339,ratio41_4_5_6.png,,,,,,,,,,,,
,,,,,,,,,,,,None,Few,All,Half,Many,Most,Some,More than half,Less than half,0.411080354,-0.024653781,1,0,0,QQQ2,,,,,,,,English,2020-07-02_11h01.59.659,Experiment_English,3.2.4,Win32,60,,,,,,,,,,,,,,,,,,,,,1,0,340,120,1,339,ratio15_1_6_1.png,,,,,,,,,,,,
,,,,,,,,,,,,Half,Some,Less than half,More than half,Many,Few,All,Most,None,-0.362326859,-0.031301947,1,0,0,QQQ8,,,,,,,,English,2020-07-02_11h01.59.659,Experiment_English,3.2.4,Win32,60,,,,,,,,,,,,,,,,,,,,,1,0,340,334,1,339,ratio91_18_20_9.png,,,,,,,,,,,,
,,,,,,,,,,,,None,Few,All,Most,Some,Half,More than half,Many,Less than half,0.436565255,0.20581717,1,0,0,QQQ1,,,,,,,,English,2020-07-02_11h01.59.659,Experiment_English,3.2.4,Win32,60,,,,,,,,,,,,,,,,,,,,,1,0,340,77,1,339,ratio0Y_0_18_3.png,,,,,,,,,,,,
,,,,,,,,,,,,More than half,All,Less than half,Few,Most,Many,None,Some,Half,0.434349053,0.244598317,1,0,0,QQQ1,,,,,,,,English,2020-07-02_11h01.59.659,Experiment_English,3.2.4,Win32,60,,,,,,,,,,,,,,,,,,,,,1,0,340,205,1,339,ratio31_6_8_2.png,,,,,,,,,,,,
,,,,,,,,,,,,Some,All,Most,Half,Less than half,None,Few,Many,More than half,0.03878118,-0.018005548,1,0,0,QQQ5,,,,,,,,English,2020-07-02_11h01.59.659,Experiment_English,3.2.4,Win32,60,,,,,,,,,,,,,,,,,,,,,1,0,340,287,1,339,ratio43_4_7_17.png,,,,,,,,,,,,
,,,,,,,,,,,,Half,Many,Less than half,Few,Some,None,All,Most,More than half,-0.562880879,0.24903045,1,0,0,QQQ7,,,,,,,,English,2020-07-02_11h01.59.659,Experiment_English,3.2.4,Win32,60,,,,,,,,,,,,,,,,,,,,,1,0,340,47,1,339,ratioX0_9_9_4.png,,,,,,,,,,,,
,,,,,,,,,,,,Less than half,Some,Most,More than half,All,Few,Many,None,Half,-0.04210518,-0.010249315,1,0,0,QQQ5,,,,,,,,English,2020-07-02_11h01.59.659,Experiment_English,3.2.4,Win32,60,,,,,,,,,,,,,,,,,,,,,1,0,340,44,1,339,ratioX0_7_7_5.png,,,,,,,,,,,,
,,,,,,,,,,,,Some,Many,Half,None,More than half,Less than half,Few,Most,All,-0.489750684,0.311080313,1,0,0,QQQ7,,,,,,,,English,2020-07-02_11h01.59.659,Experiment_English,3.2.4,Win32,60,,,,,,,,,,,,,,,,,,,,,1,0,340,100,1,339,ratio14_1_5_3.png,,,,,,,,,,,,
,,,,,,,,,,,,Less than half,Few,Many,All,Some,None,Half,Most,More than half,-0.44432132,-0.260664831,1,0,0,QQQ9,,,,,,,,English,2020-07-02_11h01.59.659,Experiment_English,3.2.4,Win32,60,,,,,,,,,,,,,,,,,,,,,1,0,340,31,1,339,ratio11_6_12_9.png,,,,,,,,,,,,
,,,,,,,,,,,,More than half,All,Few,Half,Most,None,Some,Many,Less than half,-0.44432132,-0.275069331,1,0,0,QQQ9,,,,,,,,English,2020-07-02_11h01.59.659,Experiment_English,3.2.4,Win32,60,,,,,,,,,,,,,,,,,,,,,1,0,340,6,1,339,ratio12_3_9_1.png,,,,,,,,,,,,
,,,,,,,,,,,,All,Many,Less than half,Most,Few,More than half,None,Half,Some,0.37894739,-0.272853197,1,0,0,QQQ3,,,,,,,,English,2020-07-02_11h01.59.659,Experiment_English,3.2.4,Win32,60,,,,,,,,,,,,,,,,,,,,,1,0,340,243,1,339,ratio34_3_7_8.png,,,,,,,,,,,,
,,,,,,,,,,,,None,Many,Less than half,All,Some,Half,Few,More than half,Most,-0.464265919,0.34432131,1,0,0,QQQ7,,,,,,,,English,2020-07-02_11h01.59.659,Experiment_English,3.2.4,Win32,60,,,,,,,,,,,,,,,,,,,,,1,0,340,152,1,339,ratio19_2_20_6.png,,,,,,,,,,,,
,,,,,,,,,,,,Most,Half,More than half,Some,None,All,Less than half,Few,Many,0.459833818,0.236842101,1,0,0,QQQ1,,,,,,,,English,2020-07-02_11h01.59.659,Experiment_English,3.2.4,Win32,60,,,,,,,,,,,,,,,,,,,,,1,0,340,322,1,339,ratio91_9_10_3.png,,,,,,,,,,,,
,,,,,,,,,,,,All,More than half,Many,Less than half,Most,Few,None,Half,Some,0.07977841,0.019667549,1,0,0,QQQ5,,,,,,,,English,2020-07-02_11h01.59.659,Experiment_English,3.2.4,Win32,60,,,,,,,,,,,,,,,,,,,,,1,0,340,331,1,339,ratio91_18_20_3.png,,,,,,,,,,,,
,,,,,,,,,,,,Some,More than half,Half,Less than half,Few,None,Most,All,Many,-0.413296389,-0.262880898,1,0,0,QQQ9,,,,,,,,English,2020-07-02_11h01.59.659,Experiment_English,3.2.4,Win32,60,,,,,,,,,,,,,,,,,,,,,1,0,340,232,1,339,ratio32_9_15_8.png,0.404432155,-0.429085886,1,0,0,continue_button_pause,1,0,1,0,1,0
,,,,,,,,,,,,,,,,,,,,,,,,,,,,,,,,,,English,2020-07-02_11h01.59.659,Experiment_English,3.2.4,Win32,60,,,,,,,,,,,,,,,,,,,,,1,0,340,232,1,339,ratio32_9_15_8.png,,,,,,,,,,,,
,,,,,,,,,,,,More than half,Some,All,None,Less than half,Few,Many,Most,Half,-0.445429354,-0.070083179,1,0,0,QQQ8,,,,,,,,English,2020-07-02_11h01.59.659,Experiment_English,3.2.4,Win32,60,,,,,,,,,,,,,,,,,,,,,1,0,340,276,1,339,ratio41_16_20_4.png,,,,,,,,,,,,
,,,,,,,,,,,,Most,Less than half,None,Some,All,More than half,Few,Half,Many,-0.517451515,0.297783931,1,0,0,QQQ7,,,,,,,,English,2020-07-02_11h01.59.659,Experiment_English,3.2.4,Win32,60,,,,,,,,,,,,,,,,,,,,,1,0,340,87,1,339,ratio13_2_8_8.png,,,,,,,,,,,,
,,,,,,,,,,,,Many,Less than half,All,Few,Half,More than half,None,Some,Most,-0.517451515,0.297783931,1,0,0,QQQ7,,,,,,,,English,2020-07-02_11h01.59.659,Experiment_English,3.2.4,Win32,60,,,,,,,,,,,,,,,,,,,,,1,0,340,78,1,339,ratio0Y_0_19_1.png,,,,,,,,,,,,
,,,,,,,,,,,,Half,More than half,Few,All,Less than half,Some,Many,Most,None,-0.019944515,0.042936281,1,0,0,QQQ5,,,,,,,,English,2020-07-02_11h01.59.659,Experiment_English,3.2.4,Win32,60,,,,,,,,,,,,,,,,,,,,,1,0,340,114,1,339,ratio14_3_15_10.png,,,,,,,,,,,,
,,,,,,,,,,,,Half,Many,More than half,All,Few,Most,None,Some,Less than half,-0.466481986,0.296675847,1,0,0,QQQ7,,,,,,,,English,2020-07-02_11h01.59.659,Experiment_English,3.2.4,Win32,60,,,,,,,,,,,,,,,,,,,,,1,0,340,71,1,339,ratio0Y_0_12_10.png,,,,,,,,,,,,
,,,,,,,,,,,,More than half,All,Less than half,Some,Many,Half,Most,Few,None,0.404432155,-0.259556798,1,0,0,QQQ3,,,,,,,,English,2020-07-02_11h01.59.659,Experiment_English,3.2.4,Win32,60,,,,,,,,,,,,,,,,,,,,,1,0,340,241,1,339,ratio34_3_7_5.png,,,,,,,,,,,,
,,,,,,,,,,,,More than half,All,Many,Most,Less than half,Half,Some,Few,None,-0.434349021,-0.076731311,1,0,0,QQQ8,,,,,,,,English,2020-07-02_11h01.59.659,Experiment_English,3.2.4,Win32,60,,,,,,,,,,,,,,,,,,,,,1,0,340,132,1,339,ratio15_2_12_16.png,,,,,,,,,,,,
,,,,,,,,,,,,Many,More than half,Some,All,Few,Half,None,Most,Less than half,-0.44432132,-0.231855967,1,0,0,QQQ9,,,,,,,,English,2020-07-02_11h01.59.659,Experiment_English,3.2.4,Win32,60,,,,,,,,,,,,,,,,,,,,,1,0,340,198,1,339,ratio23_8_20_7.png,,,,,,,,,,,,
,,,,,,,,,,,,More than half,Many,Most,Less than half,None,All,Half,Some,Few,0.414404589,0.244598317,1,0,0,QQQ1,,,,,,,,English,2020-07-02_11h01.59.659,Experiment_English,3.2.4,Win32,60,,,,,,,,,,,,,,,,,,,,,1,0,340,226,1,339,ratio32_6_10_5.png,,,,,,,,,,,,
,,,,,,,,,,,,Few,All,Less than half,None,Many,Most,Some,Half,More than half,-0.414404422,-0.271745164,1,0,0,QQQ9,,,,,,,,English,2020-07-02_11h01.59.659,Experiment_English,3.2.4,Win32,60,,,,,,,,,,,,,,,,,,,,,1,0,340,283,1,339,ratio43_4_7_8.png,,,,,,,,,,,,
,,,,,,,,,,,,Few,None,Some,Most,Less than half,Many,More than half,All,Half,0.510803348,-0.280609498,1,0,0,QQQ3,,,,,,,,English,2020-07-02_11h01.59.659,Experiment_English,3.2.4,Win32,60,,,,,,,,,,,,,,,,,,,,,1,0,340,99,1,339,ratio13_5_20_4.png,,,,,,,,,,,,
,,,,,,,,,,,,More than half,Most,Many,Some,None,All,Half,Less than half,Few,0.442105421,0.05955678,1,0,0,QQQ2,,,,,,,,English,2020-07-02_11h01.59.659,Experiment_English,3.2.4,Win32,60,,,,,,,,,,,,,,,,,,,,,1,0,340,216,1,339,ratio31_15_20_3.png,,,,,,,,,,,,
,,,,,,,,,,,,More than half,Half,Some,Most,Few,Many,All,None,Less than half,-0.398891957,-0.248476465,1,0,0,QQQ9,,,,,,,,English,2020-07-02_11h01.59.659,Experiment_English,3.2.4,Win32,60,,,,,,,,,,,,,,,,,,,,,1,0,340,189,1,339,ratio23_4_10_8.png,,,,,,,,,,,,
,,,,,,,,,,,,None,All,Less than half,Some,Most,Half,More than half,Few,Many,-0.476454285,-0.037950147,1,0,0,QQQ8,,,,,,,,English,2020-07-02_11h01.59.659,Experiment_English,3.2.4,Win32,60,,,,,,,,,,,,,,,,,,,,,1,0,340,81,1,339,ratio13_1_4_5.png,,,,,,,,,,,,
,,,,,,,,,,,,Most,All,Half,Less than half,Many,Few,More than half,Some,None,-0.054293614,0.232409951,1,0,0,QQQ4,,,,,,,,English,2020-07-02_11h01.59.659,Experiment_English,3.2.4,Win32,60,,,,,,,,,,,,,,,,,,,,,1,0,340,196,1,339,ratio23_8_20_5.png,,,,,,,,,,,,
,,,,,,,,,,,,Half,None,All,Most,Few,Some,Many,More than half,Less than half,0.037673147,0.333240978,1,0,0,QQQ4,,,,,,,,English,2020-07-02_11h01.59.659,Experiment_English,3.2.4,Win32,60,,,,,,,,,,,,,,,,,,,,,1,0,340,210,1,339,ratio31_9_12_9.png,,,,,,,,,,,,
,,,,,,,,,,,,Few,Some,More than half,Many,Most,None,All,Less than half,Half,0.445429385,-0.33490306,1,0,0,QQQ3,,,,,,,,English,2020-07-02_11h01.59.659,Experiment_English,3.2.4,Win32,60,,,,,,,,,,,,,,,,,,,,,1,0,340,163,1,339,ratio21_4_6_1.png,,,,,,,,,,,,
,,,,,,,,,,,,Half,Some,Less than half,More than half,Few,None,All,Most,Many,-0.448753453,-0.28393353,1,0,0,QQQ9,,,,,,,,English,2020-07-02_11h01.59.659,Experiment_English,3.2.4,Win32,60,,,,,,,,,,,,,,,,,,,,,1,0,340,291,1,339,ratio43_8_14_5.png,,,,,,,,,,,,
,,,,,,,,,,,,Half,None,All,Many,Few,Some,Less than half,Most,More than half,-0.581717444,-0.261772865,1,0,0,QQQ9,,,,,,,,English,2020-07-02_11h01.59.659,Experiment_English,3.2.4,Win32,60,,,,,,,,,,,,,,,,,,,,,1,0,340,223,1,339,ratio32_3_5_5.png,,,,,,,,,,,,
,,,,,,,,,,,,Half,None,Some,Less than half,Few,Many,More than half,Most,All,-0.557340713,0.324376729,1,0,0,QQQ7,,,,,,,,English,2020-07-02_11h01.59.659,Experiment_English,3.2.4,Win32,60,,,,,,,,,,,,,,,,,,,,,1,0,340,164,1,339,ratio21_4_6_6.png,,,,,,,,,,,,
,,,,,,,,,,,,Half,Some,Many,Few,Less than half,More than half,Most,None,All,0.007756316,-0.307202228,1,0,0,QQQ6,,,,,,,,English,2020-07-02_11h01.59.659,Experiment_English,3.2.4,Win32,60,,,,,,,,,,,,,,,,,,,,,1,0,340,160,1,339,ratio21_2_3_2.png,,,,,,,,,,,,
,,,,,,,,,,,,Half,Many,Most,Few,More than half,Less than half,All,Some,None,0.391135756,-0.302770163,1,0,0,QQQ3,,,,,,,,English,2020-07-02_11h01.59.659,Experiment_English,3.2.4,Win32,60,,,,,,,,,,,,,,,,,,,,,1,0,340,307,1,339,ratio51_10_12_1.png,,,,,,,,,,,,
,,,,,,,,,,,,Half,Many,Most,None,Less than half,More than half,Few,Some,All,-0.052077547,-0.025761781,1,0,0,QQQ5,,,,,,,,English,2020-07-02_11h01.59.659,Experiment_English,3.2.4,Win32,60,,,,,,,,,,,,,,,,,,,,,1,0,340,296,1,339,ratio43_8_14_12.png,,,,,,,,,,,,
,,,,,,,,,,,,Most,None,Less than half,Half,Few,Many,All,More than half,Some,0.396675922,0.234626035,1,0,0,QQQ1,,,,,,,,English,2020-07-02_11h01.59.659,Experiment_English,3.2.4,Win32,60,,,,,,,,,,,,,,,,,,,,,1,0,340,200,1,339,ratio31_3_4_4.png,,,,,,,,,,,,
,,,,,,,,,,,,Many,Few,None,All,More than half,Most,Some,Half,Less than half,0.376731323,-0.010249315,1,0,0,QQQ2,,,,,,,,English,2020-07-02_11h01.59.659,Experiment_English,3.2.4,Win32,60,,,,,,,,,,,,,,,,,,,,,1,0,340,143,1,339,ratio19_1_10_9.png,,,,,,,,,,,,
,,,,,,,,,,,,Few,Some,Less than half,More than half,Half,Many,None,All,Most,-0.440997221,-0.345983392,1,0,0,QQQ9,,,,,,,,English,2020-07-02_11h01.59.659,Experiment_English,3.2.4,Win32,60,,,,,,,,,,,,,,,,,,,,,1,0,340,302,1,339,ratio51_5_6_5.png,,,,,,,,,,,,
,,,,,,,,,,,,Few,None,Some,Many,Half,Most,More than half,All,Less than half,-0.002216051,-0.022437681,1,0,0,QQQ5,,,,,,,,English,2020-07-02_11h01.59.659,Experiment_English,3.2.4,Win32,60,,,,,,,,,,,,,,,,,,,,,1,0,340,20,1,339,ratio11_2_4_3.png,,,,,,,,,,,,
,,,,,,,,,,,,All,Some,Many,Few,Less than half,Half,More than half,Most,None,0.013296483,0.294459814,1,0,0,QQQ4,,,,,,,,English,2020-07-02_11h01.59.659,Experiment_English,3.2.4,Win32,60,,,,,,,,,,,,,,,,,,,,,1,0,340,159,1,339,ratio19_2_20_20.png,,,,,,,,,,,,
,,,,,,,,,,,,Some,Less than half,Most,Half,None,Few,More than half,All,Many,0.019944614,-0.285041563,1,0,0,QQQ6,,,,,,,,English,2020-07-02_11h01.59.659,Experiment_English,3.2.4,Win32,60,,,,,,,,,,,,,,,,,,,,,1,0,340,119,1,339,ratio14_4_20_10.png,,,,,,,,,,,,
,,,,,,,,,,,,More than half,All,Most,Some,None,Half,Less than half,Many,Few,0.463157917,-0.285041563,1,0,0,QQQ3,,,,,,,,English,2020-07-02_11h01.59.659,Experiment_English,3.2.4,Win32,60,,,,,,,,,,,,,,,,,,,,,1,0,340,213,1,339,ratio31_12_16_2.png,,,,,,,,,,,,
,,,,,,,,,,,,Some,None,Less than half,Many,All,Half,Few,Most,More than half,-0.004432117,-0.013573449,1,0,0,QQQ5,,,,,,,,English,2020-07-02_11h01.59.659,Experiment_English,3.2.4,Win32,60,,,,,,,,,,,,,,,,,,,,,1,0,340,55,1,339,ratioX0_16_16_3.png,,,,,,,,,,,,
,,,,,,,,,,,,More than half,All,None,Some,Most,Less than half,Few,Half,Many,-0.004432117,-0.012465382,1,0,0,QQQ5,,,,,,,,English,2020-07-02_11h01.59.659,Experiment_English,3.2.4,Win32,60,,,,,,,,,,,,,,,,,,,,,1,0,340,317,1,339,ratio51_15_18_13.png,,,,,,,,,,,,
,,,,,,,,,,,,None,Less than half,Few,All,Some,Many,Half,Most,More than half,-0.006648184,0.240166201,1,0,0,QQQ4,,,,,,,,English,2020-07-02_11h01.59.659,Experiment_English,3.2.4,Win32,60,,,,,,,,,,,,,,,,,,,,,1,0,340,49,1,339,ratioX0_11_11_2.png,,,,,,,,,,,,
,,,,,,,,,,,,Few,Many,None,Less than half,Some,All,Half,Most,More than half,-0.428808855,-0.050138512,1,0,0,QQQ8,,,,,,,,English,2020-07-02_11h01.59.659,Experiment_English,3.2.4,Win32,60,,,,,,,,,,,,,,,,,,,,,1,0,340,324,1,339,ratio91_9_10_7.png,0.320221627,-0.37922439,1,0,0,continue_button_pause,1,0,1,0,1,0
,,,,,,,,,,,,,,,,,,,,,,,,,,,,,,,,,,English,2020-07-02_11h01.59.659,Experiment_English,3.2.4,Win32,60,,,,,,,,,,,,,,,,,,,,,1,0,340,324,1,339,ratio91_9_10_7.png,,,,,,,,,,,,
,,,,,,,,,,,,Few,Many,Half,All,Less than half,Most,None,Some,More than half,0.017728548,0.321052629,1,0,0,QQQ4,,,,,,,,English,2020-07-02_11h01.59.659,Experiment_English,3.2.4,Win32,60,,,,,,,,,,,,,,,,,,,,,1,0,340,54,1,339,ratioX0_15_15_5.png,,,,,,,,,,,,
,,,,,,,,,,,,None,Half,Less than half,Most,Few,Some,More than half,Many,All,0.062049878,0.312188363,1,0,0,QQQ4,,,,,,,,English,2020-07-02_11h01.59.659,Experiment_English,3.2.4,Win32,60,,,,,,,,,,,,,,,,,,,,,1,0,340,269,1,339,ratio41_8_10_6.png,,,,,,,,,,,,
,,,,,,,,,,,,Half,Few,All,Most,Less than half,None,Some,More than half,Many,-0.008864183,-0.015789481,1,0,0,QQQ5,,,,,,,,English,2020-07-02_11h01.59.659,Experiment_English,3.2.4,Win32,60,,,,,,,,,,,,,,,,,,,,,1,0,340,19,1,339,ratio12_6_18_9.png,,,,,,,,,,,,
,,,,,,,,,,,,All,More than half,Many,None,Half,Most,Less than half,Few,Some,-0.467590019,-0.018005548,1,0,0,QQQ8,,,,,,,,English,2020-07-02_11h01.59.659,Experiment_English,3.2.4,Win32,60,,,,,,,,,,,,,,,,,,,,,1,0,340,105,1,339,ratio14_2_10_1.png,,,,,,,,,,,,
,,,,,,,,,,,,Many,Some,Few,None,All,Less than half,Half,More than half,Most,-0.462049853,-0.016897515,1,0,0,QQQ8,,,,,,,,English,2020-07-02_11h01.59.659,Experiment_English,3.2.4,Win32,60,,,,,,,,,,,,,,,,,,,,,1,0,340,299,1,339,ratio43_8_14_17.png,,,,,,,,,,,,
,,,,,,,,,,,,Some,Less than half,None,Many,More than half,All,Half,Most,Few,-0.043213281,-0.021329648,1,0,0,QQQ5,,,,,,,,English,2020-07-02_11h01.59.659,Experiment_English,3.2.4,Win32,60,,,,,,,,,,,,,,,,,,,,,1,0,340,34,1,339,ratio11_8_16_8.png,,,,,,,,,,,,
,,,,,,,,,,,,Few,Most,All,Some,More than half,Less than half,None,Many,Half,-0.029916882,0.302216064,1,0,0,QQQ4,,,,,,,,English,2020-07-02_11h01.59.659,Experiment_English,3.2.4,Win32,60,,,,,,,,,,,,,,,,,,,,,1,0,340,98,1,339,ratio13_5_20_3.png,,,,,,,,,,,,
,,,,,,,,,,,,More than half,None,Most,Few,Half,All,Some,Many,Less than half,0.411080354,0.315512463,1,0,0,QQQ1,,,,,,,,English,2020-07-02_11h01.59.659,Experiment_English,3.2.4,Win32,60,,,,,,,,,,,,,,,,,,,,,1,0,340,202,1,339,ratio31_3_4_8.png,,,,,,,,,,,,
,,,,,,,,,,,,More than half,None,Some,Many,All,Few,Most,Half,Less than half,-0.508587216,0.214681436,1,0,0,QQQ7,,,,,,,,English,2020-07-02_11h01.59.659,Experiment_English,3.2.4,Win32,60,,,,,,,,,,,,,,,,,,,,,1,0,340,327,1,339,ratio91_9_10_11.png,,,,,,,,,,,,
,,,,,,,,,,,,Less than half,Some,Most,More than half,All,None,Few,Many,Half,0.444321352,-0.024653781,1,0,0,QQQ2,,,,,,,,English,2020-07-02_11h01.59.659,Experiment_English,3.2.4,Win32,60,,,,,,,,,,,,,,,,,,,,,1,0,340,88,1,339,ratio13_3_12_5.png,,,,,,,,,,,,
,,,,,,,,,,,,Half,Few,None,More than half,Less than half,Some,All,Many,Most,0.416620521,0.219113518,1,0,0,QQQ1,,,,,,,,English,2020-07-02_11h01.59.659,Experiment_English,3.2.4,Win32,60,,,,,,,,,,,,,,,,,,,,,1,0,340,285,1,339,ratio43_4_7_14.png,,,,,,,,,,,,
,,,,,,,,,,,,Less than half,Half,Most,All,Many,Some,Few,None,More than half,0.416620521,0.219113518,1,0,0,QQQ1,,,,,,,,English,2020-07-02_11h01.59.659,Experiment_English,3.2.4,Win32,60,,,,,,,,,,,,,,,,,,,,,1,0,340,259,1,339,ratio34_6_14_19.png,,,,,,,,,,,,
,,,,,,,,,,,,All,None,Some,Less than half,Many,More than half,Most,Few,Half,-0.49196675,0.24681435,1,0,0,QQQ7,,,,,,,,English,2020-07-02_11h01.59.659,Experiment_English,3.2.4,Win32,60,,,,,,,,,,,,,,,,,,,,,1,0,340,265,1,339,ratio41_8_10_1.png,,,,,,,,,,,,
,,,,,,,,,,,,All,Half,Less than half,Some,More than half,Most,None,Few,Many,0.392243924,-0.238504166,1,0,0,QQQ3,,,,,,,,English,2020-07-02_11h01.59.659,Experiment_English,3.2.4,Win32,60,,,,,,,,,,,,,,,,,,,,,1,0,340,11,1,339,ratio12_4_12_7.png,,,,,,,,,,,,
,,,,,,,,,,,,Some,Many,None,More than half,Most,All,Half,Less than half,Few,-0.078670345,0.306648197,1,0,0,QQQ4,,,,,,,,English,2020-07-02_11h01.59.659,Experiment_English,3.2.4,Win32,60,,,,,,,,,,,,,,,,,,,,,1,0,340,310,1,339,ratio51_10_12_12.png,,,,,,,,,,,,
,,,,,,,,,,,,Less than half,None,All,Many,Half,Some,Few,Most,More than half,-0.039889181,-0.08337951,1,0,0,QQQ5,,,,,,,,English,2020-07-02_11h01.59.659,Experiment_English,3.2.4,Win32,60,,,,,,,,,,,,,,,,,,,,,1,0,340,227,1,339,ratio32_6_10_6.png,,,,,,,,,,,,
,,,,,,,,,,,,Most,Many,All,Some,Half,None,More than half,Few,Less than half,0.416620521,-0.279501397,1,0,0,QQQ3,,,,,,,,English,2020-07-02_11h01.59.659,Experiment_English,3.2.4,Win32,60,,,,,,,,,,,,,,,,,,,,,1,0,340,41,1,339,ratioX0_4_4_9.png,,,,,,,,,,,,
,,,,,,,,,,,,Less than half,Many,More than half,All,Half,Most,Few,None,Some,0.03878118,0.016343483,1,0,0,QQQ5,,,,,,,,English,2020-07-02_11h01.59.659,Experiment_English,3.2.4,Win32,60,,,,,,,,,,,,,,,,,,,,,1,0,340,22,1,339,ratio11_3_6_6.png,,,,,,,,,,,,
,,,,,,,,,,,,Most,Half,Many,Few,Less than half,More than half,None,Some,All,-0.011080317,0.331024928,1,0,0,QQQ4,,,,,,,,English,2020-07-02_11h01.59.659,Experiment_English,3.2.4,Win32,60,,,,,,,,,,,,,,,,,,,,,1,0,340,156,1,339,ratio19_2_20_14.png,,,,,,,,,,,,
,,,,,,,,,,,,Many,Less than half,Half,More than half,Few,All,None,Some,Most,-0.017728516,-0.030193948,1,0,0,QQQ5,,,,,,,,English,2020-07-02_11h01.59.659,Experiment_English,3.2.4,Win32,60,,,,,,,,,,,,,,,,,,,,,1,0,340,151,1,339,ratio19_2_20_4.png,,,,,,,,,,,,
,,,,,,,,,,,,More than half,None,Most,Less than half,Few,Some,Many,Half,All,-0.026592782,-0.031301947,1,0,0,QQQ5,,,,,,,,English,2020-07-02_11h01.59.659,Experiment_English,3.2.4,Win32,60,,,,,,,,,,,,,,,,,,,,,1,0,340,110,1,339,ratio14_3_15_2.png,,,,,,,,,,,,
,,,,,,,,,,,,Some,More than half,Less than half,Most,Half,All,Few,Many,None,0.493074815,-0.300554029,1,0,0,QQQ3,,,,,,,,English,2020-07-02_11h01.59.659,Experiment_English,3.2.4,Win32,60,,,,,,,,,,,,,,,,,,,,,1,0,340,35,1,339,ratio11_8_16_10.png,,,,,,,,,,,,
,,,,,,,,,,,,All,More than half,Some,None,Few,Half,Most,Many,Less than half,0.42659282,-0.043490313,1,0,0,QQQ2,,,,,,,,English,2020-07-02_11h01.59.659,Experiment_English,3.2.4,Win32,60,,,,,,,,,,,,,,,,,,,,,1,0,340,235,1,339,ratio32_12_20_1.png,,,,,,,,,,,,
,,,,,,,,,,,,Few,Some,All,Half,Many,Most,Less than half,More than half,None,-0.415512456,0.270083099,1,0,0,QQQ7,,,,,,,,English,2020-07-02_11h01.59.659,Experiment_English,3.2.4,Win32,60,,,,,,,,,,,,,,,,,,,,,1,0,340,2,1,339,ratio12_1_3_10.png,,,,,,,,,,,,
,,,,,,,,,,,,Half,Few,Some,Most,All,Less than half,More than half,Many,None,0.404432155,-0.03240998,1,0,0,QQQ2,,,,,,,,English,2020-07-02_11h01.59.659,Experiment_English,3.2.4,Win32,60,,,,,,,,,,,,,,,,,,,,,1,0,340,140,1,339,ratio19_1_10_1.png,,,,,,,,,,,,
,,,,,,,,,,,,None,Many,Most,Less than half,Few,Half,All,Some,More than half,0.001108049,0.24681435,1,0,0,QQQ4,,,,,,,,English,2020-07-02_11h01.59.659,Experiment_English,3.2.4,Win32,60,,,,,,,,,,,,,,,,,,,,,1,0,340,195,1,339,ratio23_8_20_1.png,,,,,,,,,,,,
,,,,,,,,,,,,Most,Half,Less than half,More than half,All,Many,Some,Few,None,-0.032132949,-0.016897515,1,0,0,QQQ5,,,,,,,,English,2020-07-02_11h01.59.659,Experiment_English,3.2.4,Win32,60,,,,,,,,,,,,,,,,,,,,,1,0,340,46,1,339,ratioX0_9_9_3.png,,,,,,,,,,,,
,,,,,,,,,,,,Many,More than half,Some,All,Most,Few,Less than half,None,Half,-0.422160655,0.218005536,1,0,0,QQQ7,,,,,,,,English,2020-07-02_11h01.59.659,Experiment_English,3.2.4,Win32,60,,,,,,,,,,,,,,,,,,,,,1,0,340,96,1,339,ratio13_5_20_1.png,,,,,,,,,,,,
,,,,,,,,,,,,Half,Less than half,Few,Most,All,Some,None,More than half,Many,-0.392243757,-0.035734114,1,0,0,QQQ8,,,,,,,,English,2020-07-02_11h01.59.659,Experiment_English,3.2.4,Win32,60,,,,,,,,,,,,,,,,,,,,,1,0,340,229,1,339,ratio32_6_10_9.png,,,,,,,,,,,,
,,,,,,,,,,,,All,Half,None,Most,Few,Many,Some,Less than half,More than half,0.034349047,0.261218816,1,0,0,QQQ4,,,,,,,,English,2020-07-02_11h01.59.659,Experiment_English,3.2.4,Win32,60,,,,,,,,,,,,,,,,,,,,,1,0,340,316,1,339,ratio51_15_18_11.png,,,,,,,,,,,,
,,,,,,,,,,,,Some,Half,Few,Less than half,Many,All,Most,More than half,None,0.467590051,-0.313850495,1,0,0,QQQ3,,,,,,,,English,2020-07-02_11h01.59.659,Experiment_English,3.2.4,Win32,60,,,,,,,,,,,,,,,,,,,,,1,0,340,128,1,339,ratio15_2_12_8.png,,,,,,,,,,,,
,,,,,,,,,,,,Less than half,Few,More than half,Some,Half,None,Most,Many,All,0.530748081,0.268975015,1,0,0,QQQ1,,,,,,,,English,2020-07-02_11h01.59.659,Experiment_English,3.2.4,Win32,60,,,,,,,,,,,,,,,,,,,,,1,0,340,1,1,339,ratio12_1_3_7.png,,,,,,,,,,,,
,,,,,,,,,,,,Less than half,Half,None,Most,Many,More than half,Few,Some,All,0.081994477,0.296675847,1,0,0,QQQ4,,,,,,,,English,2020-07-02_11h01.59.659,Experiment_English,3.2.4,Win32,60,,,,,,,,,,,,,,,,,,,,,1,0,340,168,1,339,ratio21_6_9_3.png,,,,,,,,,,,,
,,,,,,,,,,,,Half,Few,Less than half,More than half,Many,None,All,Most,Some,0.447645587,-0.234072033,1,0,0,QQQ3,,,,,,,,English,2020-07-02_11h01.59.659,Experiment_English,3.2.4,Win32,60,,,,,,,,,,,,,,,,,,,,,1,0,340,184,1,339,ratio23_2_5_10.png,,,,,,,,,,,,
