continue_mouse.x,continue_mouse.y,continue_mouse.leftButton,continue_mouse.midButton,continue_mouse.rightButton,continue_mouse.clicked_name,continue_mouse_2.x,continue_mouse_2.y,continue_mouse_2.leftButton,continue_mouse_2.midButton,continue_mouse_2.rightButton,continue_mouse_2.clicked_name,Q1,Q2,Q3,Q4,Q5,Q6,Q7,Q8,Q9,select_answer.x,select_answer.y,select_answer.leftButton,select_answer.midButton,select_answer.rightButton,select_answer.clicked_name,trial.thisRepN,trial.thisTrialN,trial.thisN,trial.thisIndex,trial.ran,trial.order,trials,Native tongue*,date,expName,psychopyVersion,OS,frameRate,key_resp.keys,key_resp.rt,Actual_Experiment.thisRepN,Actual_Experiment.thisTrialN,Actual_Experiment.thisN,Actual_Experiment.thisIndex,Actual_Experiment.ran,Actual_Experiment.order,Pic,mouse_pause.x,mouse_pause.y,mouse_pause.leftButton,mouse_pause.midButton,mouse_pause.rightButton,mouse_pause.clicked_name,pause.thisRepN,pause.thisTrialN,pause.thisN,pause.thisIndex,pause.ran,pause.order
0.293233507,-0.432287326,1,0,0,continue_button,0.301892361,-0.406614583,1,0,0,continue_button_2,Half,Some,All,Most,Few,Less than half,Many,More than half,None,0.015625,0.35375,1,0,0,QQQ4,1,0,16,1,1,15,ratio51_5_6_8.png,English,2020-07-02_10h58.52.595,Experiment_English,3.2.4,MacIntel,60,,,,,,,,,,,,,,,,,,,,,
,,,,,,,,,,,,More than half,None,Half,Some,Most,Less than half,Many,Few,All,-0.428033854,-0.004240451,1,0,0,QQQ8,1,0,16,9,1,15,ratio19_1_10_8.png,English,2020-07-02_10h58.52.595,Experiment_English,3.2.4,MacIntel,60,,,,,,,,,,,,,,,,,,,,,
,,,,,,,,,,,,None,Few,Some,Most,Half,More than half,Many,All,Less than half,0.111662326,0.012938368,1,0,0,QQQ5,1,0,16,7,1,15,ratio23_2_5_8.png,English,2020-07-02_10h58.52.595,Experiment_English,3.2.4,MacIntel,60,,,,,,,,,,,,,,,,,,,,,
,,,,,,,,,,,,Half,None,More than half,Less than half,Most,Few,Many,Some,All,0.436514757,-0.321475694,1,0,0,QQQ3,1,0,16,2,1,15,ratio43_8_14_19.png,English,2020-07-02_10h58.52.595,Experiment_English,3.2.4,MacIntel,60,,,,,,,,,,,,,,,,,,,,,
,,,,,,,,,,,,Most,None,Half,Less than half,Few,More than half,Many,Some,All,0.456657986,-0.028463542,1,0,0,QQQ2,1,0,16,15,1,15,ratio0Y_0_14_10.png,English,2020-07-02_10h58.52.595,Experiment_English,3.2.4,MacIntel,60,,,,,,,,,,,,,,,,,,,,,
,,,,,,,,,,,,Half,None,Less than half,All,Many,Some,Most,Few,More than half,-0.398849826,-0.365794271,1,0,0,QQQ9,,,,,,,,English,2020-07-02_10h58.52.595,Experiment_English,3.2.4,MacIntel,60,b,10.92600012,1,0,340,37,1,339,ratio11_9_18_8.png,,,,,,,,,,,,
,,,,,,,,,,,,Many,Less than half,All,Few,Most,Half,None,Some,More than half,-0.469483507,0.247456597,1,0,0,QQQ7,,,,,,,,English,2020-07-02_10h58.52.595,Experiment_English,3.2.4,MacIntel,60,,,1,0,340,65,1,339,ratio0Y_0_8_4.png,,,,,,,,,,,,
,,,,,,,,,,,,All,Few,None,Many,Less than half,Some,Half,Most,More than half,-0.428181424,-0.298198785,1,0,0,QQQ9,,,,,,,,English,2020-07-02_10h58.52.595,Experiment_English,3.2.4,MacIntel,60,,,1,0,340,235,1,339,ratio32_12_20_1.png,,,,,,,,,,,,
,,,,,,,,,,,,Many,More than half,Few,All,Some,Most,Less than half,Half,None,-0.498576389,-0.312886285,1,0,0,QQQ9,,,,,,,,English,2020-07-02_10h58.52.595,Experiment_English,3.2.4,MacIntel,60,,,1,0,340,78,1,339,ratio0Y_0_19_1.png,,,,,,,,,,,,
,,,,,,,,,,,,None,More than half,Few,Half,Many,Less than half,Most,All,Some,-0.065208333,0.335412326,1,0,0,QQQ4,,,,,,,,English,2020-07-02_10h58.52.595,Experiment_English,3.2.4,MacIntel,60,,,1,0,340,240,1,339,ratio34_3_7_4.png,,,,,,,,,,,,
,,,,,,,,,,,,Less than half,None,Half,Many,More than half,Few,Most,All,Some,-0.368927951,0.008159722,1,0,0,QQQ8,,,,,,,,English,2020-07-02_10h58.52.595,Experiment_English,3.2.4,MacIntel,60,,,1,0,340,58,1,339,ratioX0_19_19_4.png,,,,,,,,,,,,
,,,,,,,,,,,,All,Half,Some,Most,None,Many,More than half,Less than half,Few,0.580125868,-0.032039931,1,0,0,QQQ2,,,,,,,,English,2020-07-02_10h58.52.595,Experiment_English,3.2.4,MacIntel,60,,,1,0,340,248,1,339,ratio34_3_7_19.png,,,,,,,,,,,,
,,,,,,,,,,,,Most,More than half,Many,Some,Half,None,All,Less than half,Few,-0.507934028,0.318997396,1,0,0,QQQ7,,,,,,,,English,2020-07-02_10h58.52.595,Experiment_English,3.2.4,MacIntel,60,,,1,0,340,43,1,339,ratioX0_6_6_9.png,,,,,,,,,,,,
,,,,,,,,,,,,Many,Some,None,Less than half,Most,Few,More than half,Half,All,-0.033372396,-0.003246528,1,0,0,QQQ5,,,,,,,,English,2020-07-02_10h58.52.595,Experiment_English,3.2.4,MacIntel,60,,,1,0,340,260,1,339,ratio41_4_5_2.png,,,,,,,,,,,,
,,,,,,,,,,,,Most,Some,Half,None,Less than half,All,More than half,Many,Few,-0.413107639,0.289900174,1,0,0,QQQ7,,,,,,,,English,2020-07-02_10h58.52.595,Experiment_English,3.2.4,MacIntel,60,,,1,0,340,224,1,339,ratio32_3_5_10.png,,,,,,,,,,,,
,,,,,,,,,,,,More than half,Some,Many,Most,Few,None,All,Half,Less than half,0.002560764,-0.027934028,1,0,0,QQQ5,,,,,,,,English,2020-07-02_10h58.52.595,Experiment_English,3.2.4,MacIntel,60,,,1,0,340,17,1,339,ratio12_6_18_5.png,,,,,,,,,,,,
,,,,,,,,,,,,Less than half,Most,All,Some,None,Few,Many,More than half,Half,-0.371840278,-0.013710937,1,0,0,QQQ8,,,,,,,,English,2020-07-02_10h58.52.595,Experiment_English,3.2.4,MacIntel,60,,,1,0,340,168,1,339,ratio21_6_9_3.png,,,,,,,,,,,,
,,,,,,,,,,,,Few,Half,None,All,Most,Some,Many,Less than half,More than half,0.027100694,-0.025902778,1,0,0,QQQ5,,,,,,,,English,2020-07-02_10h58.52.595,Experiment_English,3.2.4,MacIntel,60,,,1,0,340,269,1,339,ratio41_8_10_6.png,,,,,,,,,,,,
,,,,,,,,,,,,Some,Few,Many,All,Most,Less than half,More than half,None,Half,-0.447421875,0.273363715,1,0,0,QQQ7,,,,,,,,English,2020-07-02_10h58.52.595,Experiment_English,3.2.4,MacIntel,60,,,1,0,340,255,1,339,ratio34_6_14_10.png,,,,,,,,,,,,
,,,,,,,,,,,,Few,Many,Some,None,More than half,Most,Half,All,Less than half,-0.046536458,-0.009461806,1,0,0,QQQ5,,,,,,,,English,2020-07-02_10h58.52.595,Experiment_English,3.2.4,MacIntel,60,,,1,0,340,328,1,339,ratio91_9_10_15.png,,,,,,,,,,,,
,,,,,,,,,,,,Most,More than half,Few,Many,Some,Half,None,Less than half,All,0.503207465,0.307044271,1,0,0,QQQ1,,,,,,,,English,2020-07-02_10h58.52.595,Experiment_English,3.2.4,MacIntel,60,,,1,0,340,200,1,339,ratio31_3_4_4.png,,,,,,,,,,,,
,,,,,,,,,,,,None,Most,Many,Few,All,More than half,Less than half,Half,Some,0.477638889,-0.236918403,1,0,0,QQQ3,,,,,,,,English,2020-07-02_10h58.52.595,Experiment_English,3.2.4,MacIntel,60,,,1,0,340,174,1,339,ratio21_10_15_1.png,,,,,,,,,,,,
,,,,,,,,,,,,Many,Most,More than half,Some,Less than half,None,Few,All,Half,0.473003472,-0.275585937,1,0,0,QQQ3,,,,,,,,English,2020-07-02_10h58.52.595,Experiment_English,3.2.4,MacIntel,60,,,1,0,340,213,1,339,ratio31_12_16_2.png,,,,,,,,,,,,
,,,,,,,,,,,,Less than half,Most,None,Half,Some,Few,All,Many,More than half,-0.471688368,0.006536458,1,0,0,QQQ8,,,,,,,,English,2020-07-02_10h58.52.595,Experiment_English,3.2.4,MacIntel,60,,,1,0,340,271,1,339,ratio41_12_15_6.png,,,,,,,,,,,,
,,,,,,,,,,,,Less than half,All,Few,Most,None,Some,Many,Half,More than half,-0.022521701,0.297864583,1,0,0,QQQ4,,,,,,,,English,2020-07-02_10h58.52.595,Experiment_English,3.2.4,MacIntel,60,,,1,0,340,324,1,339,ratio91_9_10_7.png,,,,,,,,,,,,
,,,,,,,,,,,,Most,Few,Many,More than half,Some,Less than half,Half,None,All,0.535026042,-0.295729167,1,0,0,QQQ3,,,,,,,,English,2020-07-02_10h58.52.595,Experiment_English,3.2.4,MacIntel,60,,,1,0,340,211,1,339,ratio31_9_12_10.png,,,,,,,,,,,,
,,,,,,,,,,,,None,Most,Some,Many,Less than half,All,Half,Few,More than half,0.514027778,-0.004040799,1,0,0,QQQ2,,,,,,,,English,2020-07-02_10h58.52.595,Experiment_English,3.2.4,MacIntel,60,,,1,0,340,266,1,339,ratio41_8_10_2.png,,,,,,,,,,,,
,,,,,,,,,,,,Many,Most,Less than half,All,Half,Few,Some,More than half,None,0.059335937,-0.051857639,1,0,0,QQQ5,,,,,,,,English,2020-07-02_10h58.52.595,Experiment_English,3.2.4,MacIntel,60,,,1,0,340,24,1,339,ratio11_4_8_3.png,,,,,,,,,,,,
,,,,,,,,,,,,Some,Less than half,More than half,Many,Half,Most,All,Few,None,0.049357639,0.322170139,1,0,0,QQQ4,,,,,,,,English,2020-07-02_10h58.52.595,Experiment_English,3.2.4,MacIntel,60,,,1,0,340,273,1,339,ratio41_12_15_8.png,,,,,,,,,,,,
,,,,,,,,,,,,Few,Most,Many,All,Less than half,More than half,Half,Some,None,0.587447917,-3.03819E-05,1,0,0,QQQ2,,,,,,,,English,2020-07-02_10h58.52.595,Experiment_English,3.2.4,MacIntel,60,,,1,0,340,332,1,339,ratio91_18_20_4.png,,,,,,,,,,,,
,,,,,,,,,,,,Less than half,Most,None,Half,Some,Many,More than half,All,Few,0.576388889,-0.003819444,1,0,0,QQQ2,,,,,,,,English,2020-07-02_10h58.52.595,Experiment_English,3.2.4,MacIntel,60,,,1,0,340,334,1,339,ratio91_18_20_9.png,,,,,,,,,,,,
,,,,,,,,,,,,Most,Half,Some,Less than half,None,Few,All,Many,More than half,-0.382803819,-0.23640625,1,0,0,QQQ9,,,,,,,,English,2020-07-02_10h58.52.595,Experiment_English,3.2.4,MacIntel,60,,,1,0,340,291,1,339,ratio43_8_14_5.png,,,,,,,,,,,,
,,,,,,,,,,,,Few,None,All,Many,More than half,Most,Half,Some,Less than half,-0.353723958,-0.330360243,1,0,0,QQQ9,,,,,,,,English,2020-07-02_10h58.52.595,Experiment_English,3.2.4,MacIntel,60,,,1,0,340,187,1,339,ratio23_4_10_5.png,,,,,,,,,,,,
,,,,,,,,,,,,All,Less than half,Some,Many,Most,None,More than half,Few,Half,-0.096263021,-0.032547743,1,0,0,QQQ5,,,,,,,,English,2020-07-02_10h58.52.595,Experiment_English,3.2.4,MacIntel,60,,,1,0,340,321,1,339,ratio91_9_10_2.png,,,,,,,,,,,,
,,,,,,,,,,,,Half,None,All,Many,Some,Most,Few,Less than half,More than half,0.513967014,0.331423611,1,0,0,QQQ1,,,,,,,,English,2020-07-02_10h58.52.595,Experiment_English,3.2.4,MacIntel,60,,,1,0,340,297,1,339,ratio43_8_14_13.png,,,,,,,,,,,,
,,,,,,,,,,,,Some,None,Most,All,Half,Less than half,More than half,Few,Many,-0.394244792,0.008255208,1,0,0,QQQ8,,,,,,,,English,2020-07-02_10h58.52.595,Experiment_English,3.2.4,MacIntel,60,,,1,0,340,114,1,339,ratio14_3_15_10.png,,,,,,,,,,,,
,,,,,,,,,,,,Most,All,More than half,Few,Less than half,Half,None,Some,Many,0.404327257,0.015924479,1,0,0,QQQ2,,,,,,,,English,2020-07-02_10h58.52.595,Experiment_English,3.2.4,MacIntel,60,,,1,0,340,48,1,339,ratioX0_10_10_1.png,,,,,,,,,,,,
,,,,,,,,,,,,Some,Many,Most,Half,All,Few,Less than half,None,More than half,0.504448785,0.269613715,1,0,0,QQQ1,,,,,,,,English,2020-07-02_10h58.52.595,Experiment_English,3.2.4,MacIntel,60,,,1,0,340,115,1,339,ratio14_4_20_1.png,,,,,,,,,,,,
,,,,,,,,,,,,Some,None,Few,Less than half,Many,Most,Half,More than half,All,0.397113715,0.222764757,1,0,0,QQQ1,,,,,,,,English,2020-07-02_10h58.52.595,Experiment_English,3.2.4,MacIntel,60,,,1,0,340,109,1,339,ratio14_2_10_9.png,0.318229167,-0.362547743,1,0,0,continue_button_pause,1,0,1,0,1,0
,,,,,,,,,,,,,,,,,,,,,,,,,,,,,,,,,,English,2020-07-02_10h58.52.595,Experiment_English,3.2.4,MacIntel,60,,,1,0,340,109,1,339,ratio14_2_10_9.png,,,,,,,,,,,,
,,,,,,,,,,,,Many,Few,None,Most,More than half,Less than half,Some,Half,All,0.079657118,-0.067686632,1,0,0,QQQ5,,,,,,,,English,2020-07-02_10h58.52.595,Experiment_English,3.2.4,MacIntel,60,,,1,0,340,284,1,339,ratio43_4_7_11.png,,,,,,,,,,,,
,,,,,,,,,,,,Many,Half,All,None,Few,Some,More than half,Most,Less than half,-0.409266493,-0.021440972,1,0,0,QQQ8,,,,,,,,English,2020-07-02_10h58.52.595,Experiment_English,3.2.4,MacIntel,60,,,1,0,340,338,1,339,ratio91_18_20_18.png,,,,,,,,,,,,
,,,,,,,,,,,,Some,More than half,Most,Few,Half,None,All,Less than half,Many,0.024032118,0.297148437,1,0,0,QQQ4,,,,,,,,English,2020-07-02_10h58.52.595,Experiment_English,3.2.4,MacIntel,60,,,1,0,340,156,1,339,ratio19_2_20_14.png,,,,,,,,,,,,
,,,,,,,,,,,,Most,More than half,Few,All,Many,Some,Half,None,Less than half,-0.46734809,0.271436632,1,0,0,QQQ7,,,,,,,,English,2020-07-02_10h58.52.595,Experiment_English,3.2.4,MacIntel,60,,,1,0,340,256,1,339,ratio34_6_14_11.png,,,,,,,,,,,,
,,,,,,,,,,,,Some,None,All,Few,Half,Less than half,Most,Many,More than half,0.083741319,0.005052083,1,0,0,QQQ5,,,,,,,,English,2020-07-02_10h58.52.595,Experiment_English,3.2.4,MacIntel,60,,,1,0,340,294,1,339,ratio43_8_14_9.png,,,,,,,,,,,,
,,,,,,,,,,,,Half,Less than half,Few,All,More than half,Some,Many,None,Most,0.496701389,0.34359375,1,0,0,QQQ1,,,,,,,,English,2020-07-02_10h58.52.595,Experiment_English,3.2.4,MacIntel,60,,,1,0,340,21,1,339,ratio11_2_4_10.png,,,,,,,,,,,,
,,,,,,,,,,,,Most,Less than half,More than half,Half,All,None,Many,Some,Few,0.583836806,0.010494792,1,0,0,QQQ2,,,,,,,,English,2020-07-02_10h58.52.595,Experiment_English,3.2.4,MacIntel,60,,,1,0,340,97,1,339,ratio13_5_20_2.png,,,,,,,,,,,,
,,,,,,,,,,,,Many,Most,Few,Less than half,Some,More than half,All,None,Half,-0.081592882,-0.026749132,1,0,0,QQQ5,,,,,,,,English,2020-07-02_10h58.52.595,Experiment_English,3.2.4,MacIntel,60,,,1,0,340,107,1,339,ratio14_2_10_5.png,,,,,,,,,,,,
,,,,,,,,,,,,Less than half,Half,Few,Many,None,Most,Some,All,More than half,0.433038194,-0.250837674,1,0,0,QQQ3,,,,,,,,English,2020-07-02_10h58.52.595,Experiment_English,3.2.4,MacIntel,60,,,1,0,340,0,1,339,ratio12_1_3_3.png,,,,,,,,,,,,
,,,,,,,,,,,,Many,None,Most,Less than half,More than half,Half,All,Some,Few,0.413862847,0.009986979,1,0,0,QQQ2,,,,,,,,English,2020-07-02_10h58.52.595,Experiment_English,3.2.4,MacIntel,60,,,1,0,340,64,1,339,ratio0Y_0_7_1.png,,,,,,,,,,,,
,,,,,,,,,,,,Less than half,Most,Few,Some,More than half,None,Half,Many,All,0.027617188,-0.007083333,1,0,0,QQQ5,,,,,,,,English,2020-07-02_10h58.52.595,Experiment_English,3.2.4,MacIntel,60,,,1,0,340,221,1,339,ratio32_3_5_3.png,,,,,,,,,,,,
,,,,,,,,,,,,None,Most,Many,All,Half,Some,More than half,Less than half,Few,0.027617188,-0.007083333,1,0,0,QQQ5,,,,,,,,English,2020-07-02_10h58.52.595,Experiment_English,3.2.4,MacIntel,60,,,1,0,340,36,1,339,ratio11_9_18_1.png,,,,,,,,,,,,
,,,,,,,,,,,,Many,Less than half,Some,Half,All,Most,More than half,Few,None,0.016115451,-0.26453125,1,0,0,QQQ6,,,,,,,,English,2020-07-02_10h58.52.595,Experiment_English,3.2.4,MacIntel,60,,,1,0,340,322,1,339,ratio91_9_10_3.png,,,,,,,,,,,,
,,,,,,,,,,,,Some,Less than half,Many,All,Half,More than half,None,Few,Most,0.531345486,-0.261141493,1,0,0,QQQ3,,,,,,,,English,2020-07-02_10h58.52.595,Experiment_English,3.2.4,MacIntel,60,,,1,0,340,209,1,339,ratio31_9_12_6.png,,,,,,,,,,,,
,,,,,,,,,,,,Some,Many,All,Most,Few,None,Half,Less than half,More than half,0.091119792,-0.024010417,1,0,0,QQQ5,,,,,,,,English,2020-07-02_10h58.52.595,Experiment_English,3.2.4,MacIntel,60,,,1,0,340,81,1,339,ratio13_1_4_5.png,,,,,,,,,,,,
,,,,,,,,,,,,More than half,All,Half,None,Most,Few,Many,Less than half,Some,0.572677951,0.006788194,1,0,0,QQQ2,,,,,,,,English,2020-07-02_10h58.52.595,Experiment_English,3.2.4,MacIntel,60,,,1,0,340,42,1,339,ratioX0_5_5_5.png,,,,,,,,,,,,
,,,,,,,,,,,,Many,Most,None,More than half,Some,Few,Less than half,Half,All,-0.411432292,-0.271189236,1,0,0,QQQ9,,,,,,,,English,2020-07-02_10h58.52.595,Experiment_English,3.2.4,MacIntel,60,,,1,0,340,52,1,339,ratioX0_13_13_10.png,,,,,,,,,,,,
,,,,,,,,,,,,Half,None,Most,All,Some,More than half,Few,Less than half,Many,-0.502265625,-0.031614583,1,0,0,QQQ8,,,,,,,,English,2020-07-02_10h58.52.595,Experiment_English,3.2.4,MacIntel,60,,,1,0,340,98,1,339,ratio13_5_20_3.png,,,,,,,,,,,,
,,,,,,,,,,,,Many,Most,All,Some,Few,Less than half,More than half,None,Half,-0.00390191,-0.007430556,1,0,0,QQQ5,,,,,,,,English,2020-07-02_10h58.52.595,Experiment_English,3.2.4,MacIntel,60,,,1,0,340,140,1,339,ratio19_1_10_1.png,,,,,,,,,,,,
,,,,,,,,,,,,Many,Few,Most,All,None,Half,Some,More than half,Less than half,-0.047738715,-0.264609375,1,0,0,QQQ6,,,,,,,,English,2020-07-02_10h58.52.595,Experiment_English,3.2.4,MacIntel,60,,,1,0,340,32,1,339,ratio11_7_14_5.png,,,,,,,,,,,,
,,,,,,,,,,,,All,Some,Many,None,Few,Most,More than half,Less than half,Half,0.482782118,-0.267547743,1,0,0,QQQ3,,,,,,,,English,2020-07-02_10h58.52.595,Experiment_English,3.2.4,MacIntel,60,,,1,0,340,169,1,339,ratio21_6_9_7.png,,,,,,,,,,,,
,,,,,,,,,,,,Many,Some,All,None,Few,Less than half,Most,More than half,Half,0.031805556,0.047478299,1,0,0,QQQ5,,,,,,,,English,2020-07-02_10h58.52.595,Experiment_English,3.2.4,MacIntel,60,,,1,0,340,139,1,339,ratio15_3_18_20.png,,,,,,,,,,,,
,,,,,,,,,,,,Few,All,Most,Less than half,Many,Some,Half,More than half,None,-0.018993056,-0.280091146,1,0,0,QQQ6,,,,,,,,English,2020-07-02_10h58.52.595,Experiment_English,3.2.4,MacIntel,60,,,1,0,340,150,1,339,ratio19_2_20_1.png,,,,,,,,,,,,
,,,,,,,,,,,,Most,Many,Few,All,More than half,None,Less than half,Some,Half,0.405772569,-0.277847222,1,0,0,QQQ3,,,,,,,,English,2020-07-02_10h58.52.595,Experiment_English,3.2.4,MacIntel,60,,,1,0,340,189,1,339,ratio23_4_10_8.png,,,,,,,,,,,,
,,,,,,,,,,,,Some,Most,Half,Few,None,All,Many,More than half,Less than half,-0.019179688,0.313263889,1,0,0,QQQ4,,,,,,,,English,2020-07-02_10h58.52.595,Experiment_English,3.2.4,MacIntel,60,,,1,0,340,122,1,339,ratio15_1_6_7.png,,,,,,,,,,,,
,,,,,,,,,,,,More than half,Many,All,Few,None,Half,Some,Most,Less than half,-0.412829861,0.26468316,1,0,0,QQQ7,,,,,,,,English,2020-07-02_10h58.52.595,Experiment_English,3.2.4,MacIntel,60,,,1,0,340,92,1,339,ratio13_4_16_3.png,,,,,,,,,,,,
,,,,,,,,,,,,Half,Some,More than half,Many,Most,None,Less than half,All,Few,0.438871528,0.299457465,1,0,0,QQQ1,,,,,,,,English,2020-07-02_10h58.52.595,Experiment_English,3.2.4,MacIntel,60,,,1,0,340,30,1,339,ratio11_6_12_6.png,,,,,,,,,,,,
,,,,,,,,,,,,None,Less than half,Many,Few,Some,Half,All,Most,More than half,0.008702257,0.282148438,1,0,0,QQQ4,,,,,,,,English,2020-07-02_10h58.52.595,Experiment_English,3.2.4,MacIntel,60,,,1,0,340,2,1,339,ratio12_1_3_10.png,,,,,,,,,,,,
,,,,,,,,,,,,Half,More than half,Most,Less than half,None,Many,Few,All,Some,-0.420164931,-0.343602431,1,0,0,QQQ9,,,,,,,,English,2020-07-02_10h58.52.595,Experiment_English,3.2.4,MacIntel,60,,,1,0,340,133,1,339,ratio15_3_18_3.png,,,,,,,,,,,,
,,,,,,,,,,,,Few,Many,Half,Most,Some,None,All,Less than half,More than half,0.007482639,0.290546875,1,0,0,QQQ4,,,,,,,,English,2020-07-02_10h58.52.595,Experiment_English,3.2.4,MacIntel,60,,,1,0,340,305,1,339,ratio51_5_6_14.png,,,,,,,,,,,,
,,,,,,,,,,,,Most,Half,All,Many,More than half,Less than half,Some,Few,None,-0.509921875,-0.059188368,1,0,0,QQQ8,,,,,,,,English,2020-07-02_10h58.52.595,Experiment_English,3.2.4,MacIntel,60,,,1,0,340,148,1,339,ratio19_1_10_19.png,,,,,,,,,,,,
,,,,,,,,,,,,None,More than half,Many,Most,Some,Half,Less than half,Few,All,-0.51375,-0.06171441,1,0,0,QQQ8,,,,,,,,English,2020-07-02_10h58.52.595,Experiment_English,3.2.4,MacIntel,60,,,1,0,340,151,1,339,ratio19_2_20_4.png,,,,,,,,,,,,
,,,,,,,,,,,,None,Many,Few,Half,Some,Most,More than half,All,Less than half,-0.019153646,-0.296657986,1,0,0,QQQ6,,,,,,,,English,2020-07-02_10h58.52.595,Experiment_English,3.2.4,MacIntel,60,,,1,0,340,161,1,339,ratio21_2_3_8.png,,,,,,,,,,,,
,,,,,,,,,,,,Many,All,Less than half,None,More than half,Some,Half,Most,Few,-0.416684028,-0.332703993,1,0,0,QQQ9,,,,,,,,English,2020-07-02_10h58.52.595,Experiment_English,3.2.4,MacIntel,60,,,1,0,340,101,1,339,ratio14_1_5_7.png,0.331267361,-0.362921007,1,0,0,continue_button_pause,1,0,1,0,1,0
,,,,,,,,,,,,,,,,,,,,,,,,,,,,,,,,,,English,2020-07-02_10h58.52.595,Experiment_English,3.2.4,MacIntel,60,,,1,0,340,101,1,339,ratio14_1_5_7.png,,,,,,,,,,,,
,,,,,,,,,,,,Some,All,Half,None,Most,Less than half,More than half,Few,Many,-0.415451389,-0.028198785,1,0,0,QQQ8,,,,,,,,English,2020-07-02_10h58.52.595,Experiment_English,3.2.4,MacIntel,60,,,1,0,340,86,1,339,ratio13_2_8_6.png,,,,,,,,,,,,
,,,,,,,,,,,,None,All,More than half,Some,Many,Less than half,Few,Half,Most,-0.045334201,-0.008224826,1,0,0,QQQ5,,,,,,,,English,2020-07-02_10h58.52.595,Experiment_English,3.2.4,MacIntel,60,,,1,0,340,265,1,339,ratio41_8_10_1.png,,,,,,,,,,,,
,,,,,,,,,,,,Few,Many,Half,Less than half,Most,All,Some,None,More than half,-0.024435764,-0.004301215,1,0,0,QQQ5,,,,,,,,English,2020-07-02_10h58.52.595,Experiment_English,3.2.4,MacIntel,60,,,1,0,340,329,1,339,ratio91_9_10_20.png,,,,,,,,,,,,
,,,,,,,,,,,,All,Many,Some,Less than half,Most,Few,None,Half,More than half,0.512981771,-0.011540799,1,0,0,QQQ2,,,,,,,,English,2020-07-02_10h58.52.595,Experiment_English,3.2.4,MacIntel,60,,,1,0,340,229,1,339,ratio32_6_10_9.png,,,,,,,,,,,,
,,,,,,,,,,,,Less than half,All,Half,Some,Many,Most,Few,None,More than half,0.545946181,0.272465278,1,0,0,QQQ1,,,,,,,,English,2020-07-02_10h58.52.595,Experiment_English,3.2.4,MacIntel,60,,,1,0,340,197,1,339,ratio23_8_20_6.png,,,,,,,,,,,,
,,,,,,,,,,,,Less than half,Most,Half,Few,Some,More than half,Many,None,All,-0.439344618,0.298728299,1,0,0,QQQ7,,,,,,,,English,2020-07-02_10h58.52.595,Experiment_English,3.2.4,MacIntel,60,,,1,0,340,204,1,339,ratio31_6_8_1.png,,,,,,,,,,,,
,,,,,,,,,,,,Few,Some,Most,All,None,More than half,Many,Less than half,Half,-0.439344618,0.298728299,1,0,0,QQQ7,,,,,,,,English,2020-07-02_10h58.52.595,Experiment_English,3.2.4,MacIntel,60,,,1,0,340,267,1,339,ratio41_8_10_4.png,,,,,,,,,,,,
,,,,,,,,,,,,Most,Less than half,Few,Many,Some,All,More than half,None,Half,-0.096931424,0.314418403,1,0,0,QQQ4,,,,,,,,English,2020-07-02_10h58.52.595,Experiment_English,3.2.4,MacIntel,60,,,1,0,340,176,1,339,ratio21_10_15_3.png,,,,,,,,,,,,
,,,,,,,,,,,,Few,Half,More than half,Less than half,Many,All,Some,Most,None,-0.457539062,0.315099826,1,0,0,QQQ7,,,,,,,,English,2020-07-02_10h58.52.595,Experiment_English,3.2.4,MacIntel,60,,,1,0,340,249,1,339,ratio34_3_7_20.png,,,,,,,,,,,,
,,,,,,,,,,,,Some,Less than half,All,None,Most,Many,Few,More than half,Half,0.452890625,0.293476562,1,0,0,QQQ1,,,,,,,,English,2020-07-02_10h58.52.595,Experiment_English,3.2.4,MacIntel,60,,,1,0,340,184,1,339,ratio23_2_5_10.png,,,,,,,,,,,,
,,,,,,,,,,,,Half,Less than half,More than half,Many,Some,All,None,Most,Few,0.030065104,-0.049908854,1,0,0,QQQ5,,,,,,,,English,2020-07-02_10h58.52.595,Experiment_English,3.2.4,MacIntel,60,,,1,0,340,118,1,339,ratio14_4_20_8.png,,,,,,,,,,,,
,,,,,,,,,,,,All,More than half,Less than half,Many,Some,Half,Most,None,Few,-0.49843316,-0.330056424,1,0,0,QQQ9,,,,,,,,English,2020-07-02_10h58.52.595,Experiment_English,3.2.4,MacIntel,60,,,1,0,340,160,1,339,ratio21_2_3_2.png,,,,,,,,,,,,
,,,,,,,,,,,,Half,Some,More than half,Most,None,Less than half,Many,All,Few,-0.375842014,0.26124566,1,0,0,QQQ7,,,,,,,,English,2020-07-02_10h58.52.595,Experiment_English,3.2.4,MacIntel,60,,,1,0,340,208,1,339,ratio31_9_12_3.png,,,,,,,,,,,,
,,,,,,,,,,,,Half,None,Many,Less than half,Few,All,Some,Most,More than half,0.500238715,-0.279314236,1,0,0,QQQ3,,,,,,,,English,2020-07-02_10h58.52.595,Experiment_English,3.2.4,MacIntel,60,,,1,0,340,173,1,339,ratio21_8_12_9.png,,,,,,,,,,,,
,,,,,,,,,,,,More than half,Less than half,None,Few,All,Many,Some,Most,Half,0.007239583,-0.052443576,1,0,0,QQQ5,,,,,,,,English,2020-07-02_10h58.52.595,Experiment_English,3.2.4,MacIntel,60,,,1,0,340,45,1,339,ratioX0_8_8_3.png,,,,,,,,,,,,
,,,,,,,,,,,,Few,Half,All,Most,Many,Some,Less than half,More than half,None,0.4196875,0.281966146,1,0,0,QQQ1,,,,,,,,English,2020-07-02_10h58.52.595,Experiment_English,3.2.4,MacIntel,60,,,1,0,340,146,1,339,ratio19_1_10_17.png,,,,,,,,,,,,
,,,,,,,,,,,,None,Half,Less than half,Some,Most,All,More than half,Few,Many,0.041792535,-0.218576389,1,0,0,QQQ6,,,,,,,,English,2020-07-02_10h58.52.595,Experiment_English,3.2.4,MacIntel,60,,,1,0,340,56,1,339,ratioX0_17_17_10.png,,,,,,,,,,,,
,,,,,,,,,,,,Many,More than half,Few,Most,None,Half,Some,All,Less than half,0.007426215,0.003324653,1,0,0,QQQ5,,,,,,,,English,2020-07-02_10h58.52.595,Experiment_English,3.2.4,MacIntel,60,,,1,0,340,61,1,339,ratio0Y_0_4_7.png,,,,,,,,,,,,
,,,,,,,,,,,,Most,Many,More than half,Half,None,Few,Some,Less than half,All,0.03719184,0.285842014,1,0,0,QQQ4,,,,,,,,English,2020-07-02_10h58.52.595,Experiment_English,3.2.4,MacIntel,60,,,1,0,340,246,1,339,ratio34_3_7_11.png,,,,,,,,,,,,
,,,,,,,,,,,,Some,Half,Many,More than half,All,Few,None,Most,Less than half,0.465065104,-0.02375434,1,0,0,QQQ2,,,,,,,,English,2020-07-02_10h58.52.595,Experiment_English,3.2.4,MacIntel,60,,,1,0,340,195,1,339,ratio23_8_20_1.png,,,,,,,,,,,,
,,,,,,,,,,,,Most,Few,More than half,All,Many,None,Less than half,Half,Some,0.510720486,-0.332960069,1,0,0,QQQ3,,,,,,,,English,2020-07-02_10h58.52.595,Experiment_English,3.2.4,MacIntel,60,,,1,0,340,228,1,339,ratio32_6_10_7.png,,,,,,,,,,,,
,,,,,,,,,,,,None,Some,Most,All,Few,Many,More than half,Less than half,Half,-0.085447049,-0.299375,1,0,0,QQQ6,,,,,,,,English,2020-07-02_10h58.52.595,Experiment_English,3.2.4,MacIntel,60,,,1,0,340,314,1,339,ratio51_15_18_4.png,,,,,,,,,,,,
,,,,,,,,,,,,None,All,Many,Some,More than half,Less than half,Half,Few,Most,-0.479939236,0.257725694,1,0,0,QQQ7,,,,,,,,English,2020-07-02_10h58.52.595,Experiment_English,3.2.4,MacIntel,60,,,1,0,340,296,1,339,ratio43_8_14_12.png,,,,,,,,,,,,
,,,,,,,,,,,,None,All,Few,Many,Some,Most,Half,More than half,Less than half,0.386124132,-0.276575521,1,0,0,QQQ3,,,,,,,,English,2020-07-02_10h58.52.595,Experiment_English,3.2.4,MacIntel,60,,,1,0,340,127,1,339,ratio15_2_12_2.png,,,,,,,,,,,,
,,,,,,,,,,,,Few,Many,Most,More than half,None,Less than half,All,Some,Half,-0.007799479,-0.017986111,1,0,0,QQQ5,,,,,,,,English,2020-07-02_10h58.52.595,Experiment_English,3.2.4,MacIntel,60,,,1,0,340,75,1,339,ratio0Y_0_16_10.png,,,,,,,,,,,,
,,,,,,,,,,,,Few,More than half,Half,Less than half,None,All,Most,Some,Many,0.385954861,0.029518229,1,0,0,QQQ2,,,,,,,,English,2020-07-02_10h58.52.595,Experiment_English,3.2.4,MacIntel,60,,,1,0,340,327,1,339,ratio91_9_10_11.png,,,,,,,,,,,,
,,,,,,,,,,,,None,Some,Half,Many,All,Most,Few,Less than half,More than half,0.011475694,0.294552951,1,0,0,QQQ4,,,,,,,,English,2020-07-02_10h58.52.595,Experiment_English,3.2.4,MacIntel,60,,,1,0,340,167,1,339,ratio21_6_9_2.png,,,,,,,,,,,,
,,,,,,,,,,,,Less than half,Some,Many,None,Few,All,Half,Most,More than half,0.494631076,-0.320507812,1,0,0,QQQ3,,,,,,,,English,2020-07-02_10h58.52.595,Experiment_English,3.2.4,MacIntel,60,,,1,0,340,206,1,339,ratio31_6_8_6.png,,,,,,,,,,,,
,,,,,,,,,,,,Half,None,Most,Some,All,Many,Less than half,More than half,Few,0.438450521,-0.280494792,1,0,0,QQQ3,,,,,,,,English,2020-07-02_10h58.52.595,Experiment_English,3.2.4,MacIntel,60,,,1,0,340,333,1,339,ratio91_18_20_6.png,,,,,,,,,,,,
,,,,,,,,,,,,Less than half,Most,Half,Some,Many,None,All,Few,More than half,0.484743924,-0.046514757,1,0,0,QQQ2,,,,,,,,English,2020-07-02_10h58.52.595,Experiment_English,3.2.4,MacIntel,60,,,1,0,340,339,1,339,ratio91_18_20_19.png,,,,,,,,,,,,
,,,,,,,,,,,,Some,Less than half,Few,Many,More than half,Most,Half,None,All,0.009322917,-0.281050347,1,0,0,QQQ6,,,,,,,,English,2020-07-02_10h58.52.595,Experiment_English,3.2.4,MacIntel,60,,,1,0,340,202,1,339,ratio31_3_4_8.png,,,,,,,,,,,,
,,,,,,,,,,,,Some,Most,Few,Less than half,None,Half,All,More than half,Many,0.605295139,-0.281918403,1,0,0,QQQ3,,,,,,,,English,2020-07-02_10h58.52.595,Experiment_English,3.2.4,MacIntel,60,,,1,0,340,112,1,339,ratio14_3_15_4.png,,,,,,,,,,,,
,,,,,,,,,,,,Most,More than half,Many,Some,Few,Less than half,All,Half,None,-0.445555556,0.352925347,1,0,0,QQQ7,,,,,,,,English,2020-07-02_10h58.52.595,Experiment_English,3.2.4,MacIntel,60,,,1,0,340,53,1,339,ratioX0_14_14_8.png,,,,,,,,,,,,
,,,,,,,,,,,,None,Few,All,Many,Most,Some,More than half,Less than half,Half,0.109088542,-0.300755208,1,0,0,QQQ6,,,,,,,,English,2020-07-02_10h58.52.595,Experiment_English,3.2.4,MacIntel,60,,,1,0,340,105,1,339,ratio14_2_10_1.png,0.247743056,-0.384874132,1,0,0,continue_button_pause,1,0,1,0,1,0
,,,,,,,,,,,,,,,,,,,,,,,,,,,,,,,,,,English,2020-07-02_10h58.52.595,Experiment_English,3.2.4,MacIntel,60,,,1,0,340,105,1,339,ratio14_2_10_1.png,,,,,,,,,,,,
,,,,,,,,,,,,None,Less than half,All,Few,Half,Most,Many,More than half,Some,0.341228299,0.269869792,1,0,0,QQQ1,,,,,,,,English,2020-07-02_10h58.52.595,Experiment_English,3.2.4,MacIntel,60,,,1,0,340,63,1,339,ratio0Y_0_6_8.png,,,,,,,,,,,,
,,,,,,,,,,,,None,All,Half,Few,More than half,Many,Some,Most,Less than half,0.359900174,0.271111111,1,0,0,QQQ1,,,,,,,,English,2020-07-02_10h58.52.595,Experiment_English,3.2.4,MacIntel,60,,,1,0,340,77,1,339,ratio0Y_0_18_3.png,,,,,,,,,,,,
,,,,,,,,,,,,Many,Half,Few,Some,None,Most,All,More than half,Less than half,0.426927083,0.004952257,1,0,0,QQQ2,,,,,,,,English,2020-07-02_10h58.52.595,Experiment_English,3.2.4,MacIntel,60,,,1,0,340,245,1,339,ratio34_3_7_10.png,,,,,,,,,,,,
,,,,,,,,,,,,More than half,Some,All,Less than half,None,Few,Half,Most,Many,-0.025499132,-0.047508681,1,0,0,QQQ5,,,,,,,,English,2020-07-02_10h58.52.595,Experiment_English,3.2.4,MacIntel,60,,,1,0,340,73,1,339,ratio0Y_0_14_7.png,,,,,,,,,,,,
,,,,,,,,,,,,Few,Some,Less than half,More than half,None,Half,All,Most,Many,-0.475572917,0.247947049,1,0,0,QQQ7,,,,,,,,English,2020-07-02_10h58.52.595,Experiment_English,3.2.4,MacIntel,60,,,1,0,340,57,1,339,ratioX0_18_18_1.png,,,,,,,,,,,,
,,,,,,,,,,,,None,All,Most,More than half,Many,Few,Half,Some,Less than half,0.073389757,-0.068246528,1,0,0,QQQ5,,,,,,,,English,2020-07-02_10h58.52.595,Experiment_English,3.2.4,MacIntel,60,,,1,0,340,262,1,339,ratio41_4_5_4.png,,,,,,,,,,,,
,,,,,,,,,,,,None,All,Less than half,Half,Most,Few,More than half,Some,Many,-0.499765625,-0.082617187,1,0,0,QQQ8,,,,,,,,English,2020-07-02_10h58.52.595,Experiment_English,3.2.4,MacIntel,60,,,1,0,340,259,1,339,ratio34_6_14_19.png,,,,,,,,,,,,
,,,,,,,,,,,,Most,Few,Half,Many,More than half,None,All,Some,Less than half,0.568302951,0.28577691,1,0,0,QQQ1,,,,,,,,English,2020-07-02_10h58.52.595,Experiment_English,3.2.4,MacIntel,60,,,1,0,340,162,1,339,ratio21_2_3_9.png,,,,,,,,,,,,
,,,,,,,,,,,,Half,Less than half,None,Some,More than half,Many,All,Few,Most,0.039622396,-0.322990451,1,0,0,QQQ6,,,,,,,,English,2020-07-02_10h58.52.595,Experiment_English,3.2.4,MacIntel,60,,,1,0,340,288,1,339,ratio43_4_7_18.png,,,,,,,,,,,,
,,,,,,,,,,,,More than half,Some,Less than half,Most,Few,Half,None,Many,All,0.563914931,-0.250438368,1,0,0,QQQ3,,,,,,,,English,2020-07-02_10h58.52.595,Experiment_English,3.2.4,MacIntel,60,,,1,0,340,192,1,339,ratio23_6_15_8.png,,,,,,,,,,,,
,,,,,,,,,,,,Less than half,More than half,Few,Many,None,All,Some,Half,Most,0.445590278,0.030008681,1,0,0,QQQ2,,,,,,,,English,2020-07-02_10h58.52.595,Experiment_English,3.2.4,MacIntel,60,,,1,0,340,215,1,339,ratio31_12_16_8.png,,,,,,,,,,,,
,,,,,,,,,,,,Less than half,Most,Some,More than half,Few,All,Half,Many,None,-0.435894097,-0.064448785,1,0,0,QQQ8,,,,,,,,English,2020-07-02_10h58.52.595,Experiment_English,3.2.4,MacIntel,60,,,1,0,340,172,1,339,ratio21_8_12_6.png,,,,,,,,,,,,
,,,,,,,,,,,,More than half,Less than half,Many,All,Most,Half,None,Some,Few,0.53422309,-0.339578993,1,0,0,QQQ3,,,,,,,,English,2020-07-02_10h58.52.595,Experiment_English,3.2.4,MacIntel,60,,,1,0,340,238,1,339,ratio32_12_20_9.png,,,,,,,,,,,,
,,,,,,,,,,,,Some,All,None,More than half,Half,Many,Most,Few,Less than half,-0.458268229,-0.057938368,1,0,0,QQQ8,,,,,,,,English,2020-07-02_10h58.52.595,Experiment_English,3.2.4,MacIntel,60,,,1,0,340,128,1,339,ratio15_2_12_8.png,,,,,,,,,,,,
,,,,,,,,,,,,Few,Less than half,None,Most,All,Many,More than half,Half,Some,0.475364583,0.200703125,1,0,0,QQQ1,,,,,,,,English,2020-07-02_10h58.52.595,Experiment_English,3.2.4,MacIntel,60,,,1,0,340,157,1,339,ratio19_2_20_16.png,,,,,,,,,,,,
,,,,,,,,,,,,Half,More than half,Few,All,Many,None,Some,Less than half,Most,0.644249132,0.008376736,1,0,0,QQQ2,,,,,,,,English,2020-07-02_10h58.52.595,Experiment_English,3.2.4,MacIntel,60,,,1,0,340,289,1,339,ratio43_4_7_20.png,,,,,,,,,,,,
,,,,,,,,,,,,None,Most,Some,Half,More than half,Few,Less than half,Many,All,0.521306424,-0.001427951,1,0,0,QQQ2,,,,,,,,English,2020-07-02_10h58.52.595,Experiment_English,3.2.4,MacIntel,60,,,1,0,340,300,1,339,ratio51_5_6_1.png,,,,,,,,,,,,
,,,,,,,,,,,,Most,Half,Few,Some,None,More than half,Less than half,All,Many,0.505807292,-0.292248264,1,0,0,QQQ3,,,,,,,,English,2020-07-02_10h58.52.595,Experiment_English,3.2.4,MacIntel,60,,,1,0,340,149,1,339,ratio19_1_10_20.png,,,,,,,,,,,,
,,,,,,,,,,,,Most,More than half,None,Some,Less than half,Many,Few,All,Half,-0.016228299,-0.001258681,1,0,0,QQQ5,,,,,,,,English,2020-07-02_10h58.52.595,Experiment_English,3.2.4,MacIntel,60,,,1,0,340,6,1,339,ratio12_3_9_1.png,,,,,,,,,,,,
,,,,,,,,,,,,More than half,Half,Some,None,All,Few,Many,Less than half,Most,-0.078246528,-0.256171875,1,0,0,QQQ6,,,,,,,,English,2020-07-02_10h58.52.595,Experiment_English,3.2.4,MacIntel,60,,,1,0,340,137,1,339,ratio15_3_18_16.png,,,,,,,,,,,,
,,,,,,,,,,,,Many,Some,All,Less than half,Few,More than half,Half,None,Most,-0.482421875,0.084036458,1,0,0,QQQ8,,,,,,,,English,2020-07-02_10h58.52.595,Experiment_English,3.2.4,MacIntel,60,,,1,0,340,60,1,339,ratio0Y_0_3_5.png,,,,,,,,,,,,
,,,,,,,,,,,,Few,None,Many,Less than half,More than half,Half,All,Most,Some,-0.014457465,-0.206927083,1,0,0,QQQ6,,,,,,,,English,2020-07-02_10h58.52.595,Experiment_English,3.2.4,MacIntel,60,,,1,0,340,282,1,339,ratio43_4_7_7.png,,,,,,,,,,,,
,,,,,,,,,,,,Most,Few,Many,All,Half,Some,More than half,Less than half,None,-0.448493924,-0.361150174,1,0,0,QQQ9,,,,,,,,English,2020-07-02_10h58.52.595,Experiment_English,3.2.4,MacIntel,60,,,1,0,340,62,1,339,ratio0Y_0_5_4.png,,,,,,,,,,,,
,,,,,,,,,,,,All,Few,Some,None,Most,Many,Less than half,More than half,Half,0.399179687,-0.0359375,1,0,0,QQQ2,,,,,,,,English,2020-07-02_10h58.52.595,Experiment_English,3.2.4,MacIntel,60,,,1,0,340,183,1,339,ratio23_2_5_9.png,,,,,,,,,,,,
,,,,,,,,,,,,Many,Most,More than half,All,Some,Half,Less than half,None,Few,0.480759549,-0.285069444,1,0,0,QQQ3,,,,,,,,English,2020-07-02_10h58.52.595,Experiment_English,3.2.4,MacIntel,60,,,1,0,340,166,1,339,ratio21_6_9_1.png,,,,,,,,,,,,
,,,,,,,,,,,,Some,Few,More than half,Many,None,All,Most,Less than half,Half,-0.516584201,0.057322049,1,0,0,QQQ8,,,,,,,,English,2020-07-02_10h58.52.595,Experiment_English,3.2.4,MacIntel,60,,,1,0,340,9,1,339,ratio12_3_9_5.png,,,,,,,,,,,,
,,,,,,,,,,,,Half,Less than half,Many,None,Few,Most,All,Some,More than half,0.034652778,0.051267361,1,0,0,QQQ5,,,,,,,,English,2020-07-02_10h58.52.595,Experiment_English,3.2.4,MacIntel,60,,,1,0,340,126,1,339,ratio15_2_12_1.png,,,,,,,,,,,,
,,,,,,,,,,,,Some,All,More than half,Half,None,Few,Many,Most,Less than half,-0.384882813,-0.350347222,1,0,0,QQQ9,,,,,,,,English,2020-07-02_10h58.52.595,Experiment_English,3.2.4,MacIntel,60,,,1,0,340,10,1,339,ratio12_4_12_4.png,,,,,,,,,,,,
,,,,,,,,,,,,All,Many,Some,None,Less than half,Most,Few,More than half,Half,0.353415799,-0.262838542,1,0,0,QQQ3,,,,,,,,English,2020-07-02_10h58.52.595,Experiment_English,3.2.4,MacIntel,60,,,1,0,340,155,1,339,ratio19_2_20_13.png,,,,,,,,,,,,
,,,,,,,,,,,,More than half,Half,All,Less than half,Many,None,Few,Some,Most,-0.482764757,0.249626736,1,0,0,QQQ7,,,,,,,,English,2020-07-02_10h58.52.595,Experiment_English,3.2.4,MacIntel,60,,,1,0,340,83,1,339,ratio13_1_4_10.png,,,,,,,,,,,,
,,,,,,,,,,,,None,Few,Some,Most,All,Many,Less than half,Half,More than half,-0.021328125,-0.013559028,1,0,0,QQQ5,,,,,,,,English,2020-07-02_10h58.52.595,Experiment_English,3.2.4,MacIntel,60,,,1,0,340,55,1,339,ratioX0_16_16_3.png,,,,,,,,,,,,
,,,,,,,,,,,,Less than half,Many,Few,None,Half,More than half,Most,All,Some,-0.413420139,-0.342630208,1,0,0,QQQ9,,,,,,,,English,2020-07-02_10h58.52.595,Experiment_English,3.2.4,MacIntel,60,,,1,0,340,8,1,339,ratio12_3_9_4.png,,,,,,,,,,,,
,,,,,,,,,,,,Most,All,More than half,Few,Less than half,Many,None,Half,Some,-0.013363715,-0.357217882,1,0,0,QQQ6,,,,,,,,English,2020-07-02_10h58.52.595,Experiment_English,3.2.4,MacIntel,60,,,1,0,340,323,1,339,ratio91_9_10_5.png,,,,,,,,,,,,
,,,,,,,,,,,,None,Half,Less than half,Most,Few,All,Some,Many,More than half,0.456076389,-0.059314236,1,0,0,QQQ2,,,,,,,,English,2020-07-02_10h58.52.595,Experiment_English,3.2.4,MacIntel,60,,,1,0,340,257,1,339,ratio34_6_14_12.png,0.412005208,-0.402543403,1,0,0,continue_button_pause,1,0,1,0,1,0
,,,,,,,,,,,,,,,,,,,,,,,,,,,,,,,,,,English,2020-07-02_10h58.52.595,Experiment_English,3.2.4,MacIntel,60,,,1,0,340,257,1,339,ratio34_6_14_12.png,,,,,,,,,,,,
,,,,,,,,,,,,None,Many,All,More than half,Some,Less than half,Half,Few,Most,0.05094184,-0.050416667,1,0,0,QQQ5,,,,,,,,English,2020-07-02_10h58.52.595,Experiment_English,3.2.4,MacIntel,60,,,1,0,340,84,1,339,ratio13_2_8_1.png,,,,,,,,,,,,
,,,,,,,,,,,,Some,None,Most,Many,Half,More than half,All,Few,Less than half,0.455755208,-0.256197917,1,0,0,QQQ3,,,,,,,,English,2020-07-02_10h58.52.595,Experiment_English,3.2.4,MacIntel,60,,,1,0,340,303,1,339,ratio51_5_6_6.png,,,,,,,,,,,,
,,,,,,,,,,,,Less than half,Few,More than half,Many,None,Some,Most,Half,All,0.398242188,0.002417535,1,0,0,QQQ2,,,,,,,,English,2020-07-02_10h58.52.595,Experiment_English,3.2.4,MacIntel,60,,,1,0,340,145,1,339,ratio19_1_10_15.png,,,,,,,,,,,,
,,,,,,,,,,,,Some,Less than half,None,Half,All,Many,Most,Few,More than half,-0.465672743,-0.0021875,1,0,0,QQQ8,,,,,,,,English,2020-07-02_10h58.52.595,Experiment_English,3.2.4,MacIntel,60,,,1,0,340,100,1,339,ratio14_1_5_3.png,,,,,,,,,,,,
,,,,,,,,,,,,Some,Less than half,Few,Many,Most,Half,More than half,All,None,0.481927083,-0.249908854,1,0,0,QQQ3,,,,,,,,English,2020-07-02_10h58.52.595,Experiment_English,3.2.4,MacIntel,60,,,1,0,340,116,1,339,ratio14_4_20_3.png,,,,,,,,,,,,
,,,,,,,,,,,,Some,All,Less than half,None,More than half,Half,Few,Most,Many,-0.446336806,-0.023693576,1,0,0,QQQ8,,,,,,,,English,2020-07-02_10h58.52.595,Experiment_English,3.2.4,MacIntel,60,,,1,0,340,261,1,339,ratio41_4_5_3.png,,,,,,,,,,,,
,,,,,,,,,,,,Some,More than half,Most,Few,Half,Less than half,None,Many,All,0.015260417,-0.241848958,1,0,0,QQQ6,,,,,,,,English,2020-07-02_10h58.52.595,Experiment_English,3.2.4,MacIntel,60,,,1,0,340,90,1,339,ratio13_3_12_7.png,,,,,,,,,,,,
,,,,,,,,,,,,Most,Few,Many,Half,More than half,All,Less than half,None,Some,-0.369826389,-0.252890625,1,0,0,QQQ9,,,,,,,,English,2020-07-02_10h58.52.595,Experiment_English,3.2.4,MacIntel,60,,,1,0,340,3,1,339,ratio12_2_6_3.png,,,,,,,,,,,,
,,,,,,,,,,,,Most,Many,All,None,Less than half,Few,Some,More than half,Half,-0.089492188,-0.240720486,1,0,0,QQQ6,,,,,,,,English,2020-07-02_10h58.52.595,Experiment_English,3.2.4,MacIntel,60,,,1,0,340,94,1,339,ratio13_4_16_8.png,,,,,,,,,,,,
,,,,,,,,,,,,More than half,Few,Half,Less than half,All,Some,Many,None,Most,0.610217014,-0.306835937,1,0,0,QQQ3,,,,,,,,English,2020-07-02_10h58.52.595,Experiment_English,3.2.4,MacIntel,60,,,1,0,340,34,1,339,ratio11_8_16_8.png,,,,,,,,,,,,
,,,,,,,,,,,,More than half,Most,Many,None,All,Half,Few,Less than half,Some,-0.35656684,0.273272569,1,0,0,QQQ7,,,,,,,,English,2020-07-02_10h58.52.595,Experiment_English,3.2.4,MacIntel,60,,,1,0,340,111,1,339,ratio14_3_15_3.png,,,,,,,,,,,,
,,,,,,,,,,,,Half,Most,None,More than half,Many,Few,Some,Less than half,All,0.377595486,0.350763889,1,0,0,QQQ1,,,,,,,,English,2020-07-02_10h58.52.595,Experiment_English,3.2.4,MacIntel,60,,,1,0,340,299,1,339,ratio43_8_14_17.png,,,,,,,,,,,,
,,,,,,,,,,,,Less than half,More than half,Many,Half,Few,Some,None,All,Most,0.381970486,-0.282235243,1,0,0,QQQ3,,,,,,,,English,2020-07-02_10h58.52.595,Experiment_English,3.2.4,MacIntel,60,,,1,0,340,276,1,339,ratio41_16_20_4.png,,,,,,,,,,,,
,,,,,,,,,,,,Many,Half,Few,Some,More than half,All,None,Most,Less than half,0.134782986,-0.053732639,1,0,0,QQQ5,,,,,,,,English,2020-07-02_10h58.52.595,Experiment_English,3.2.4,MacIntel,60,,,1,0,340,283,1,339,ratio43_4_7_8.png,,,,,,,,,,,,
,,,,,,,,,,,,Many,Some,All,Most,Half,More than half,None,Few,Less than half,-0.426163194,-0.062374132,1,0,0,QQQ8,,,,,,,,English,2020-07-02_10h58.52.595,Experiment_English,3.2.4,MacIntel,60,,,1,0,340,134,1,339,ratio15_3_18_5.png,,,,,,,,,,,,
,,,,,,,,,,,,Some,Few,None,Most,Less than half,More than half,Many,Half,All,0.382530382,-0.006705729,1,0,0,QQQ2,,,,,,,,English,2020-07-02_10h58.52.595,Experiment_English,3.2.4,MacIntel,60,,,1,0,340,88,1,339,ratio13_3_12_5.png,,,,,,,,,,,,
,,,,,,,,,,,,Half,Less than half,More than half,None,Most,All,Few,Some,Many,-0.634422743,-0.037139757,1,0,0,QQQ8,,,,,,,,English,2020-07-02_10h58.52.595,Experiment_English,3.2.4,MacIntel,60,,,1,0,340,15,1,339,ratio12_5_15_5.png,,,,,,,,,,,,
,,,,,,,,,,,,Half,More than half,Many,None,Few,Less than half,All,Some,Most,-0.494969618,-0.22562934,1,0,0,QQQ9,,,,,,,,English,2020-07-02_10h58.52.595,Experiment_English,3.2.4,MacIntel,60,,,1,0,340,335,1,339,ratio91_18_20_11.png,,,,,,,,,,,,
,,,,,,,,,,,,More than half,Many,Half,Few,All,Less than half,Some,None,Most,0.390073785,0.012786458,1,0,0,QQQ2,,,,,,,,English,2020-07-02_10h58.52.595,Experiment_English,3.2.4,MacIntel,60,,,1,0,340,251,1,339,ratio34_6_14_2.png,,,,,,,,,,,,
,,,,,,,,,,,,None,Less than half,All,Few,Most,Half,More than half,Many,Some,0.046853299,-0.011258681,1,0,0,QQQ5,,,,,,,,English,2020-07-02_10h58.52.595,Experiment_English,3.2.4,MacIntel,60,,,1,0,340,164,1,339,ratio21_4_6_6.png,,,,,,,,,,,,
,,,,,,,,,,,,All,Most,Some,More than half,Half,None,Less than half,Many,Few,-0.016019965,0.314895833,1,0,0,QQQ4,,,,,,,,English,2020-07-02_10h58.52.595,Experiment_English,3.2.4,MacIntel,60,,,1,0,340,227,1,339,ratio32_6_10_6.png,,,,,,,,,,,,
,,,,,,,,,,,,Most,Few,All,None,Some,Less than half,More than half,Half,Many,-0.469765625,0.014127604,1,0,0,QQQ8,,,,,,,,English,2020-07-02_10h58.52.595,Experiment_English,3.2.4,MacIntel,60,,,1,0,340,27,1,339,ratio11_5_10_7.png,,,,,,,,,,,,
,,,,,,,,,,,,Most,All,None,Half,More than half,Many,Less than half,Few,Some,-0.056688368,-0.236671007,1,0,0,QQQ6,,,,,,,,English,2020-07-02_10h58.52.595,Experiment_English,3.2.4,MacIntel,60,,,1,0,340,207,1,339,ratio31_6_8_9.png,,,,,,,,,,,,
,,,,,,,,,,,,All,Some,None,Few,Half,Many,Less than half,More than half,Most,-0.05797309,-0.22858941,1,0,0,QQQ6,,,,,,,,English,2020-07-02_10h58.52.595,Experiment_English,3.2.4,MacIntel,60,,,1,0,340,317,1,339,ratio51_15_18_13.png,,,,,,,,,,,,
,,,,,,,,,,,,Less than half,All,More than half,Half,Most,Some,Few,None,Many,0.120256076,-0.314674479,1,0,0,QQQ6,,,,,,,,English,2020-07-02_10h58.52.595,Experiment_English,3.2.4,MacIntel,60,,,1,0,340,95,1,339,ratio13_4_16_10.png,,,,,,,,,,,,
,,,,,,,,,,,,Few,Most,Less than half,All,More than half,Some,None,Half,Many,-0.617469618,-0.311128472,1,0,0,QQQ9,,,,,,,,English,2020-07-02_10h58.52.595,Experiment_English,3.2.4,MacIntel,60,,,1,0,340,315,1,339,ratio51_15_18_10.png,,,,,,,,,,,,
,,,,,,,,,,,,Few,More than half,Less than half,None,Some,Half,All,Most,Many,0.049565972,-0.313094618,1,0,0,QQQ6,,,,,,,,English,2020-07-02_10h58.52.595,Experiment_English,3.2.4,MacIntel,60,,,1,0,340,285,1,339,ratio43_4_7_14.png,,,,,,,,,,,,
,,,,,,,,,,,,None,More than half,Half,Some,Most,Many,Few,All,Less than half,-0.403454861,0.266827257,1,0,0,QQQ7,,,,,,,,English,2020-07-02_10h58.52.595,Experiment_English,3.2.4,MacIntel,60,,,1,0,340,104,1,339,ratio14_1_5_10.png,,,,,,,,,,,,
,,,,,,,,,,,,Half,Most,None,Few,More than half,Some,All,Many,Less than half,0.117408854,-0.285989583,1,0,0,QQQ6,,,,,,,,English,2020-07-02_10h58.52.595,Experiment_English,3.2.4,MacIntel,60,,,1,0,340,117,1,339,ratio14_4_20_6.png,,,,,,,,,,,,
,,,,,,,,,,,,Less than half,More than half,Some,Many,None,Most,Few,All,Half,0.086866319,-0.04016059,1,0,0,QQQ5,,,,,,,,English,2020-07-02_10h58.52.595,Experiment_English,3.2.4,MacIntel,60,,,1,0,340,70,1,339,ratio0Y_0_12_5.png,,,,,,,,,,,,
,,,,,,,,,,,,Few,Less than half,More than half,Most,All,None,Many,Some,Half,0.375711806,-0.322217882,1,0,0,QQQ3,,,,,,,,English,2020-07-02_10h58.52.595,Experiment_English,3.2.4,MacIntel,60,,,1,0,340,222,1,339,ratio32_3_5_4.png,,,,,,,,,,,,
,,,,,,,,,,,,Many,Half,More than half,All,Few,Some,Less than half,None,Most,-0.06016059,-0.049192708,1,0,0,QQQ5,,,,,,,,English,2020-07-02_10h58.52.595,Experiment_English,3.2.4,MacIntel,60,,,1,0,340,129,1,339,ratio15_2_12_9.png,,,,,,,,,,,,
,,,,,,,,,,,,None,All,Half,Less than half,Many,Some,Few,Most,More than half,0.460199653,-0.022638889,1,0,0,QQQ2,,,,,,,,English,2020-07-02_10h58.52.595,Experiment_English,3.2.4,MacIntel,60,,,1,0,340,40,1,339,ratioX0_3_3_5.png,,,,,,,,,,,,
,,,,,,,,,,,,Most,All,None,Many,Some,More than half,Half,Few,Less than half,-0.399583333,0.267530382,1,0,0,QQQ7,,,,,,,,English,2020-07-02_10h58.52.595,Experiment_English,3.2.4,MacIntel,60,,,1,0,340,198,1,339,ratio23_8_20_7.png,0.321753472,-0.429900174,1,0,0,continue_button_pause,1,0,1,0,1,0
,,,,,,,,,,,,,,,,,,,,,,,,,,,,,,,,,,English,2020-07-02_10h58.52.595,Experiment_English,3.2.4,MacIntel,60,,,1,0,340,198,1,339,ratio23_8_20_7.png,,,,,,,,,,,,
,,,,,,,,,,,,Most,All,Half,Less than half,Some,Few,Many,None,More than half,-0.390542535,0.313220486,1,0,0,QQQ7,,,,,,,,English,2020-07-02_10h58.52.595,Experiment_English,3.2.4,MacIntel,60,,,1,0,340,232,1,339,ratio32_9_15_8.png,,,,,,,,,,,,
,,,,,,,,,,,,Many,Some,More than half,Few,None,Most,Half,All,Less than half,-0.027847222,-0.34234375,1,0,0,QQQ6,,,,,,,,English,2020-07-02_10h58.52.595,Experiment_English,3.2.4,MacIntel,60,,,1,0,340,268,1,339,ratio41_8_10_5.png,,,,,,,,,,,,
,,,,,,,,,,,,Some,Less than half,None,Many,All,More than half,Most,Half,Few,-0.414696181,0.294466146,1,0,0,QQQ7,,,,,,,,English,2020-07-02_10h58.52.595,Experiment_English,3.2.4,MacIntel,60,,,1,0,340,270,1,339,ratio41_12_15_3.png,,,,,,,,,,,,
,,,,,,,,,,,,More than half,Many,Some,None,Less than half,Most,Half,All,Few,0.128793403,-0.341228299,1,0,0,QQQ6,,,,,,,,English,2020-07-02_10h58.52.595,Experiment_English,3.2.4,MacIntel,60,,,1,0,340,330,1,339,ratio91_18_20_2.png,,,,,,,,,,,,
,,,,,,,,,,,,More than half,Some,All,Many,Half,Less than half,None,Most,Few,0.341423611,-0.098637153,1,0,0,QQQ2,,,,,,,,English,2020-07-02_10h58.52.595,Experiment_English,3.2.4,MacIntel,60,,,1,0,340,152,1,339,ratio19_2_20_6.png,,,,,,,,,,,,
,,,,,,,,,,,,Some,Many,Most,More than half,None,Less than half,Few,All,Half,0.039435764,-0.004765625,1,0,0,QQQ5,,,,,,,,English,2020-07-02_10h58.52.595,Experiment_English,3.2.4,MacIntel,60,,,1,0,340,72,1,339,ratio0Y_0_13_4.png,,,,,,,,,,,,
,,,,,,,,,,,,Most,All,Many,Less than half,Few,Half,More than half,Some,None,-0.001888021,0.233541667,1,0,0,QQQ4,,,,,,,,English,2020-07-02_10h58.52.595,Experiment_English,3.2.4,MacIntel,60,,,1,0,340,196,1,339,ratio23_8_20_5.png,,,,,,,,,,,,
,,,,,,,,,,,,Half,None,Most,Few,Some,Many,More than half,Less than half,All,0.143771701,-0.34030816,1,0,0,QQQ6,,,,,,,,English,2020-07-02_10h58.52.595,Experiment_English,3.2.4,MacIntel,60,,,1,0,340,313,1,339,ratio51_15_18_2.png,,,,,,,,,,,,
,,,,,,,,,,,,Less than half,Most,More than half,Half,Many,Some,All,Few,None,0.075230035,0.234939236,1,0,0,QQQ4,,,,,,,,English,2020-07-02_10h58.52.595,Experiment_English,3.2.4,MacIntel,60,,,1,0,340,258,1,339,ratio34_6_14_14.png,,,,,,,,,,,,
,,,,,,,,,,,,Less than half,Most,All,Some,Few,Many,More than half,None,Half,0.130868056,-0.060286458,1,0,0,QQQ5,,,,,,,,English,2020-07-02_10h58.52.595,Experiment_English,3.2.4,MacIntel,60,,,1,0,340,132,1,339,ratio15_2_12_16.png,,,,,,,,,,,,
,,,,,,,,,,,,Most,Many,More than half,Some,All,None,Half,Less than half,Few,-0.530651042,0.274739583,1,0,0,QQQ7,,,,,,,,English,2020-07-02_10h58.52.595,Experiment_English,3.2.4,MacIntel,60,,,1,0,340,239,1,339,ratio32_12_20_10.png,,,,,,,,,,,,
,,,,,,,,,,,,Half,Less than half,All,More than half,Many,Most,Some,Few,None,-0.062795139,0.011540799,1,0,0,QQQ5,,,,,,,,English,2020-07-02_10h58.52.595,Experiment_English,3.2.4,MacIntel,60,,,1,0,340,316,1,339,ratio51_15_18_11.png,,,,,,,,,,,,
,,,,,,,,,,,,Few,None,Many,Most,All,Less than half,Some,Half,More than half,-0.425516493,-0.310460069,1,0,0,QQQ9,,,,,,,,English,2020-07-02_10h58.52.595,Experiment_English,3.2.4,MacIntel,60,,,1,0,340,290,1,339,ratio43_8_14_3.png,,,,,,,,,,,,
,,,,,,,,,,,,Less than half,All,Most,Few,Many,Some,More than half,Half,None,-0.384921875,-0.066293403,1,0,0,QQQ8,,,,,,,,English,2020-07-02_10h58.52.595,Experiment_English,3.2.4,MacIntel,60,,,1,0,340,193,1,339,ratio23_6_15_9.png,,,,,,,,,,,,
,,,,,,,,,,,,None,Some,Half,More than half,Few,All,Most,Less than half,Many,0.047265625,0.293771701,1,0,0,QQQ4,,,,,,,,English,2020-07-02_10h58.52.595,Experiment_English,3.2.4,MacIntel,60,,,1,0,340,178,1,339,ratio21_12_18_2.png,,,,,,,,,,,,
,,,,,,,,,,,,Few,Most,Less than half,Half,None,Many,Some,More than half,All,0.095238715,-0.353975694,1,0,0,QQQ6,,,,,,,,English,2020-07-02_10h58.52.595,Experiment_English,3.2.4,MacIntel,60,,,1,0,340,236,1,339,ratio32_12_20_2.png,,,,,,,,,,,,
,,,,,,,,,,,,Most,None,Less than half,Many,More than half,Few,Half,All,Some,-0.473858507,0.308328993,1,0,0,QQQ7,,,,,,,,English,2020-07-02_10h58.52.595,Experiment_English,3.2.4,MacIntel,60,,,1,0,340,39,1,339,ratio11_10_20_6.png,,,,,,,,,,,,
,,,,,,,,,,,,Most,More than half,Less than half,Half,Some,Few,All,None,Many,-0.37312066,-0.003763021,1,0,0,QQQ8,,,,,,,,English,2020-07-02_10h58.52.595,Experiment_English,3.2.4,MacIntel,60,,,1,0,340,69,1,339,ratio0Y_0_11_6.png,,,,,,,,,,,,
,,,,,,,,,,,,Most,Some,Less than half,Few,None,All,Half,Many,More than half,0.492695312,0.056427951,1,0,0,QQQ2,,,,,,,,English,2020-07-02_10h58.52.595,Experiment_English,3.2.4,MacIntel,60,,,1,0,340,199,1,339,ratio23_8_20_8.png,,,,,,,,,,,,
,,,,,,,,,,,,All,Less than half,Few,Half,Many,None,Some,More than half,Most,0.09578125,0.336614583,1,0,0,QQQ4,,,,,,,,English,2020-07-02_10h58.52.595,Experiment_English,3.2.4,MacIntel,60,,,1,0,340,231,1,339,ratio32_9_15_2.png,,,,,,,,,,,,
,,,,,,,,,,,,Many,All,Most,Half,Less than half,Few,None,More than half,Some,0.428789062,-0.287526042,1,0,0,QQQ3,,,,,,,,English,2020-07-02_10h58.52.595,Experiment_English,3.2.4,MacIntel,60,,,1,0,340,306,1,339,ratio51_5_6_18.png,,,,,,,,,,,,
,,,,,,,,,,,,All,Many,Less than half,None,More than half,Half,Few,Most,Some,0.402508681,-0.268272569,1,0,0,QQQ3,,,,,,,,English,2020-07-02_10h58.52.595,Experiment_English,3.2.4,MacIntel,60,,,1,0,340,13,1,339,ratio12_5_15_3.png,,,,,,,,,,,,
,,,,,,,,,,,,Less than half,Some,All,Few,Most,Many,None,More than half,Half,0.400381944,-0.266996528,1,0,0,QQQ3,,,,,,,,English,2020-07-02_10h58.52.595,Experiment_English,3.2.4,MacIntel,60,,,1,0,340,49,1,339,ratioX0_11_11_2.png,,,,,,,,,,,,
,,,,,,,,,,,,All,More than half,Many,Some,Few,Less than half,None,Most,Half,-0.483641493,-0.275946181,1,0,0,QQQ9,,,,,,,,English,2020-07-02_10h58.52.595,Experiment_English,3.2.4,MacIntel,60,,,1,0,340,247,1,339,ratio34_3_7_12.png,,,,,,,,,,,,
,,,,,,,,,,,,All,Few,Less than half,None,Most,Half,More than half,Some,Many,0.41156684,0.291280382,1,0,0,QQQ1,,,,,,,,English,2020-07-02_10h58.52.595,Experiment_English,3.2.4,MacIntel,60,,,1,0,340,54,1,339,ratioX0_15_15_5.png,,,,,,,,,,,,
,,,,,,,,,,,,Many,Less than half,None,Some,Most,All,Few,More than half,Half,-0.430598958,0.263368056,1,0,0,QQQ7,,,,,,,,English,2020-07-02_10h58.52.595,Experiment_English,3.2.4,MacIntel,60,,,1,0,340,120,1,339,ratio15_1_6_1.png,,,,,,,,,,,,
,,,,,,,,,,,,Many,Most,More than half,Half,Some,Less than half,All,None,Few,-0.080277778,-0.317951389,1,0,0,QQQ6,,,,,,,,English,2020-07-02_10h58.52.595,Experiment_English,3.2.4,MacIntel,60,,,1,0,340,12,1,339,ratio12_4_12_10.png,,,,,,,,,,,,
,,,,,,,,,,,,More than half,None,Many,All,Half,Less than half,Some,Few,Most,0.555607639,0.381927083,1,0,0,QQQ1,,,,,,,,English,2020-07-02_10h58.52.595,Experiment_English,3.2.4,MacIntel,60,,,1,0,340,212,1,339,ratio31_12_16_1.png,,,,,,,,,,,,
,,,,,,,,,,,,Many,Most,Half,Less than half,None,More than half,Few,Some,All,-0.427860243,0.307717014,1,0,0,QQQ7,,,,,,,,English,2020-07-02_10h58.52.595,Experiment_English,3.2.4,MacIntel,60,,,1,0,340,1,1,339,ratio12_1_3_7.png,,,,,,,,,,,,
,,,,,,,,,,,,Many,Half,All,None,More than half,Few,Most,Some,Less than half,0.436050347,0.203637153,1,0,0,QQQ1,,,,,,,,English,2020-07-02_10h58.52.595,Experiment_English,3.2.4,MacIntel,60,,,1,0,340,292,1,339,ratio43_8_14_6.png,,,,,,,,,,,,
,,,,,,,,,,,,Half,All,None,More than half,Less than half,Some,Many,Most,Few,-0.629301215,0.270073785,1,0,0,QQQ7,,,,,,,,English,2020-07-02_10h58.52.595,Experiment_English,3.2.4,MacIntel,60,,,1,0,340,309,1,339,ratio51_10_12_10.png,,,,,,,,,,,,
,,,,,,,,,,,,None,All,Most,Some,Many,More than half,Few,Less than half,Half,-0.390737847,-0.036614583,1,0,0,QQQ8,,,,,,,,English,2020-07-02_10h58.52.595,Experiment_English,3.2.4,MacIntel,60,,,1,0,340,14,1,339,ratio12_5_15_4.png,,,,,,,,,,,,
,,,,,,,,,,,,None,Half,Many,More than half,Few,Some,All,Less than half,Most,-0.030286458,-0.021371528,1,0,0,QQQ5,,,,,,,,English,2020-07-02_10h58.52.595,Experiment_English,3.2.4,MacIntel,60,,,1,0,340,113,1,339,ratio14_3_15_8.png,,,,,,,,,,,,
,,,,,,,,,,,,More than half,Most,Few,Less than half,Half,None,All,Some,Many,-0.030286458,-0.021371528,1,0,0,QQQ5,,,,,,,,English,2020-07-02_10h58.52.595,Experiment_English,3.2.4,MacIntel,60,,,1,0,340,29,1,339,ratio11_6_12_1.png,0.287916667,-0.390264757,1,0,0,continue_button_pause,1,0,1,0,1,0
,,,,,,,,,,,,,,,,,,,,,,,,,,,,,,,,,,English,2020-07-02_10h58.52.595,Experiment_English,3.2.4,MacIntel,60,,,1,0,340,29,1,339,ratio11_6_12_1.png,,,,,,,,,,,,
,,,,,,,,,,,,Many,None,All,Most,More than half,Few,Less than half,Some,Half,-0.631536458,0.0634375,1,0,0,QQQ8,,,,,,,,English,2020-07-02_10h58.52.595,Experiment_English,3.2.4,MacIntel,60,,,1,0,340,89,1,339,ratio13_3_12_6.png,,,,,,,,,,,,
,,,,,,,,,,,,Half,Less than half,More than half,Many,Few,Some,All,Most,None,-0.617886285,0.220442708,1,0,0,QQQ7,,,,,,,,English,2020-07-02_10h58.52.595,Experiment_English,3.2.4,MacIntel,60,,,1,0,340,44,1,339,ratioX0_7_7_5.png,,,,,,,,,,,,
,,,,,,,,,,,,Less than half,Some,Most,Half,None,More than half,Few,Many,All,-0.072864583,0.26750434,1,0,0,QQQ4,,,,,,,,English,2020-07-02_10h58.52.595,Experiment_English,3.2.4,MacIntel,60,,,1,0,340,252,1,339,ratio34_6_14_3.png,,,,,,,,,,,,
,,,,,,,,,,,,Some,Less than half,Most,Few,All,None,More than half,Half,Many,-0.395251736,0.211896701,1,0,0,QQQ7,,,,,,,,English,2020-07-02_10h58.52.595,Experiment_English,3.2.4,MacIntel,60,,,1,0,340,312,1,339,ratio51_10_12_16.png,,,,,,,,,,,,
,,,,,,,,,,,,None,Few,Most,Many,All,Less than half,Some,More than half,Half,0.437439236,-0.230902778,1,0,0,QQQ3,,,,,,,,English,2020-07-02_10h58.52.595,Experiment_English,3.2.4,MacIntel,60,,,1,0,340,304,1,339,ratio51_5_6_13.png,,,,,,,,,,,,
,,,,,,,,,,,,More than half,Some,Most,All,Many,None,Few,Half,Less than half,0.383732639,0.003927951,1,0,0,QQQ2,,,,,,,,English,2020-07-02_10h58.52.595,Experiment_English,3.2.4,MacIntel,60,,,1,0,340,119,1,339,ratio14_4_20_10.png,,,,,,,,,,,,
,,,,,,,,,,,,Most,Half,Many,Few,None,Some,All,Less than half,More than half,-0.145512153,0.314236111,1,0,0,QQQ4,,,,,,,,English,2020-07-02_10h58.52.595,Experiment_English,3.2.4,MacIntel,60,,,1,0,340,5,1,339,ratio12_2_6_9.png,,,,,,,,,,,,
,,,,,,,,,,,,None,Few,Most,All,Many,Less than half,Half,Some,More than half,-0.444596354,0.221553819,1,0,0,QQQ7,,,,,,,,English,2020-07-02_10h58.52.595,Experiment_English,3.2.4,MacIntel,60,,,1,0,340,241,1,339,ratio34_3_7_5.png,,,,,,,,,,,,
,,,,,,,,,,,,None,Some,Few,More than half,Most,Half,Less than half,All,Many,0.601519097,-0.296189236,1,0,0,QQQ3,,,,,,,,English,2020-07-02_10h58.52.595,Experiment_English,3.2.4,MacIntel,60,,,1,0,340,80,1,339,ratio13_1_4_3.png,,,,,,,,,,,,
,,,,,,,,,,,,Most,None,Less than half,All,More than half,Some,Many,Few,Half,-0.510377604,0.258671875,1,0,0,QQQ7,,,,,,,,English,2020-07-02_10h58.52.595,Experiment_English,3.2.4,MacIntel,60,,,1,0,340,214,1,339,ratio31_12_16_5.png,,,,,,,,,,,,
,,,,,,,,,,,,More than half,Most,None,Half,Many,Few,All,Some,Less than half,-0.003810764,-0.037591146,1,0,0,QQQ5,,,,,,,,English,2020-07-02_10h58.52.595,Experiment_English,3.2.4,MacIntel,60,,,1,0,340,278,1,339,ratio41_16_20_9.png,,,,,,,,,,,,
,,,,,,,,,,,,None,Most,Half,All,Some,More than half,Many,Less than half,Few,-0.537478299,-0.257717014,1,0,0,QQQ9,,,,,,,,English,2020-07-02_10h58.52.595,Experiment_English,3.2.4,MacIntel,60,,,1,0,340,159,1,339,ratio19_2_20_20.png,,,,,,,,,,,,
,,,,,,,,,,,,Most,Many,Less than half,Few,More than half,None,Half,Some,All,0.071575521,-0.229335938,1,0,0,QQQ6,,,,,,,,English,2020-07-02_10h58.52.595,Experiment_English,3.2.4,MacIntel,60,,,1,0,340,71,1,339,ratio0Y_0_12_10.png,,,,,,,,,,,,
,,,,,,,,,,,,More than half,All,None,Most,Few,Less than half,Half,Many,Some,0.510655382,-0.264418403,1,0,0,QQQ3,,,,,,,,English,2020-07-02_10h58.52.595,Experiment_English,3.2.4,MacIntel,60,,,1,0,340,79,1,339,ratio0Y_0_20_4.png,,,,,,,,,,,,
,,,,,,,,,,,,Many,Few,More than half,Less than half,None,Some,All,Most,Half,-0.650182292,-0.034952257,1,0,0,QQQ8,,,,,,,,English,2020-07-02_10h58.52.595,Experiment_English,3.2.4,MacIntel,60,,,1,0,340,320,1,339,ratio91_9_10_1.png,,,,,,,,,,,,
,,,,,,,,,,,,None,Less than half,More than half,Few,Some,Many,Most,Half,All,0.012890625,-0.311506076,1,0,0,QQQ6,,,,,,,,English,2020-07-02_10h58.52.595,Experiment_English,3.2.4,MacIntel,60,,,1,0,340,275,1,339,ratio41_16_20_2.png,,,,,,,,,,,,
,,,,,,,,,,,,Most,Half,Few,Less than half,Many,Some,All,More than half,None,0.468923611,0.020269097,1,0,0,QQQ2,,,,,,,,English,2020-07-02_10h58.52.595,Experiment_English,3.2.4,MacIntel,60,,,1,0,340,20,1,339,ratio11_2_4_3.png,,,,,,,,,,,,
,,,,,,,,,,,,Most,All,Some,Many,Less than half,None,Half,Few,More than half,0.599144965,-0.004635417,1,0,0,QQQ2,,,,,,,,English,2020-07-02_10h58.52.595,Experiment_English,3.2.4,MacIntel,60,,,1,0,340,47,1,339,ratioX0_9_9_4.png,,,,,,,,,,,,
,,,,,,,,,,,,All,Many,Some,None,More than half,Few,Most,Less than half,Half,-0.469192708,-0.285516493,1,0,0,QQQ9,,,,,,,,English,2020-07-02_10h58.52.595,Experiment_English,3.2.4,MacIntel,60,,,1,0,340,237,1,339,ratio32_12_20_5.png,,,,,,,,,,,,
,,,,,,,,,,,,Less than half,Many,Few,None,More than half,All,Most,Half,Some,-0.033025174,-0.275520833,1,0,0,QQQ6,,,,,,,,English,2020-07-02_10h58.52.595,Experiment_English,3.2.4,MacIntel,60,,,1,0,340,51,1,339,ratioX0_12_12_9.png,,,,,,,,,,,,
,,,,,,,,,,,,Some,Most,All,Few,Half,Many,None,More than half,Less than half,-0.055911458,0.324587674,1,0,0,QQQ4,,,,,,,,English,2020-07-02_10h58.52.595,Experiment_English,3.2.4,MacIntel,60,,,1,0,340,124,1,339,ratio15_1_6_16.png,,,,,,,,,,,,
,,,,,,,,,,,,Few,Half,Most,None,Less than half,More than half,All,Many,Some,0.442430556,0.319244792,1,0,0,QQQ1,,,,,,,,English,2020-07-02_10h58.52.595,Experiment_English,3.2.4,MacIntel,60,,,1,0,340,158,1,339,ratio19_2_20_17.png,,,,,,,,,,,,
,,,,,,,,,,,,Few,Less than half,Most,Many,All,Half,None,Some,More than half,-0.426501736,-0.275125868,1,0,0,QQQ9,,,,,,,,English,2020-07-02_10h58.52.595,Experiment_English,3.2.4,MacIntel,60,,,1,0,340,280,1,339,ratio43_4_7_2.png,,,,,,,,,,,,
,,,,,,,,,,,,Most,Half,Less than half,More than half,All,None,Some,Many,Few,0.015503472,0.294557292,1,0,0,QQQ4,,,,,,,,English,2020-07-02_10h58.52.595,Experiment_English,3.2.4,MacIntel,60,,,1,0,340,26,1,339,ratio11_5_10_4.png,,,,,,,,,,,,
,,,,,,,,,,,,Some,Most,More than half,Half,None,Few,Less than half,Many,All,-0.365681424,-0.272048611,1,0,0,QQQ9,,,,,,,,English,2020-07-02_10h58.52.595,Experiment_English,3.2.4,MacIntel,60,,,1,0,340,46,1,339,ratioX0_9_9_3.png,,,,,,,,,,,,
,,,,,,,,,,,,None,More than half,Some,Half,All,Few,Less than half,Many,Most,-0.409761285,-0.037947049,1,0,0,QQQ8,,,,,,,,English,2020-07-02_10h58.52.595,Experiment_English,3.2.4,MacIntel,60,,,1,0,340,234,1,339,ratio32_9_15_10.png,,,,,,,,,,,,
,,,,,,,,,,,,More than half,None,Few,Most,Half,Less than half,Some,All,Many,0.538368056,0.250733507,1,0,0,QQQ1,,,,,,,,English,2020-07-02_10h58.52.595,Experiment_English,3.2.4,MacIntel,60,,,1,0,340,165,1,339,ratio21_4_6_10.png,,,,,,,,,,,,
,,,,,,,,,,,,Half,Some,Few,None,Many,Less than half,All,More than half,Most,0.117243924,-0.008003472,1,0,0,QQQ5,,,,,,,,English,2020-07-02_10h58.52.595,Experiment_English,3.2.4,MacIntel,60,,,1,0,340,170,1,339,ratio21_6_9_8.png,,,,,,,,,,,,
,,,,,,,,,,,,Few,None,All,Less than half,Many,Some,Most,More than half,Half,0.102782118,-0.003324653,1,0,0,QQQ5,,,,,,,,English,2020-07-02_10h58.52.595,Experiment_English,3.2.4,MacIntel,60,,,1,0,340,298,1,339,ratio43_8_14_14.png,,,,,,,,,,,,
,,,,,,,,,,,,All,More than half,Few,Most,None,Some,Less than half,Many,Half,-0.371232639,0.222534722,1,0,0,QQQ7,,,,,,,,English,2020-07-02_10h58.52.595,Experiment_English,3.2.4,MacIntel,60,,,1,0,340,242,1,339,ratio34_3_7_6.png,,,,,,,,,,,,
,,,,,,,,,,,,All,Few,Many,More than half,Less than half,Half,None,Most,Some,-0.388333333,-0.250026042,1,0,0,QQQ9,,,,,,,,English,2020-07-02_10h58.52.595,Experiment_English,3.2.4,MacIntel,60,,,1,0,340,182,1,339,ratio23_2_5_7.png,,,,,,,,,,,,
,,,,,,,,,,,,All,Few,More than half,Most,Some,Less than half,Half,Many,None,-0.390789931,0.026059028,1,0,0,QQQ8,,,,,,,,English,2020-07-02_10h58.52.595,Experiment_English,3.2.4,MacIntel,60,,,1,0,340,287,1,339,ratio43_4_7_17.png,,,,,,,,,,,,
,,,,,,,,,,,,Few,Less than half,Half,All,Some,More than half,Many,Most,None,-0.463923611,-0.259335938,1,0,0,QQQ9,,,,,,,,English,2020-07-02_10h58.52.595,Experiment_English,3.2.4,MacIntel,60,,,1,0,340,68,1,339,ratio0Y_0_11_3.png,,,,,,,,,,,,
,,,,,,,,,,,,Half,Many,Some,All,More than half,None,Less than half,Most,Few,-0.417256944,0.379053819,1,0,0,QQQ7,,,,,,,,English,2020-07-02_10h58.52.595,Experiment_English,3.2.4,MacIntel,60,,,1,0,340,194,1,339,ratio23_6_15_10.png,0.427083333,-0.392769097,1,0,0,continue_button_pause,1,0,1,0,1,0
,,,,,,,,,,,,,,,,,,,,,,,,,,,,,,,,,,English,2020-07-02_10h58.52.595,Experiment_English,3.2.4,MacIntel,60,,,1,0,340,194,1,339,ratio23_6_15_10.png,,,,,,,,,,,,
,,,,,,,,,,,,Many,Most,Few,Some,None,Less than half,Half,More than half,All,-0.408784722,0.251302083,1,0,0,QQQ7,,,,,,,,English,2020-07-02_10h58.52.595,Experiment_English,3.2.4,MacIntel,60,,,1,0,340,11,1,339,ratio12_4_12_7.png,,,,,,,,,,,,
,,,,,,,,,,,,Some,Most,Half,Many,None,More than half,Few,Less than half,All,-0.089917535,0.057439236,1,0,0,QQQ5,,,,,,,,English,2020-07-02_10h58.52.595,Experiment_English,3.2.4,MacIntel,60,,,1,0,340,66,1,339,ratio0Y_0_9_8.png,,,,,,,,,,,,
,,,,,,,,,,,,All,Few,None,Less than half,More than half,Some,Half,Many,Most,-0.116697049,-0.218233507,1,0,0,QQQ6,,,,,,,,English,2020-07-02_10h58.52.595,Experiment_English,3.2.4,MacIntel,60,,,1,0,340,135,1,339,ratio15_3_18_7.png,,,,,,,,,,,,
,,,,,,,,,,,,Half,Most,Less than half,None,Many,More than half,All,Some,Few,0.388237847,-0.272235243,1,0,0,QQQ3,,,,,,,,English,2020-07-02_10h58.52.595,Experiment_English,3.2.4,MacIntel,60,,,1,0,340,186,1,339,ratio23_4_10_2.png,,,,,,,,,,,,
,,,,,,,,,,,,Most,Few,Half,None,All,Many,More than half,Less than half,Some,0.422326389,-0.080221354,1,0,0,QQQ2,,,,,,,,English,2020-07-02_10h58.52.595,Experiment_English,3.2.4,MacIntel,60,,,1,0,340,131,1,339,ratio15_2_12_14.png,,,,,,,,,,,,
,,,,,,,,,,,,Half,Many,Most,All,More than half,Few,None,Less than half,Some,0.056015625,0.266805556,1,0,0,QQQ4,,,,,,,,English,2020-07-02_10h58.52.595,Experiment_English,3.2.4,MacIntel,60,,,1,0,340,41,1,339,ratioX0_4_4_9.png,,,,,,,,,,,,
,,,,,,,,,,,,All,Most,Some,Few,More than half,Less than half,None,Half,Many,0.425876736,0.068771701,1,0,0,QQQ2,,,,,,,,English,2020-07-02_10h58.52.595,Experiment_English,3.2.4,MacIntel,60,,,1,0,340,302,1,339,ratio51_5_6_5.png,,,,,,,,,,,,
,,,,,,,,,,,,Many,Most,Some,Less than half,Few,None,Half,All,More than half,0.14578125,0.363424479,1,0,0,QQQ4,,,,,,,,English,2020-07-02_10h58.52.595,Experiment_English,3.2.4,MacIntel,60,,,1,0,340,180,1,339,ratio23_2_5_4.png,,,,,,,,,,,,
,,,,,,,,,,,,Some,None,Most,All,Many,Half,Less than half,Few,More than half,-0.533502604,0.0209375,1,0,0,QQQ8,,,,,,,,English,2020-07-02_10h58.52.595,Experiment_English,3.2.4,MacIntel,60,,,1,0,340,144,1,339,ratio19_1_10_11.png,,,,,,,,,,,,
,,,,,,,,,,,,Most,Few,Some,Half,Many,All,More than half,None,Less than half,0.501688368,0.280481771,1,0,0,QQQ1,,,,,,,,English,2020-07-02_10h58.52.595,Experiment_English,3.2.4,MacIntel,60,,,1,0,340,331,1,339,ratio91_18_20_3.png,,,,,,,,,,,,
,,,,,,,,,,,,Many,Few,None,Half,More than half,Some,Most,Less than half,All,0.511649306,0.078880208,1,0,0,QQQ2,,,,,,,,English,2020-07-02_10h58.52.595,Experiment_English,3.2.4,MacIntel,60,,,1,0,340,102,1,339,ratio14_1_5_8.png,,,,,,,,,,,,
,,,,,,,,,,,,Half,None,More than half,All,Few,Less than half,Most,Some,Many,-0.35687066,-0.233515625,1,0,0,QQQ9,,,,,,,,English,2020-07-02_10h58.52.595,Experiment_English,3.2.4,MacIntel,60,,,1,0,340,219,1,339,ratio31_15_20_10.png,,,,,,,,,,,,
,,,,,,,,,,,,Most,Less than half,All,Some,Few,Half,More than half,None,Many,0.504544271,0.239735243,1,0,0,QQQ1,,,,,,,,English,2020-07-02_10h58.52.595,Experiment_English,3.2.4,MacIntel,60,,,1,0,340,336,1,339,ratio91_18_20_12.png,,,,,,,,,,,,
,,,,,,,,,,,,None,Most,Half,Less than half,Some,All,Few,Many,More than half,-0.498880208,-0.014861111,1,0,0,QQQ8,,,,,,,,English,2020-07-02_10h58.52.595,Experiment_English,3.2.4,MacIntel,60,,,1,0,340,218,1,339,ratio31_15_20_7.png,,,,,,,,,,,,
,,,,,,,,,,,,Few,Many,Less than half,Half,All,Some,More than half,Most,None,0.371019965,0.043936632,1,0,0,QQQ2,,,,,,,,English,2020-07-02_10h58.52.595,Experiment_English,3.2.4,MacIntel,60,,,1,0,340,210,1,339,ratio31_9_12_9.png,,,,,,,,,,,,
,,,,,,,,,,,,Few,Less than half,Most,Some,None,Half,More than half,All,Many,-0.376263021,0.220273438,1,0,0,QQQ7,,,,,,,,English,2020-07-02_10h58.52.595,Experiment_English,3.2.4,MacIntel,60,,,1,0,340,281,1,339,ratio43_4_7_4.png,,,,,,,,,,,,
,,,,,,,,,,,,Many,Half,Most,All,Less than half,Few,None,Some,More than half,-0.415282118,-0.268098958,1,0,0,QQQ9,,,,,,,,English,2020-07-02_10h58.52.595,Experiment_English,3.2.4,MacIntel,60,,,1,0,340,286,1,339,ratio43_4_7_15.png,,,,,,,,,,,,
,,,,,,,,,,,,Many,Half,Most,Less than half,Some,None,Few,All,More than half,0.50375434,0.256128472,1,0,0,QQQ1,,,,,,,,English,2020-07-02_10h58.52.595,Experiment_English,3.2.4,MacIntel,60,,,1,0,340,177,1,339,ratio21_12_18_1.png,,,,,,,,,,,,
,,,,,,,,,,,,Some,None,Few,Most,Many,Less than half,Half,All,More than half,0.512695313,0.278654514,1,0,0,QQQ1,,,,,,,,English,2020-07-02_10h58.52.595,Experiment_English,3.2.4,MacIntel,60,,,1,0,340,96,1,339,ratio13_5_20_1.png,,,,,,,,,,,,
,,,,,,,,,,,,None,All,Many,More than half,Few,Less than half,Some,Half,Most,-0.408728299,0.255095486,1,0,0,QQQ7,,,,,,,,English,2020-07-02_10h58.52.595,Experiment_English,3.2.4,MacIntel,60,,,1,0,340,110,1,339,ratio14_3_15_2.png,,,,,,,,,,,,
,,,,,,,,,,,,Most,More than half,Some,Many,All,Few,None,Half,Less than half,-0.444118924,-0.054804687,1,0,0,QQQ8,,,,,,,,English,2020-07-02_10h58.52.595,Experiment_English,3.2.4,MacIntel,60,,,1,0,340,22,1,339,ratio11_3_6_6.png,,,,,,,,,,,,
,,,,,,,,,,,,Many,Less than half,None,All,Half,More than half,Few,Most,Some,0.007803819,-0.267695313,1,0,0,QQQ6,,,,,,,,English,2020-07-02_10h58.52.595,Experiment_English,3.2.4,MacIntel,60,,,1,0,340,205,1,339,ratio31_6_8_2.png,,,,,,,,,,,,
,,,,,,,,,,,,Many,Few,More than half,All,Most,Half,Some,None,Less than half,0.393472222,0.315898438,1,0,0,QQQ1,,,,,,,,English,2020-07-02_10h58.52.595,Experiment_English,3.2.4,MacIntel,60,,,1,0,340,310,1,339,ratio51_10_12_12.png,,,,,,,,,,,,
,,,,,,,,,,,,All,More than half,None,Less than half,Half,Some,Many,Few,Most,-0.387005208,-0.079422743,1,0,0,QQQ8,,,,,,,,English,2020-07-02_10h58.52.595,Experiment_English,3.2.4,MacIntel,60,,,1,0,340,154,1,339,ratio19_2_20_11.png,,,,,,,,,,,,
,,,,,,,,,,,,Many,Less than half,More than half,All,Some,None,Few,Half,Most,0.378376736,0.326636285,1,0,0,QQQ1,,,,,,,,English,2020-07-02_10h58.52.595,Experiment_English,3.2.4,MacIntel,60,,,1,0,340,175,1,339,ratio21_10_15_2.png,,,,,,,,,,,,
,,,,,,,,,,,,Some,Half,Less than half,Many,Few,None,Most,All,More than half,-0.092013889,-0.241297743,1,0,0,QQQ6,,,,,,,,English,2020-07-02_10h58.52.595,Experiment_English,3.2.4,MacIntel,60,,,1,0,340,76,1,339,ratio0Y_0_17_10.png,,,,,,,,,,,,
,,,,,,,,,,,,All,Few,Most,Some,None,Many,Less than half,Half,More than half,0.408467882,-0.021549479,1,0,0,QQQ2,,,,,,,,English,2020-07-02_10h58.52.595,Experiment_English,3.2.4,MacIntel,60,,,1,0,340,82,1,339,ratio13_1_4_7.png,,,,,,,,,,,,
,,,,,,,,,,,,Some,More than half,Half,Many,Few,All,Most,None,Less than half,0.370299479,-0.216666667,1,0,0,QQQ3,,,,,,,,English,2020-07-02_10h58.52.595,Experiment_English,3.2.4,MacIntel,60,,,1,0,340,171,1,339,ratio21_8_12_4.png,,,,,,,,,,,,
,,,,,,,,,,,,Some,More than half,Most,Less than half,Many,None,Few,All,Half,0.073849826,-0.065707465,1,0,0,QQQ5,,,,,,,,English,2020-07-02_10h58.52.595,Experiment_English,3.2.4,MacIntel,60,,,1,0,340,319,1,339,ratio51_15_18_20.png,,,,,,,,,,,,
,,,,,,,,,,,,None,More than half,Many,Some,All,Few,Less than half,Half,Most,0.574036458,-0.322881944,1,0,0,QQQ3,,,,,,,,English,2020-07-02_10h58.52.595,Experiment_English,3.2.4,MacIntel,60,,,1,0,340,179,1,339,ratio21_12_18_8.png,,,,,,,,,,,,
,,,,,,,,,,,,Most,More than half,Few,Many,Less than half,Some,All,Half,None,0.434904514,-0.227552083,1,0,0,QQQ3,,,,,,,,English,2020-07-02_10h58.52.595,Experiment_English,3.2.4,MacIntel,60,,,1,0,340,138,1,339,ratio15_3_18_17.png,,,,,,,,,,,,
,,,,,,,,,,,,Less than half,More than half,Few,All,None,Many,Half,Some,Most,-0.035477431,-0.247317708,1,0,0,QQQ6,,,,,,,,English,2020-07-02_10h58.52.595,Experiment_English,3.2.4,MacIntel,60,,,1,0,340,308,1,339,ratio51_10_12_9.png,,,,,,,,,,,,
,,,,,,,,,,,,All,Most,More than half,Less than half,None,Many,Few,Half,Some,-0.37734375,-0.063333333,1,0,0,QQQ8,,,,,,,,English,2020-07-02_10h58.52.595,Experiment_English,3.2.4,MacIntel,60,,,1,0,340,31,1,339,ratio11_6_12_9.png,,,,,,,,,,,,
,,,,,,,,,,,,None,More than half,Half,Few,Most,Some,All,Many,Less than half,0.497586806,-0.206488715,1,0,0,QQQ3,,,,,,,,English,2020-07-02_10h58.52.595,Experiment_English,3.2.4,MacIntel,60,,,1,0,340,293,1,339,ratio43_8_14_7.png,0.398220486,-0.391189236,1,0,0,continue_button_pause,1,0,1,0,1,0
,,,,,,,,,,,,,,,,,,,,,,,,,,,,,,,,,,English,2020-07-02_10h58.52.595,Experiment_English,3.2.4,MacIntel,60,,,1,0,340,293,1,339,ratio43_8_14_7.png,,,,,,,,,,,,
,,,,,,,,,,,,All,More than half,Some,Half,Few,None,Many,Less than half,Most,-0.51375,0.378111979,1,0,0,QQQ7,,,,,,,,English,2020-07-02_10h58.52.595,Experiment_English,3.2.4,MacIntel,60,,,1,0,340,307,1,339,ratio51_10_12_1.png,,,,,,,,,,,,
,,,,,,,,,,,,All,Half,Some,Many,More than half,Few,Most,None,Less than half,0.060177951,-0.314357639,1,0,0,QQQ6,,,,,,,,English,2020-07-02_10h58.52.595,Experiment_English,3.2.4,MacIntel,60,,,1,0,340,130,1,339,ratio15_2_12_12.png,,,,,,,,,,,,
,,,,,,,,,,,,All,Some,Few,None,Most,More than half,Half,Many,Less than half,0.008151042,-0.268715278,1,0,0,QQQ6,,,,,,,,English,2020-07-02_10h58.52.595,Experiment_English,3.2.4,MacIntel,60,,,1,0,340,223,1,339,ratio32_3_5_5.png,,,,,,,,,,,,
,,,,,,,,,,,,Less than half,All,Many,Few,Half,None,Some,More than half,Most,0.446770833,-0.251154514,1,0,0,QQQ3,,,,,,,,English,2020-07-02_10h58.52.595,Experiment_English,3.2.4,MacIntel,60,,,1,0,340,326,1,339,ratio91_9_10_10.png,,,,,,,,,,,,
,,,,,,,,,,,,Few,Less than half,Half,Many,Some,More than half,Most,None,All,0.120130208,-0.264696181,1,0,0,QQQ6,,,,,,,,English,2020-07-02_10h58.52.595,Experiment_English,3.2.4,MacIntel,60,,,1,0,340,25,1,339,ratio11_4_8_10.png,,,,,,,,,,,,
,,,,,,,,,,,,Many,Half,Some,All,Most,Less than half,None,More than half,Few,-0.513615451,0.287560764,1,0,0,QQQ7,,,,,,,,English,2020-07-02_10h58.52.595,Experiment_English,3.2.4,MacIntel,60,,,1,0,340,74,1,339,ratio0Y_0_15_10.png,,,,,,,,,,,,
,,,,,,,,,,,,Few,Most,None,Less than half,Many,All,More than half,Some,Half,-0.492760417,-0.340121528,1,0,0,QQQ9,,,,,,,,English,2020-07-02_10h58.52.595,Experiment_English,3.2.4,MacIntel,60,,,1,0,340,253,1,339,ratio34_6_14_5.png,,,,,,,,,,,,
,,,,,,,,,,,,Some,None,Most,Few,More than half,Many,Less than half,All,Half,-0.439205729,0.306727431,1,0,0,QQQ7,,,,,,,,English,2020-07-02_10h58.52.595,Experiment_English,3.2.4,MacIntel,60,,,1,0,340,185,1,339,ratio23_4_10_1.png,,,,,,,,,,,,
,,,,,,,,,,,,Half,All,Most,Less than half,None,Many,Few,Some,More than half,-0.532604167,0.350056424,1,0,0,QQQ7,,,,,,,,English,2020-07-02_10h58.52.595,Experiment_English,3.2.4,MacIntel,60,,,1,0,340,143,1,339,ratio19_1_10_9.png,,,,,,,,,,,,
,,,,,,,,,,,,Less than half,Most,All,None,Few,Many,More than half,Some,Half,0.61265191,0.342539062,1,0,0,QQQ1,,,,,,,,English,2020-07-02_10h58.52.595,Experiment_English,3.2.4,MacIntel,60,,,1,0,340,19,1,339,ratio12_6_18_9.png,,,,,,,,,,,,
,,,,,,,,,,,,None,Less than half,Some,All,Most,Half,Many,More than half,Few,0.589865451,-0.001549479,1,0,0,QQQ2,,,,,,,,English,2020-07-02_10h58.52.595,Experiment_English,3.2.4,MacIntel,60,,,1,0,340,28,1,339,ratio11_5_10_9.png,,,,,,,,,,,,
,,,,,,,,,,,,None,All,More than half,Few,Many,Most,Some,Half,Less than half,-0.431467014,0.312096354,1,0,0,QQQ7,,,,,,,,English,2020-07-02_10h58.52.595,Experiment_English,3.2.4,MacIntel,60,,,1,0,340,136,1,339,ratio15_3_18_8.png,,,,,,,,,,,,
,,,,,,,,,,,,Most,Half,None,More than half,Many,Some,Few,Less than half,All,0.039852431,-0.037473958,1,0,0,QQQ5,,,,,,,,English,2020-07-02_10h58.52.595,Experiment_English,3.2.4,MacIntel,60,,,1,0,340,311,1,339,ratio51_10_12_14.png,,,,,,,,,,,,
,,,,,,,,,,,,None,Half,All,Less than half,More than half,Some,Most,Many,Few,0.50000434,0.052426215,1,0,0,QQQ2,,,,,,,,English,2020-07-02_10h58.52.595,Experiment_English,3.2.4,MacIntel,60,,,1,0,340,35,1,339,ratio11_8_16_10.png,,,,,,,,,,,,
,,,,,,,,,,,,Less than half,Half,All,None,Many,Most,Some,Few,More than half,0.09843316,0.056210938,1,0,0,QQQ5,,,,,,,,English,2020-07-02_10h58.52.595,Experiment_English,3.2.4,MacIntel,60,,,1,0,340,277,1,339,ratio41_16_20_8.png,,,,,,,,,,,,
,,,,,,,,,,,,None,More than half,Most,Half,All,Few,Some,Less than half,Many,0.130889757,-0.252890625,1,0,0,QQQ6,,,,,,,,English,2020-07-02_10h58.52.595,Experiment_English,3.2.4,MacIntel,60,,,1,0,340,181,1,339,ratio23_2_5_6.png,,,,,,,,,,,,
,,,,,,,,,,,,More than half,Less than half,None,Most,All,Half,Many,Some,Few,0.491475694,-0.302664931,1,0,0,QQQ3,,,,,,,,English,2020-07-02_10h58.52.595,Experiment_English,3.2.4,MacIntel,60,,,1,0,340,67,1,339,ratio0Y_0_10_10.png,,,,,,,,,,,,
,,,,,,,,,,,,More than half,Few,All,Most,Less than half,None,Half,Many,Some,0.440581597,-0.097269965,1,0,0,QQQ2,,,,,,,,English,2020-07-02_10h58.52.595,Experiment_English,3.2.4,MacIntel,60,,,1,0,340,87,1,339,ratio13_2_8_8.png,,,,,,,,,,,,
,,,,,,,,,,,,All,None,More than half,Few,Many,Less than half,Half,Most,Some,-0.421315104,-0.295264757,1,0,0,QQQ9,,,,,,,,English,2020-07-02_10h58.52.595,Experiment_English,3.2.4,MacIntel,60,,,1,0,340,188,1,339,ratio23_4_10_6.png,,,,,,,,,,,,
,,,,,,,,,,,,Less than half,Some,Many,Few,All,None,Most,More than half,Half,0.449565972,-0.290642361,1,0,0,QQQ3,,,,,,,,English,2020-07-02_10h58.52.595,Experiment_English,3.2.4,MacIntel,60,,,1,0,340,217,1,339,ratio31_15_20_5.png,,,,,,,,,,,,
,,,,,,,,,,,,More than half,Some,All,Many,None,Half,Few,Most,Less than half,-0.522291667,-0.273836806,1,0,0,QQQ9,,,,,,,,English,2020-07-02_10h58.52.595,Experiment_English,3.2.4,MacIntel,60,,,1,0,340,18,1,339,ratio12_6_18_7.png,,,,,,,,,,,,
,,,,,,,,,,,,All,Few,Most,Many,Some,None,Half,More than half,Less than half,0.570364583,0.078975694,1,0,0,QQQ2,,,,,,,,English,2020-07-02_10h58.52.595,Experiment_English,3.2.4,MacIntel,60,,,1,0,340,103,1,339,ratio14_1_5_9.png,,,,,,,,,,,,
,,,,,,,,,,,,All,Most,Less than half,Half,Many,Few,More than half,Some,None,-0.110047743,0.33875,1,0,0,QQQ4,,,,,,,,English,2020-07-02_10h58.52.595,Experiment_English,3.2.4,MacIntel,60,,,1,0,340,233,1,339,ratio32_9_15_9.png,,,,,,,,,,,,
,,,,,,,,,,,,Less than half,Half,Few,Many,More than half,Most,None,All,Some,-0.013368056,-0.288615451,1,0,0,QQQ6,,,,,,,,English,2020-07-02_10h58.52.595,Experiment_English,3.2.4,MacIntel,60,,,1,0,340,201,1,339,ratio31_3_4_7.png,,,,,,,,,,,,
,,,,,,,,,,,,Many,More than half,All,Some,Half,Few,None,Less than half,Most,-0.043194444,-0.232261285,1,0,0,QQQ6,,,,,,,,English,2020-07-02_10h58.52.595,Experiment_English,3.2.4,MacIntel,60,,,1,0,340,108,1,339,ratio14_2_10_6.png,,,,,,,,,,,,
,,,,,,,,,,,,Most,All,More than half,None,Few,Half,Some,Less than half,Many,0.562300347,0.332044271,1,0,0,QQQ1,,,,,,,,English,2020-07-02_10h58.52.595,Experiment_English,3.2.4,MacIntel,60,,,1,0,340,337,1,339,ratio91_18_20_16.png,,,,,,,,,,,,
,,,,,,,,,,,,Most,All,More than half,Less than half,Few,Half,Many,Some,None,-0.136115451,-0.240976562,1,0,0,QQQ6,,,,,,,,English,2020-07-02_10h58.52.595,Experiment_English,3.2.4,MacIntel,60,,,1,0,340,191,1,339,ratio23_6_15_7.png,,,,,,,,,,,,
,,,,,,,,,,,,None,Less than half,More than half,Many,Some,Few,Half,All,Most,-0.382599826,0.255707465,1,0,0,QQQ7,,,,,,,,English,2020-07-02_10h58.52.595,Experiment_English,3.2.4,MacIntel,60,,,1,0,340,38,1,339,ratio11_10_20_5.png,,,,,,,,,,,,
,,,,,,,,,,,,Few,None,Less than half,Some,Most,Many,Half,All,More than half,-0.066510417,0.259292535,1,0,0,QQQ4,,,,,,,,English,2020-07-02_10h58.52.595,Experiment_English,3.2.4,MacIntel,60,,,1,0,340,16,1,339,ratio12_5_15_6.png,,,,,,,,,,,,
,,,,,,,,,,,,None,Many,Few,Less than half,Half,Most,All,Some,More than half,-0.063884549,0.062378472,1,0,0,QQQ5,,,,,,,,English,2020-07-02_10h58.52.595,Experiment_English,3.2.4,MacIntel,60,,,1,0,340,250,1,339,ratio34_6_14_1.png,,,,,,,,,,,,
,,,,,,,,,,,,Few,Some,Half,Less than half,None,Many,All,More than half,Most,-0.424448785,0.027773438,1,0,0,QQQ8,,,,,,,,English,2020-07-02_10h58.52.595,Experiment_English,3.2.4,MacIntel,60,,,1,0,340,226,1,339,ratio32_6_10_5.png,,,,,,,,,,,,
,,,,,,,,,,,,Most,Few,None,Less than half,Many,More than half,Half,Some,All,0.631349826,-0.033389757,1,0,0,QQQ2,,,,,,,,English,2020-07-02_10h58.52.595,Experiment_English,3.2.4,MacIntel,60,,,1,0,340,123,1,339,ratio15_1_6_12.png,,,,,,,,,,,,
,,,,,,,,,,,,Many,None,Less than half,Most,Some,More than half,All,Few,Half,0.489761285,-0.246297743,1,0,0,QQQ3,,,,,,,,English,2020-07-02_10h58.52.595,Experiment_English,3.2.4,MacIntel,60,,,1,0,340,7,1,339,ratio12_3_9_2.png,,,,,,,,,,,,
,,,,,,,,,,,,Half,More than half,Most,None,Some,All,Less than half,Few,Many,-0.349500868,-0.331223958,1,0,0,QQQ9,,,,,,,,English,2020-07-02_10h58.52.595,Experiment_English,3.2.4,MacIntel,60,,,1,0,340,230,1,339,ratio32_9_15_1.png,0.300056424,-0.374926215,1,0,0,continue_button_pause,1,0,1,0,1,0
,,,,,,,,,,,,,,,,,,,,,,,,,,,,,,,,,,English,2020-07-02_10h58.52.595,Experiment_English,3.2.4,MacIntel,60,,,1,0,340,230,1,339,ratio32_9_15_1.png,,,,,,,,,,,,
,,,,,,,,,,,,All,Most,Half,Some,None,Few,Many,Less than half,More than half,0.457790799,-0.223849826,1,0,0,QQQ3,,,,,,,,English,2020-07-02_10h58.52.595,Experiment_English,3.2.4,MacIntel,60,,,1,0,340,225,1,339,ratio32_6_10_4.png,,,,,,,,,,,,
,,,,,,,,,,,,Few,Many,Most,All,Half,Less than half,More than half,Some,None,-0.563025174,0.26124566,1,0,0,QQQ7,,,,,,,,English,2020-07-02_10h58.52.595,Experiment_English,3.2.4,MacIntel,60,,,1,0,340,163,1,339,ratio21_4_6_1.png,,,,,,,,,,,,
,,,,,,,,,,,,Few,Less than half,Most,All,None,More than half,Many,Some,Half,-0.525438368,0.228493924,1,0,0,QQQ7,,,,,,,,English,2020-07-02_10h58.52.595,Experiment_English,3.2.4,MacIntel,60,,,1,0,340,190,1,339,ratio23_6_15_3.png,,,,,,,,,,,,
,,,,,,,,,,,,Half,Most,All,More than half,Some,Many,None,Few,Less than half,0.038741319,-0.22141059,1,0,0,QQQ6,,,,,,,,English,2020-07-02_10h58.52.595,Experiment_English,3.2.4,MacIntel,60,,,1,0,340,301,1,339,ratio51_5_6_4.png,,,,,,,,,,,,
,,,,,,,,,,,,More than half,Most,None,Half,Many,Few,Less than half,All,Some,-0.428333333,0.340551215,1,0,0,QQQ7,,,,,,,,English,2020-07-02_10h58.52.595,Experiment_English,3.2.4,MacIntel,60,,,1,0,340,254,1,339,ratio34_6_14_9.png,,,,,,,,,,,,
,,,,,,,,,,,,Many,Most,None,Less than half,Some,Few,All,More than half,Half,0.126514757,-0.335121528,1,0,0,QQQ6,,,,,,,,English,2020-07-02_10h58.52.595,Experiment_English,3.2.4,MacIntel,60,,,1,0,340,106,1,339,ratio14_2_10_2.png,,,,,,,,,,,,
,,,,,,,,,,,,Half,More than half,Most,None,Many,All,Few,Less than half,Some,0.022725694,-0.078719618,1,0,0,QQQ5,,,,,,,,English,2020-07-02_10h58.52.595,Experiment_English,3.2.4,MacIntel,60,,,1,0,340,279,1,339,ratio41_16_20_10.png,,,,,,,,,,,,
,,,,,,,,,,,,Half,Many,Some,Most,Few,All,Less than half,None,More than half,0.513411458,-0.013984375,1,0,0,QQQ2,,,,,,,,English,2020-07-02_10h58.52.595,Experiment_English,3.2.4,MacIntel,60,,,1,0,340,318,1,339,ratio51_15_18_18.png,,,,,,,,,,,,
,,,,,,,,,,,,Many,Half,Most,More than half,Less than half,Some,None,All,Few,-0.584275174,-0.022864583,1,0,0,QQQ8,,,,,,,,English,2020-07-02_10h58.52.595,Experiment_English,3.2.4,MacIntel,60,,,1,0,340,59,1,339,ratioX0_20_20_9.png,,,,,,,,,,,,
,,,,,,,,,,,,Less than half,More than half,Many,Most,None,Some,Few,Half,All,-0.121388889,-0.230217014,1,0,0,QQQ6,,,,,,,,English,2020-07-02_10h58.52.595,Experiment_English,3.2.4,MacIntel,60,,,1,0,340,93,1,339,ratio13_4_16_7.png,,,,,,,,,,,,
,,,,,,,,,,,,Many,Few,Half,Most,More than half,Less than half,Some,All,None,0.654635417,-0.066388889,1,0,0,QQQ2,,,,,,,,English,2020-07-02_10h58.52.595,Experiment_English,3.2.4,MacIntel,60,,,1,0,340,147,1,339,ratio19_1_10_18.png,,,,,,,,,,,,
,,,,,,,,,,,,Many,All,Most,None,Half,Some,More than half,Less than half,Few,-0.441432292,-0.330980903,1,0,0,QQQ9,,,,,,,,English,2020-07-02_10h58.52.595,Experiment_English,3.2.4,MacIntel,60,,,1,0,340,141,1,339,ratio19_1_10_2.png,,,,,,,,,,,,
,,,,,,,,,,,,Many,Few,All,Most,Less than half,Half,None,More than half,Some,-0.348723958,-0.018506944,1,0,0,QQQ8,,,,,,,,English,2020-07-02_10h58.52.595,Experiment_English,3.2.4,MacIntel,60,,,1,0,340,274,1,339,ratio41_12_15_9.png,,,,,,,,,,,,
,,,,,,,,,,,,Most,Some,Half,All,Less than half,Many,More than half,Few,None,0.51203559,0.331592882,1,0,0,QQQ1,,,,,,,,English,2020-07-02_10h58.52.595,Experiment_English,3.2.4,MacIntel,60,,,1,0,340,203,1,339,ratio31_3_4_9.png,,,,,,,,,,,,
,,,,,,,,,,,,More than half,Half,Less than half,Many,All,None,Most,Some,Few,0.364978299,0.042460937,1,0,0,QQQ2,,,,,,,,English,2020-07-02_10h58.52.595,Experiment_English,3.2.4,MacIntel,60,,,1,0,340,23,1,339,ratio11_3_6_9.png,,,,,,,,,,,,
,,,,,,,,,,,,Less than half,More than half,Some,Most,Few,Many,None,All,Half,0.423871528,0.250842014,1,0,0,QQQ1,,,,,,,,English,2020-07-02_10h58.52.595,Experiment_English,3.2.4,MacIntel,60,,,1,0,340,244,1,339,ratio34_3_7_9.png,,,,,,,,,,,,
,,,,,,,,,,,,Most,Many,All,Some,Half,More than half,Less than half,None,Few,0.407465278,0.237052951,1,0,0,QQQ1,,,,,,,,English,2020-07-02_10h58.52.595,Experiment_English,3.2.4,MacIntel,60,,,1,0,340,263,1,339,ratio41_4_5_5.png,,,,,,,,,,,,
,,,,,,,,,,,,Less than half,Some,Half,None,All,Many,Few,Most,More than half,0.454626736,-0.026032986,1,0,0,QQQ2,,,,,,,,English,2020-07-02_10h58.52.595,Experiment_English,3.2.4,MacIntel,60,,,1,0,340,99,1,339,ratio13_5_20_4.png,,,,,,,,,,,,
,,,,,,,,,,,,Few,All,Many,Less than half,More than half,Half,Some,Most,None,-0.403498264,0.235351563,1,0,0,QQQ7,,,,,,,,English,2020-07-02_10h58.52.595,Experiment_English,3.2.4,MacIntel,60,,,1,0,340,216,1,339,ratio31_15_20_3.png,,,,,,,,,,,,
,,,,,,,,,,,,Most,None,Few,Less than half,Many,Half,More than half,All,Some,0.593493924,-0.370490451,1,0,0,QQQ3,,,,,,,,English,2020-07-02_10h58.52.595,Experiment_English,3.2.4,MacIntel,60,,,1,0,340,85,1,339,ratio13_2_8_5.png,,,,,,,,,,,,
,,,,,,,,,,,,None,More than half,Most,Less than half,Many,Half,Some,Few,All,0.414040799,-0.261953125,1,0,0,QQQ3,,,,,,,,English,2020-07-02_10h58.52.595,Experiment_English,3.2.4,MacIntel,60,,,1,0,340,325,1,339,ratio91_9_10_8.png,,,,,,,,,,,,
,,,,,,,,,,,,None,Some,More than half,Most,Half,Many,All,Less than half,Few,0.401618924,-0.053867187,1,0,0,QQQ2,,,,,,,,English,2020-07-02_10h58.52.595,Experiment_English,3.2.4,MacIntel,60,,,1,0,340,4,1,339,ratio12_2_6_5.png,,,,,,,,,,,,
,,,,,,,,,,,,Half,All,Few,Some,Less than half,More than half,Most,Many,None,0.529539931,-0.308224826,1,0,0,QQQ3,,,,,,,,English,2020-07-02_10h58.52.595,Experiment_English,3.2.4,MacIntel,60,,,1,0,340,91,1,339,ratio13_3_12_10.png,,,,,,,,,,,,
,,,,,,,,,,,,All,None,More than half,Many,Some,Most,Few,Half,Less than half,-0.05218316,-0.237200521,1,0,0,QQQ6,,,,,,,,English,2020-07-02_10h58.52.595,Experiment_English,3.2.4,MacIntel,60,,,1,0,340,264,1,339,ratio41_4_5_6.png,,,,,,,,,,,,
,,,,,,,,,,,,Less than half,Many,Half,None,Few,Most,More than half,All,Some,0.37234809,-0.001549479,1,0,0,QQQ2,,,,,,,,English,2020-07-02_10h58.52.595,Experiment_English,3.2.4,MacIntel,60,,,1,0,340,272,1,339,ratio41_12_15_7.png,,,,,,,,,,,,
,,,,,,,,,,,,More than half,None,Many,Most,Half,Few,Some,All,Less than half,-0.462421875,-0.043250868,1,0,0,QQQ8,,,,,,,,English,2020-07-02_10h58.52.595,Experiment_English,3.2.4,MacIntel,60,,,1,0,340,50,1,339,ratioX0_12_12_3.png,,,,,,,,,,,,
,,,,,,,,,,,,More than half,Half,Many,Some,Most,All,Few,None,Less than half,0.654587674,0.250303819,1,0,0,QQQ1,,,,,,,,English,2020-07-02_10h58.52.595,Experiment_English,3.2.4,MacIntel,60,,,1,0,340,220,1,339,ratio32_3_5_1.png,,,,,,,,,,,,
,,,,,,,,,,,,All,Half,Few,Many,Some,More than half,Less than half,Most,None,0.441844618,-0.253884549,1,0,0,QQQ3,,,,,,,,English,2020-07-02_10h58.52.595,Experiment_English,3.2.4,MacIntel,60,,,1,0,340,125,1,339,ratio15_1_6_19.png,,,,,,,,,,,,
,,,,,,,,,,,,More than half,None,Most,Half,Less than half,Many,Some,All,Few,-0.644353299,-0.270477431,1,0,0,QQQ9,,,,,,,,English,2020-07-02_10h58.52.595,Experiment_English,3.2.4,MacIntel,60,,,1,0,340,153,1,339,ratio19_2_20_8.png,,,,,,,,,,,,
,,,,,,,,,,,,Most,Less than half,All,Few,Many,Half,More than half,None,Some,0.084639757,-0.28952691,1,0,0,QQQ6,,,,,,,,English,2020-07-02_10h58.52.595,Experiment_English,3.2.4,MacIntel,60,,,1,0,340,33,1,339,ratio11_7_14_8.png,,,,,,,,,,,,
,,,,,,,,,,,,Most,Many,Few,None,Half,Some,More than half,Less than half,All,-0.376367187,-0.022855903,1,0,0,QQQ8,,,,,,,,English,2020-07-02_10h58.52.595,Experiment_English,3.2.4,MacIntel,60,,,1,0,340,243,1,339,ratio34_3_7_8.png,,,,,,,,,,,,
,,,,,,,,,,,,Few,Most,All,Less than half,Half,Many,More than half,Some,None,0.045759549,0.315755208,1,0,0,QQQ4,,,,,,,,English,2020-07-02_10h58.52.595,Experiment_English,3.2.4,MacIntel,60,,,1,0,340,295,1,339,ratio43_8_14_11.png,,,,,,,,,,,,
,,,,,,,,,,,,Some,Half,Few,All,More than half,Most,Less than half,None,Many,0.503515625,-0.238368056,1,0,0,QQQ3,,,,,,,,English,2020-07-02_10h58.52.595,Experiment_English,3.2.4,MacIntel,60,,,1,0,340,121,1,339,ratio15_1_6_4.png,,,,,,,,,,,,
,,,,,,,,,,,,None,All,Some,Most,Many,Less than half,Half,Few,More than half,-0.525590278,-0.01859809,1,0,0,QQQ8,,,,,,,,English,2020-07-02_10h58.52.595,Experiment_English,3.2.4,MacIntel,60,,,1,0,340,142,1,339,ratio19_1_10_6.png,,,,,,,,,,,,
