continue_mouse.x,continue_mouse.y,continue_mouse.leftButton,continue_mouse.midButton,continue_mouse.rightButton,continue_mouse.clicked_name,continue_mouse_2.x,continue_mouse_2.y,continue_mouse_2.leftButton,continue_mouse_2.midButton,continue_mouse_2.rightButton,continue_mouse_2.clicked_name,Q1,Q2,Q3,Q4,Q5,Q6,Q7,Q8,Q9,select_answer.x,select_answer.y,select_answer.leftButton,select_answer.midButton,select_answer.rightButton,select_answer.clicked_name,trial.thisRepN,trial.thisTrialN,trial.thisN,trial.thisIndex,trial.ran,trial.order,trials,Native tongue*,date,expName,psychopyVersion,OS,frameRate,key_resp.keys,key_resp.rt,Actual_Experiment.thisRepN,Actual_Experiment.thisTrialN,Actual_Experiment.thisN,Actual_Experiment.thisIndex,Actual_Experiment.ran,Actual_Experiment.order,Pic,mouse_pause.x,mouse_pause.y,mouse_pause.leftButton,mouse_pause.midButton,mouse_pause.rightButton,mouse_pause.clicked_name,pause.thisRepN,pause.thisTrialN,pause.thisN,pause.thisIndex,pause.ran,pause.order
0.3671875,-0.41796875,1,0,0,continue_button,0.421875,-0.438802083,1,0,0,continue_button_2,Less than half,More than half,All,None,Some,Few,Most,Many,Half,-0.05859375,-0.01953125,1,0,0,QQQ5,1,0,16,12,1,15,ratio13_3_12_3.png,English,2020-07-02_11h00.31.994,Experiment_English,3.2.4,Linux x86_64,60,,,,,,,,,,,,,,,,,,,,,
,,,,,,,,,,,,Half,All,Few,Some,Most,More than half,Less than half,Many,None,-0.048177083,-0.26171875,1,0,0,QQQ6,1,0,16,6,1,15,ratio31_12_16_7.png,English,2020-07-02_11h00.31.994,Experiment_English,3.2.4,Linux x86_64,60,,,,,,,,,,,,,,,,,,,,,
,,,,,,,,,,,,Half,Many,Less than half,Some,Most,All,More than half,Few,None,0.6328125,-0.0234375,1,0,0,QQQ2,1,0,16,15,1,15,ratio0Y_0_14_10.png,English,2020-07-02_11h00.31.994,Experiment_English,3.2.4,Linux x86_64,60,,,,,,,,,,,,,,,,,,,,,
,,,,,,,,,,,,Half,All,Many,Some,Few,None,More than half,Most,Less than half,-0.01171875,0.264322917,1,0,0,QQQ4,1,0,16,14,1,15,ratio11_5_10_6.png,English,2020-07-02_11h00.31.994,Experiment_English,3.2.4,Linux x86_64,60,,,,,,,,,,,,,,,,,,,,,
,,,,,,,,,,,,Many,Half,Some,Most,None,More than half,All,Few,Less than half,-0.4609375,0.013020833,1,0,0,QQQ8,1,0,16,4,1,15,ratio34_3_7_3.png,English,2020-07-02_11h00.31.994,Experiment_English,3.2.4,Linux x86_64,60,,,,,,,,,,,,,,,,,,,,,
,,,,,,,,,,,,All,Most,More than half,Many,Some,Less than half,None,Half,Few,-0.473958333,-0.24609375,1,0,0,QQQ9,,,,,,,,English,2020-07-02_11h00.31.994,Experiment_English,3.2.4,Linux x86_64,60,b,11.75600004,1,0,340,21,1,339,ratio11_2_4_10.png,,,,,,,,,,,,
,,,,,,,,,,,,None,More than half,Half,Less than half,Few,Some,All,Most,Many,-0.057291667,-0.307291667,1,0,0,QQQ6,,,,,,,,English,2020-07-02_11h00.31.994,Experiment_English,3.2.4,Linux x86_64,60,,,1,0,340,62,1,339,ratio0Y_0_5_4.png,,,,,,,,,,,,
,,,,,,,,,,,,Many,All,None,Less than half,Few,Most,Some,More than half,Half,-0.419270833,-0.30078125,1,0,0,QQQ9,,,,,,,,English,2020-07-02_11h00.31.994,Experiment_English,3.2.4,Linux x86_64,60,,,1,0,340,142,1,339,ratio19_1_10_6.png,,,,,,,,,,,,
,,,,,,,,,,,,Less than half,Few,Some,Many,All,Most,Half,None,More than half,-0.401041667,0.3046875,1,0,0,QQQ7,,,,,,,,English,2020-07-02_11h00.31.994,Experiment_English,3.2.4,Linux x86_64,60,,,1,0,340,290,1,339,ratio43_8_14_3.png,,,,,,,,,,,,
,,,,,,,,,,,,More than half,Some,Less than half,Few,Many,None,Half,All,Most,0.506510417,0.002604167,1,0,0,QQQ2,,,,,,,,English,2020-07-02_11h00.31.994,Experiment_English,3.2.4,Linux x86_64,60,,,1,0,340,195,1,339,ratio23_8_20_1.png,,,,,,,,,,,,
,,,,,,,,,,,,Many,Few,None,Most,All,Less than half,Half,More than half,Some,-0.420572917,-0.259114583,1,0,0,QQQ9,,,,,,,,English,2020-07-02_11h00.31.994,Experiment_English,3.2.4,Linux x86_64,60,,,1,0,340,232,1,339,ratio32_9_15_8.png,,,,,,,,,,,,
,,,,,,,,,,,,Most,None,Some,More than half,Few,Half,All,Less than half,Many,-0.57421875,-0.01171875,1,0,0,QQQ8,,,,,,,,English,2020-07-02_11h00.31.994,Experiment_English,3.2.4,Linux x86_64,60,,,1,0,340,199,1,339,ratio23_8_20_8.png,,,,,,,,,,,,
,,,,,,,,,,,,Some,Many,All,Few,More than half,Half,None,Most,Less than half,0.436197917,0.01953125,1,0,0,QQQ2,,,,,,,,English,2020-07-02_11h00.31.994,Experiment_English,3.2.4,Linux x86_64,60,,,1,0,340,71,1,339,ratio0Y_0_12_10.png,,,,,,,,,,,,
,,,,,,,,,,,,Most,Few,Many,Half,None,More than half,Some,Less than half,All,-0.4453125,-0.009114583,1,0,0,QQQ8,,,,,,,,English,2020-07-02_11h00.31.994,Experiment_English,3.2.4,Linux x86_64,60,,,1,0,340,35,1,339,ratio11_8_16_10.png,,,,,,,,,,,,
,,,,,,,,,,,,Few,More than half,Less than half,Half,All,Many,Most,None,Some,0.390625,-0.25390625,1,0,0,QQQ3,,,,,,,,English,2020-07-02_11h00.31.994,Experiment_English,3.2.4,Linux x86_64,60,,,1,0,340,108,1,339,ratio14_2_10_6.png,,,,,,,,,,,,
,,,,,,,,,,,,Most,All,Half,Many,None,Few,Less than half,More than half,Some,0.12109375,0.319010417,1,0,0,QQQ4,,,,,,,,English,2020-07-02_11h00.31.994,Experiment_English,3.2.4,Linux x86_64,60,,,1,0,340,170,1,339,ratio21_6_9_8.png,,,,,,,,,,,,
,,,,,,,,,,,,Most,Less than half,Half,More than half,None,Few,Some,All,Many,0.450520833,-0.283854167,1,0,0,QQQ3,,,,,,,,English,2020-07-02_11h00.31.994,Experiment_English,3.2.4,Linux x86_64,60,,,1,0,340,236,1,339,ratio32_12_20_2.png,,,,,,,,,,,,
,,,,,,,,,,,,Less than half,Half,More than half,Most,None,Many,Some,Few,All,0.537760417,0.33984375,1,0,0,QQQ1,,,,,,,,English,2020-07-02_11h00.31.994,Experiment_English,3.2.4,Linux x86_64,60,,,1,0,340,15,1,339,ratio12_5_15_5.png,,,,,,,,,,,,
,,,,,,,,,,,,Many,None,Half,Most,More than half,All,Few,Some,Less than half,0.036458333,0.286458333,1,0,0,QQQ4,,,,,,,,English,2020-07-02_11h00.31.994,Experiment_English,3.2.4,Linux x86_64,60,,,1,0,340,173,1,339,ratio21_8_12_9.png,,,,,,,,,,,,
,,,,,,,,,,,,All,Few,None,Most,More than half,Many,Half,Less than half,Some,0.444010417,0.09765625,1,0,0,QQQ2,,,,,,,,English,2020-07-02_11h00.31.994,Experiment_English,3.2.4,Linux x86_64,60,,,1,0,340,134,1,339,ratio15_3_18_5.png,,,,,,,,,,,,
,,,,,,,,,,,,None,Few,Half,Most,Many,Less than half,More than half,Some,All,0.055989583,-0.061197917,1,0,0,QQQ5,,,,,,,,English,2020-07-02_11h00.31.994,Experiment_English,3.2.4,Linux x86_64,60,,,1,0,340,44,1,339,ratioX0_7_7_5.png,,,,,,,,,,,,
,,,,,,,,,,,,All,Half,More than half,Many,Some,None,Less than half,Few,Most,0.053385417,-0.05859375,1,0,0,QQQ5,,,,,,,,English,2020-07-02_11h00.31.994,Experiment_English,3.2.4,Linux x86_64,60,,,1,0,340,305,1,339,ratio51_5_6_14.png,,,,,,,,,,,,
,,,,,,,,,,,,More than half,Half,Many,Less than half,Some,Most,None,Few,All,0.48828125,-0.041666667,1,0,0,QQQ2,,,,,,,,English,2020-07-02_11h00.31.994,Experiment_English,3.2.4,Linux x86_64,60,,,1,0,340,287,1,339,ratio43_4_7_17.png,,,,,,,,,,,,
,,,,,,,,,,,,Half,All,Most,Few,Less than half,Some,None,Many,More than half,-0.364583333,-0.013020833,1,0,0,QQQ8,,,,,,,,English,2020-07-02_11h00.31.994,Experiment_English,3.2.4,Linux x86_64,60,,,1,0,340,318,1,339,ratio51_15_18_18.png,,,,,,,,,,,,
,,,,,,,,,,,,All,Many,None,Few,Most,Some,Half,Less than half,More than half,-0.0390625,-0.23828125,1,0,0,QQQ6,,,,,,,,English,2020-07-02_11h00.31.994,Experiment_English,3.2.4,Linux x86_64,60,,,1,0,340,311,1,339,ratio51_10_12_14.png,,,,,,,,,,,,
,,,,,,,,,,,,All,Half,Less than half,More than half,Most,Few,Some,Many,None,0.640625,0.029947917,1,0,0,QQQ2,,,,,,,,English,2020-07-02_11h00.31.994,Experiment_English,3.2.4,Linux x86_64,60,,,1,0,340,207,1,339,ratio31_6_8_9.png,,,,,,,,,,,,
,,,,,,,,,,,,Some,Less than half,Few,None,Half,All,More than half,Most,Many,0.459635417,-0.345052083,1,0,0,QQQ3,,,,,,,,English,2020-07-02_11h00.31.994,Experiment_English,3.2.4,Linux x86_64,60,,,1,0,340,181,1,339,ratio23_2_5_6.png,,,,,,,,,,,,
,,,,,,,,,,,,Half,All,Most,Few,Less than half,Many,Some,More than half,None,-0.114583333,-0.34375,1,0,0,QQQ6,,,,,,,,English,2020-07-02_11h00.31.994,Experiment_English,3.2.4,Linux x86_64,60,,,1,0,340,208,1,339,ratio31_9_12_3.png,,,,,,,,,,,,
,,,,,,,,,,,,None,Many,Most,More than half,Less than half,All,Some,Few,Half,-0.41796875,-0.02734375,1,0,0,QQQ8,,,,,,,,English,2020-07-02_11h00.31.994,Experiment_English,3.2.4,Linux x86_64,60,,,1,0,340,83,1,339,ratio13_1_4_10.png,,,,,,,,,,,,
,,,,,,,,,,,,All,None,Some,Most,More than half,Less than half,Half,Many,Few,-0.430989583,-0.26171875,1,0,0,QQQ9,,,,,,,,English,2020-07-02_11h00.31.994,Experiment_English,3.2.4,Linux x86_64,60,,,1,0,340,141,1,339,ratio19_1_10_2.png,,,,,,,,,,,,
,,,,,,,,,,,,None,Many,Half,Less than half,All,Most,More than half,Few,Some,-0.498697917,-0.2734375,1,0,0,QQQ9,,,,,,,,English,2020-07-02_11h00.31.994,Experiment_English,3.2.4,Linux x86_64,60,,,1,0,340,99,1,339,ratio13_5_20_4.png,,,,,,,,,,,,
,,,,,,,,,,,,None,Many,Most,Few,Less than half,More than half,Some,Half,All,0.390625,-0.055989583,1,0,0,QQQ2,,,,,,,,English,2020-07-02_11h00.31.994,Experiment_English,3.2.4,Linux x86_64,60,,,1,0,340,230,1,339,ratio32_9_15_1.png,,,,,,,,,,,,
,,,,,,,,,,,,All,Some,Half,Less than half,Few,Many,None,More than half,Most,0.087239583,-0.236979167,1,0,0,QQQ6,,,,,,,,English,2020-07-02_11h00.31.994,Experiment_English,3.2.4,Linux x86_64,60,,,1,0,340,213,1,339,ratio31_12_16_2.png,,,,,,,,,,,,
,,,,,,,,,,,,Most,Less than half,Many,All,None,Some,More than half,Half,Few,-0.037760417,-0.244791667,1,0,0,QQQ6,,,,,,,,English,2020-07-02_11h00.31.994,Experiment_English,3.2.4,Linux x86_64,60,,,1,0,340,151,1,339,ratio19_2_20_4.png,,,,,,,,,,,,
,,,,,,,,,,,,Many,Most,Some,Few,None,More than half,Less than half,All,Half,0.3984375,-0.265625,1,0,0,QQQ3,,,,,,,,English,2020-07-02_11h00.31.994,Experiment_English,3.2.4,Linux x86_64,60,,,1,0,340,94,1,339,ratio13_4_16_8.png,,,,,,,,,,,,
,,,,,,,,,,,,None,All,Many,Few,Half,More than half,Some,Most,Less than half,-0.3671875,-0.247395833,1,0,0,QQQ9,,,,,,,,English,2020-07-02_11h00.31.994,Experiment_English,3.2.4,Linux x86_64,60,,,1,0,340,111,1,339,ratio14_3_15_3.png,,,,,,,,,,,,
,,,,,,,,,,,,More than half,Half,Few,Many,All,Most,Less than half,Some,None,-0.373697917,-0.248697917,1,0,0,QQQ9,,,,,,,,English,2020-07-02_11h00.31.994,Experiment_English,3.2.4,Linux x86_64,60,,,1,0,340,73,1,339,ratio0Y_0_14_7.png,,,,,,,,,,,,
,,,,,,,,,,,,All,More than half,Less than half,Most,Many,Few,None,Half,Some,0.407552083,0.283854167,1,0,0,QQQ1,,,,,,,,English,2020-07-02_11h00.31.994,Experiment_English,3.2.4,Linux x86_64,60,,,1,0,340,51,1,339,ratioX0_12_12_9.png,,,,,,,,,,,,
,,,,,,,,,,,,Some,Most,All,Few,More than half,None,Half,Many,Less than half,0.0625,0.264322917,1,0,0,QQQ4,,,,,,,,English,2020-07-02_11h00.31.994,Experiment_English,3.2.4,Linux x86_64,60,,,1,0,340,202,1,339,ratio31_3_4_8.png,0.348958333,-0.377604167,1,0,0,continue_button_pause,1,0,1,0,1,0
,,,,,,,,,,,,,,,,,,,,,,,,,,,,,,,,,,English,2020-07-02_11h00.31.994,Experiment_English,3.2.4,Linux x86_64,60,,,1,0,340,202,1,339,ratio31_3_4_8.png,,,,,,,,,,,,
,,,,,,,,,,,,Many,Half,Few,None,All,Less than half,Most,Some,More than half,-0.40625,0.239583333,1,0,0,QQQ7,,,,,,,,English,2020-07-02_11h00.31.994,Experiment_English,3.2.4,Linux x86_64,60,,,1,0,340,329,1,339,ratio91_9_10_20.png,,,,,,,,,,,,
,,,,,,,,,,,,None,Many,Most,More than half,Less than half,Some,All,Few,Half,-0.43359375,-0.342447917,1,0,0,QQQ9,,,,,,,,English,2020-07-02_11h00.31.994,Experiment_English,3.2.4,Linux x86_64,60,,,1,0,340,288,1,339,ratio43_4_7_18.png,,,,,,,,,,,,
,,,,,,,,,,,,None,Many,Half,Less than half,More than half,Some,All,Most,Few,0.373697917,0.080729167,1,0,0,QQQ2,,,,,,,,English,2020-07-02_11h00.31.994,Experiment_English,3.2.4,Linux x86_64,60,,,1,0,340,209,1,339,ratio31_9_12_6.png,,,,,,,,,,,,
,,,,,,,,,,,,Less than half,More than half,Many,Half,Few,Most,Some,None,All,0.51171875,-0.02734375,1,0,0,QQQ2,,,,,,,,English,2020-07-02_11h00.31.994,Experiment_English,3.2.4,Linux x86_64,60,,,1,0,340,283,1,339,ratio43_4_7_8.png,,,,,,,,,,,,
,,,,,,,,,,,,More than half,None,Most,Few,Half,Less than half,Many,All,Some,0.05859375,-0.229166667,1,0,0,QQQ6,,,,,,,,English,2020-07-02_11h00.31.994,Experiment_English,3.2.4,Linux x86_64,60,,,1,0,340,135,1,339,ratio15_3_18_7.png,,,,,,,,,,,,
,,,,,,,,,,,,Many,Few,Less than half,Most,None,More than half,Half,All,Some,-0.376302083,0.29296875,1,0,0,QQQ7,,,,,,,,English,2020-07-02_11h00.31.994,Experiment_English,3.2.4,Linux x86_64,60,,,1,0,340,291,1,339,ratio43_8_14_5.png,,,,,,,,,,,,
,,,,,,,,,,,,None,More than half,Few,Some,All,Less than half,Half,Most,Many,-0.37890625,0.29296875,1,0,0,QQQ7,,,,,,,,English,2020-07-02_11h00.31.994,Experiment_English,3.2.4,Linux x86_64,60,,,1,0,340,23,1,339,ratio11_3_6_9.png,,,,,,,,,,,,
,,,,,,,,,,,,All,Few,Less than half,Many,Half,None,More than half,Most,Some,0.446614583,0.010416667,1,0,0,QQQ2,,,,,,,,English,2020-07-02_11h00.31.994,Experiment_English,3.2.4,Linux x86_64,60,,,1,0,340,189,1,339,ratio23_4_10_8.png,,,,,,,,,,,,
,,,,,,,,,,,,More than half,Less than half,Some,None,Most,Many,Few,Half,All,-0.102864583,-0.03125,1,0,0,QQQ5,,,,,,,,English,2020-07-02_11h00.31.994,Experiment_English,3.2.4,Linux x86_64,60,,,1,0,340,169,1,339,ratio21_6_9_7.png,,,,,,,,,,,,
,,,,,,,,,,,,All,Most,Some,Few,Half,More than half,Many,None,Less than half,-0.102864583,-0.03125,1,0,0,QQQ5,,,,,,,,English,2020-07-02_11h00.31.994,Experiment_English,3.2.4,Linux x86_64,60,,,1,0,340,226,1,339,ratio32_6_10_5.png,,,,,,,,,,,,
,,,,,,,,,,,,All,None,Less than half,Few,More than half,Half,Most,Many,Some,-0.102864583,-0.03125,1,0,0,QQQ5,,,,,,,,English,2020-07-02_11h00.31.994,Experiment_English,3.2.4,Linux x86_64,60,,,1,0,340,179,1,339,ratio21_12_18_8.png,,,,,,,,,,,,
,,,,,,,,,,,,Most,Half,More than half,All,None,Few,Many,Some,Less than half,-0.390625,-0.024739583,1,0,0,QQQ8,,,,,,,,English,2020-07-02_11h00.31.994,Experiment_English,3.2.4,Linux x86_64,60,,,1,0,340,254,1,339,ratio34_6_14_9.png,,,,,,,,,,,,
,,,,,,,,,,,,Some,More than half,Most,None,All,Less than half,Half,Few,Many,0.447916667,0.268229167,1,0,0,QQQ1,,,,,,,,English,2020-07-02_11h00.31.994,Experiment_English,3.2.4,Linux x86_64,60,,,1,0,340,122,1,339,ratio15_1_6_7.png,,,,,,,,,,,,
,,,,,,,,,,,,Less than half,Some,Many,Half,None,All,Most,More than half,Few,0.509114583,0.036458333,1,0,0,QQQ2,,,,,,,,English,2020-07-02_11h00.31.994,Experiment_English,3.2.4,Linux x86_64,60,,,1,0,340,100,1,339,ratio14_1_5_3.png,,,,,,,,,,,,
,,,,,,,,,,,,More than half,All,None,Most,Some,Half,Less than half,Many,Few,0.08203125,0.25,1,0,0,QQQ4,,,,,,,,English,2020-07-02_11h00.31.994,Experiment_English,3.2.4,Linux x86_64,60,,,1,0,340,162,1,339,ratio21_2_3_9.png,,,,,,,,,,,,
,,,,,,,,,,,,More than half,None,All,Less than half,Few,Some,Many,Most,Half,0.647135417,0.270833333,1,0,0,QQQ1,,,,,,,,English,2020-07-02_11h00.31.994,Experiment_English,3.2.4,Linux x86_64,60,,,1,0,340,292,1,339,ratio43_8_14_6.png,,,,,,,,,,,,
,,,,,,,,,,,,Most,All,Less than half,None,Many,More than half,Some,Half,Few,-0.444010417,-0.360677083,1,0,0,QQQ9,,,,,,,,English,2020-07-02_11h00.31.994,Experiment_English,3.2.4,Linux x86_64,60,,,1,0,340,158,1,339,ratio19_2_20_17.png,,,,,,,,,,,,
,,,,,,,,,,,,Few,Most,All,Less than half,Half,Some,More than half,Many,None,0.381510417,-0.032552083,1,0,0,QQQ2,,,,,,,,English,2020-07-02_11h00.31.994,Experiment_English,3.2.4,Linux x86_64,60,,,1,0,340,275,1,339,ratio41_16_20_2.png,,,,,,,,,,,,
,,,,,,,,,,,,None,Few,Most,Half,Some,All,Less than half,Many,More than half,-0.05859375,-0.036458333,1,0,0,QQQ5,,,,,,,,English,2020-07-02_11h00.31.994,Experiment_English,3.2.4,Linux x86_64,60,,,1,0,340,138,1,339,ratio15_3_18_17.png,,,,,,,,,,,,
,,,,,,,,,,,,Half,Many,Some,All,Most,Less than half,More than half,None,Few,-0.36328125,-0.31640625,1,0,0,QQQ9,,,,,,,,English,2020-07-02_11h00.31.994,Experiment_English,3.2.4,Linux x86_64,60,,,1,0,340,95,1,339,ratio13_4_16_10.png,,,,,,,,,,,,
,,,,,,,,,,,,Less than half,None,Few,All,Half,Many,Some,Most,More than half,0.494791667,0.287760417,1,0,0,QQQ1,,,,,,,,English,2020-07-02_11h00.31.994,Experiment_English,3.2.4,Linux x86_64,60,,,1,0,340,110,1,339,ratio14_3_15_2.png,,,,,,,,,,,,
,,,,,,,,,,,,Less than half,More than half,Few,Most,None,Half,All,Many,Some,0.455729167,-0.259114583,1,0,0,QQQ3,,,,,,,,English,2020-07-02_11h00.31.994,Experiment_English,3.2.4,Linux x86_64,60,,,1,0,340,121,1,339,ratio15_1_6_4.png,,,,,,,,,,,,
,,,,,,,,,,,,Most,Half,Many,All,Less than half,Some,None,More than half,Few,0.455729167,0.263020833,1,0,0,QQQ1,,,,,,,,English,2020-07-02_11h00.31.994,Experiment_English,3.2.4,Linux x86_64,60,,,1,0,340,302,1,339,ratio51_5_6_5.png,,,,,,,,,,,,
,,,,,,,,,,,,Less than half,All,More than half,None,Many,Few,Half,Some,Most,0.395833333,0.225260417,1,0,0,QQQ1,,,,,,,,English,2020-07-02_11h00.31.994,Experiment_English,3.2.4,Linux x86_64,60,,,1,0,340,252,1,339,ratio34_6_14_3.png,,,,,,,,,,,,
,,,,,,,,,,,,All,Few,Less than half,More than half,Half,None,Some,Most,Many,0.03125,0.2265625,1,0,0,QQQ4,,,,,,,,English,2020-07-02_11h00.31.994,Experiment_English,3.2.4,Linux x86_64,60,,,1,0,340,174,1,339,ratio21_10_15_1.png,,,,,,,,,,,,
,,,,,,,,,,,,Most,Less than half,None,More than half,Few,Some,Many,Half,All,0.03125,0.2265625,1,0,0,QQQ4,,,,,,,,English,2020-07-02_11h00.31.994,Experiment_English,3.2.4,Linux x86_64,60,,,1,0,340,331,1,339,ratio91_18_20_3.png,,,,,,,,,,,,
,,,,,,,,,,,,Most,Half,None,Many,All,Less than half,Some,More than half,Few,-0.38671875,-0.33984375,1,0,0,QQQ9,,,,,,,,English,2020-07-02_11h00.31.994,Experiment_English,3.2.4,Linux x86_64,60,,,1,0,340,183,1,339,ratio23_2_5_9.png,,,,,,,,,,,,
,,,,,,,,,,,,All,None,Half,Less than half,More than half,Some,Many,Few,Most,-0.49609375,-0.326822917,1,0,0,QQQ9,,,,,,,,English,2020-07-02_11h00.31.994,Experiment_English,3.2.4,Linux x86_64,60,,,1,0,340,168,1,339,ratio21_6_9_3.png,,,,,,,,,,,,
,,,,,,,,,,,,All,None,More than half,Many,Less than half,Few,Half,Most,Some,-0.408854167,0.234375,1,0,0,QQQ7,,,,,,,,English,2020-07-02_11h00.31.994,Experiment_English,3.2.4,Linux x86_64,60,,,1,0,340,248,1,339,ratio34_3_7_19.png,,,,,,,,,,,,
,,,,,,,,,,,,None,Few,Many,Some,Half,More than half,All,Less than half,Most,0.381510417,-0.018229167,1,0,0,QQQ2,,,,,,,,English,2020-07-02_11h00.31.994,Experiment_English,3.2.4,Linux x86_64,60,,,1,0,340,157,1,339,ratio19_2_20_16.png,,,,,,,,,,,,
,,,,,,,,,,,,All,None,Most,Less than half,Some,Many,More than half,Half,Few,0.369791667,-0.30078125,1,0,0,QQQ3,,,,,,,,English,2020-07-02_11h00.31.994,Experiment_English,3.2.4,Linux x86_64,60,,,1,0,340,164,1,339,ratio21_4_6_6.png,,,,,,,,,,,,
,,,,,,,,,,,,Half,None,All,Less than half,More than half,Many,Most,Some,Few,0.1171875,-0.26953125,1,0,0,QQQ6,,,,,,,,English,2020-07-02_11h00.31.994,Experiment_English,3.2.4,Linux x86_64,60,,,1,0,340,218,1,339,ratio31_15_20_7.png,,,,,,,,,,,,
,,,,,,,,,,,,None,Some,Half,Less than half,Most,More than half,Few,All,Many,0.0234375,0.34765625,1,0,0,QQQ4,,,,,,,,English,2020-07-02_11h00.31.994,Experiment_English,3.2.4,Linux x86_64,60,,,1,0,340,182,1,339,ratio23_2_5_7.png,,,,,,,,,,,,
,,,,,,,,,,,,Some,Many,Few,None,Less than half,More than half,Most,All,Half,-0.075520833,-0.37890625,1,0,0,QQQ6,,,,,,,,English,2020-07-02_11h00.31.994,Experiment_English,3.2.4,Linux x86_64,60,,,1,0,340,165,1,339,ratio21_4_6_10.png,0.365885417,-0.380208333,1,0,0,continue_button_pause,1,0,1,0,1,0
,,,,,,,,,,,,,,,,,,,,,,,,,,,,,,,,,,English,2020-07-02_11h00.31.994,Experiment_English,3.2.4,Linux x86_64,60,,,1,0,340,165,1,339,ratio21_4_6_10.png,,,,,,,,,,,,
,,,,,,,,,,,,Most,More than half,Some,Many,Less than half,All,Few,Half,None,-0.384114583,0.298177083,1,0,0,QQQ7,,,,,,,,English,2020-07-02_11h00.31.994,Experiment_English,3.2.4,Linux x86_64,60,,,1,0,340,143,1,339,ratio19_1_10_9.png,,,,,,,,,,,,
,,,,,,,,,,,,Half,All,More than half,Many,Some,Few,None,Most,Less than half,-0.3671875,-0.084635417,1,0,0,QQQ8,,,,,,,,English,2020-07-02_11h00.31.994,Experiment_English,3.2.4,Linux x86_64,60,,,1,0,340,212,1,339,ratio31_12_16_1.png,,,,,,,,,,,,
,,,,,,,,,,,,All,Few,Some,None,More than half,Half,Less than half,Most,Many,-0.50390625,0.376302083,1,0,0,QQQ7,,,,,,,,English,2020-07-02_11h00.31.994,Experiment_English,3.2.4,Linux x86_64,60,,,1,0,340,184,1,339,ratio23_2_5_10.png,,,,,,,,,,,,
,,,,,,,,,,,,Half,More than half,Few,All,Some,None,Many,Less than half,Most,-0.119791667,0.03125,1,0,0,QQQ5,,,,,,,,English,2020-07-02_11h00.31.994,Experiment_English,3.2.4,Linux x86_64,60,,,1,0,340,259,1,339,ratio34_6_14_19.png,,,,,,,,,,,,
,,,,,,,,,,,,Few,Many,Most,Some,More than half,Less than half,None,All,Half,-0.35546875,-0.264322917,1,0,0,QQQ9,,,,,,,,English,2020-07-02_11h00.31.994,Experiment_English,3.2.4,Linux x86_64,60,,,1,0,340,22,1,339,ratio11_3_6_6.png,,,,,,,,,,,,
,,,,,,,,,,,,Few,Many,More than half,Less than half,Most,Some,All,None,Half,-0.1015625,0.23828125,1,0,0,QQQ4,,,,,,,,English,2020-07-02_11h00.31.994,Experiment_English,3.2.4,Linux x86_64,60,,,1,0,340,87,1,339,ratio13_2_8_8.png,,,,,,,,,,,,
,,,,,,,,,,,,None,All,Half,More than half,Some,Less than half,Many,Most,Few,-0.38671875,-0.3671875,1,0,0,QQQ9,,,,,,,,English,2020-07-02_11h00.31.994,Experiment_English,3.2.4,Linux x86_64,60,,,1,0,340,117,1,339,ratio14_4_20_6.png,,,,,,,,,,,,
,,,,,,,,,,,,More than half,All,Half,Few,Many,Less than half,Some,Most,None,-0.059895833,0.0078125,1,0,0,QQQ5,,,,,,,,English,2020-07-02_11h00.31.994,Experiment_English,3.2.4,Linux x86_64,60,,,1,0,340,313,1,339,ratio51_15_18_2.png,,,,,,,,,,,,
,,,,,,,,,,,,More than half,Most,All,None,Some,Half,Less than half,Few,Many,-0.061197917,0.001302083,1,0,0,QQQ5,,,,,,,,English,2020-07-02_11h00.31.994,Experiment_English,3.2.4,Linux x86_64,60,,,1,0,340,192,1,339,ratio23_6_15_8.png,,,,,,,,,,,,
,,,,,,,,,,,,Some,Less than half,None,All,Half,Few,Most,Many,More than half,-0.4765625,0.213541667,1,0,0,QQQ7,,,,,,,,English,2020-07-02_11h00.31.994,Experiment_English,3.2.4,Linux x86_64,60,,,1,0,340,324,1,339,ratio91_9_10_7.png,,,,,,,,,,,,
,,,,,,,,,,,,Few,Some,Many,None,Less than half,More than half,Most,All,Half,-0.4765625,0.21484375,1,0,0,QQQ7,,,,,,,,English,2020-07-02_11h00.31.994,Experiment_English,3.2.4,Linux x86_64,60,,,1,0,340,303,1,339,ratio51_5_6_6.png,,,,,,,,,,,,
,,,,,,,,,,,,Half,Less than half,Most,Few,All,More than half,None,Some,Many,0.131510417,0,1,0,0,QQQ5,,,,,,,,English,2020-07-02_11h00.31.994,Experiment_English,3.2.4,Linux x86_64,60,,,1,0,340,50,1,339,ratioX0_12_12_3.png,,,,,,,,,,,,
,,,,,,,,,,,,More than half,Some,Few,All,None,Less than half,Many,Half,Most,-0.013020833,-0.3515625,1,0,0,QQQ6,,,,,,,,English,2020-07-02_11h00.31.994,Experiment_English,3.2.4,Linux x86_64,60,,,1,0,340,196,1,339,ratio23_8_20_5.png,,,,,,,,,,,,
,,,,,,,,,,,,Many,More than half,Some,All,Less than half,Most,None,Few,Half,0.53515625,0.259114583,1,0,0,QQQ1,,,,,,,,English,2020-07-02_11h00.31.994,Experiment_English,3.2.4,Linux x86_64,60,,,1,0,340,264,1,339,ratio41_4_5_6.png,,,,,,,,,,,,
,,,,,,,,,,,,Most,Less than half,None,Few,Many,More than half,Half,All,Some,-0.048177083,0.328125,1,0,0,QQQ4,,,,,,,,English,2020-07-02_11h00.31.994,Experiment_English,3.2.4,Linux x86_64,60,,,1,0,340,113,1,339,ratio14_3_15_8.png,,,,,,,,,,,,
,,,,,,,,,,,,Half,None,Most,Less than half,Some,Many,All,Few,More than half,0.546875,0.346354167,1,0,0,QQQ1,,,,,,,,English,2020-07-02_11h00.31.994,Experiment_English,3.2.4,Linux x86_64,60,,,1,0,340,235,1,339,ratio32_12_20_1.png,,,,,,,,,,,,
,,,,,,,,,,,,Half,All,Many,Less than half,Some,None,Few,Most,More than half,-0.40234375,0.317708333,1,0,0,QQQ7,,,,,,,,English,2020-07-02_11h00.31.994,Experiment_English,3.2.4,Linux x86_64,60,,,1,0,340,106,1,339,ratio14_2_10_2.png,,,,,,,,,,,,
,,,,,,,,,,,,Half,Few,All,None,Most,Less than half,More than half,Some,Many,0.486979167,0.2109375,1,0,0,QQQ1,,,,,,,,English,2020-07-02_11h00.31.994,Experiment_English,3.2.4,Linux x86_64,60,,,1,0,340,2,1,339,ratio12_1_3_10.png,,,,,,,,,,,,
,,,,,,,,,,,,Most,None,All,Many,More than half,Less than half,Few,Half,Some,-0.412760417,-0.3515625,1,0,0,QQQ9,,,,,,,,English,2020-07-02_11h00.31.994,Experiment_English,3.2.4,Linux x86_64,60,,,1,0,340,153,1,339,ratio19_2_20_8.png,,,,,,,,,,,,
,,,,,,,,,,,,All,None,Half,Most,Few,Less than half,Some,More than half,Many,0.076822917,0.057291667,1,0,0,QQQ5,,,,,,,,English,2020-07-02_11h00.31.994,Experiment_English,3.2.4,Linux x86_64,60,,,1,0,340,160,1,339,ratio21_2_3_2.png,,,,,,,,,,,,
,,,,,,,,,,,,More than half,Many,Few,Less than half,Half,None,All,Some,Most,0.515625,0.020833333,1,0,0,QQQ2,,,,,,,,English,2020-07-02_11h00.31.994,Experiment_English,3.2.4,Linux x86_64,60,,,1,0,340,307,1,339,ratio51_10_12_1.png,,,,,,,,,,,,
,,,,,,,,,,,,Most,More than half,All,Less than half,Some,None,Half,Many,Few,-0.412760417,0.001302083,1,0,0,QQQ8,,,,,,,,English,2020-07-02_11h00.31.994,Experiment_English,3.2.4,Linux x86_64,60,,,1,0,340,34,1,339,ratio11_8_16_8.png,,,,,,,,,,,,
,,,,,,,,,,,,Some,Less than half,More than half,Most,Many,None,All,Half,Few,0.014322917,0.010416667,1,0,0,QQQ5,,,,,,,,English,2020-07-02_11h00.31.994,Experiment_English,3.2.4,Linux x86_64,60,,,1,0,340,314,1,339,ratio51_15_18_4.png,,,,,,,,,,,,
,,,,,,,,,,,,More than half,Half,Some,Most,All,None,Many,Few,Less than half,0.020833333,0.015625,1,0,0,QQQ5,,,,,,,,English,2020-07-02_11h00.31.994,Experiment_English,3.2.4,Linux x86_64,60,,,1,0,340,43,1,339,ratioX0_6_6_9.png,,,,,,,,,,,,
,,,,,,,,,,,,None,Some,More than half,Less than half,All,Many,Half,Most,Few,0.014322917,-0.2578125,1,0,0,QQQ6,,,,,,,,English,2020-07-02_11h00.31.994,Experiment_English,3.2.4,Linux x86_64,60,,,1,0,340,272,1,339,ratio41_12_15_7.png,,,,,,,,,,,,
,,,,,,,,,,,,Half,Most,Less than half,More than half,None,Some,All,Few,Many,0.02734375,0.22265625,1,0,0,QQQ4,,,,,,,,English,2020-07-02_11h00.31.994,Experiment_English,3.2.4,Linux x86_64,60,,,1,0,340,166,1,339,ratio21_6_9_1.png,,,,,,,,,,,,
,,,,,,,,,,,,Some,More than half,Few,Half,All,None,Less than half,Most,Many,0.404947917,-0.268229167,1,0,0,QQQ3,,,,,,,,English,2020-07-02_11h00.31.994,Experiment_English,3.2.4,Linux x86_64,60,,,1,0,340,128,1,339,ratio15_2_12_8.png,,,,,,,,,,,,
,,,,,,,,,,,,Most,Some,Half,Less than half,None,Few,Many,All,More than half,0.518229167,-0.337239583,1,0,0,QQQ3,,,,,,,,English,2020-07-02_11h00.31.994,Experiment_English,3.2.4,Linux x86_64,60,,,1,0,340,18,1,339,ratio12_6_18_7.png,,,,,,,,,,,,
,,,,,,,,,,,,All,Most,Less than half,More than half,None,Few,Many,Half,Some,-0.49609375,0.029947917,1,0,0,QQQ8,,,,,,,,English,2020-07-02_11h00.31.994,Experiment_English,3.2.4,Linux x86_64,60,,,1,0,340,239,1,339,ratio32_12_20_10.png,,,,,,,,,,,,
,,,,,,,,,,,,Few,Less than half,Most,Some,All,More than half,Many,Half,None,0.635416667,0.022135417,1,0,0,QQQ2,,,,,,,,English,2020-07-02_11h00.31.994,Experiment_English,3.2.4,Linux x86_64,60,,,1,0,340,249,1,339,ratio34_3_7_20.png,,,,,,,,,,,,
,,,,,,,,,,,,Half,All,Less than half,Many,Few,Some,Most,More than half,None,-0.013020833,-0.01953125,1,0,0,QQQ5,,,,,,,,English,2020-07-02_11h00.31.994,Experiment_English,3.2.4,Linux x86_64,60,,,1,0,340,132,1,339,ratio15_2_12_16.png,,,,,,,,,,,,
,,,,,,,,,,,,Most,Less than half,More than half,All,Some,Many,Few,Half,None,-0.41796875,0.235677083,1,0,0,QQQ7,,,,,,,,English,2020-07-02_11h00.31.994,Experiment_English,3.2.4,Linux x86_64,60,,,1,0,340,148,1,339,ratio19_1_10_19.png,,,,,,,,,,,,
,,,,,,,,,,,,None,Many,All,Most,Half,Few,Some,More than half,Less than half,0.58203125,0.028645833,1,0,0,QQQ2,,,,,,,,English,2020-07-02_11h00.31.994,Experiment_English,3.2.4,Linux x86_64,60,,,1,0,340,328,1,339,ratio91_9_10_15.png,,,,,,,,,,,,
,,,,,,,,,,,,Some,Less than half,Many,Most,More than half,All,None,Half,Few,-0.020833333,0.369791667,1,0,0,QQQ4,,,,,,,,English,2020-07-02_11h00.31.994,Experiment_English,3.2.4,Linux x86_64,60,,,1,0,340,262,1,339,ratio41_4_5_4.png,0.42578125,-0.397135417,1,0,0,continue_button_pause,1,0,1,0,1,0
,,,,,,,,,,,,,,,,,,,,,,,,,,,,,,,,,,English,2020-07-02_11h00.31.994,Experiment_English,3.2.4,Linux x86_64,60,,,1,0,340,262,1,339,ratio41_4_5_4.png,,,,,,,,,,,,
,,,,,,,,,,,,Few,All,Less than half,More than half,Half,Many,Most,None,Some,0.420572917,0.234375,1,0,0,QQQ1,,,,,,,,English,2020-07-02_11h00.31.994,Experiment_English,3.2.4,Linux x86_64,60,,,1,0,340,159,1,339,ratio19_2_20_20.png,,,,,,,,,,,,
,,,,,,,,,,,,All,More than half,Few,Half,None,Most,Less than half,Many,Some,-0.067708333,-0.05078125,1,0,0,QQQ5,,,,,,,,English,2020-07-02_11h00.31.994,Experiment_English,3.2.4,Linux x86_64,60,,,1,0,340,72,1,339,ratio0Y_0_13_4.png,,,,,,,,,,,,
,,,,,,,,,,,,All,Few,None,Some,Most,Many,More than half,Less than half,Half,0.569010417,-0.283854167,1,0,0,QQQ3,,,,,,,,English,2020-07-02_11h00.31.994,Experiment_English,3.2.4,Linux x86_64,60,,,1,0,340,68,1,339,ratio0Y_0_11_3.png,,,,,,,,,,,,
,,,,,,,,,,,,Most,All,None,Some,Many,More than half,Less than half,Few,Half,0.013020833,0.04296875,1,0,0,QQQ5,,,,,,,,English,2020-07-02_11h00.31.994,Experiment_English,3.2.4,Linux x86_64,60,,,1,0,340,273,1,339,ratio41_12_15_8.png,,,,,,,,,,,,
,,,,,,,,,,,,Most,Half,Many,Less than half,Few,Some,More than half,All,None,0.4765625,0.385416667,1,0,0,QQQ1,,,,,,,,English,2020-07-02_11h00.31.994,Experiment_English,3.2.4,Linux x86_64,60,,,1,0,340,295,1,339,ratio43_8_14_11.png,,,,,,,,,,,,
,,,,,,,,,,,,Most,More than half,Some,All,Many,Less than half,Half,Few,None,0.084635417,0.075520833,1,0,0,QQQ5,,,,,,,,English,2020-07-02_11h00.31.994,Experiment_English,3.2.4,Linux x86_64,60,,,1,0,340,279,1,339,ratio41_16_20_10.png,,,,,,,,,,,,
,,,,,,,,,,,,More than half,Many,Less than half,Few,All,None,Most,Half,Some,0.388020833,-0.229166667,1,0,0,QQQ3,,,,,,,,English,2020-07-02_11h00.31.994,Experiment_English,3.2.4,Linux x86_64,60,,,1,0,340,1,1,339,ratio12_1_3_7.png,,,,,,,,,,,,
,,,,,,,,,,,,Few,None,Some,Most,Many,More than half,Half,All,Less than half,0.071614583,0.078125,1,0,0,QQQ5,,,,,,,,English,2020-07-02_11h00.31.994,Experiment_English,3.2.4,Linux x86_64,60,,,1,0,340,205,1,339,ratio31_6_8_2.png,,,,,,,,,,,,
,,,,,,,,,,,,More than half,Few,Half,None,Many,All,Most,Some,Less than half,0.486979167,0.063802083,1,0,0,QQQ2,,,,,,,,English,2020-07-02_11h00.31.994,Experiment_English,3.2.4,Linux x86_64,60,,,1,0,340,131,1,339,ratio15_2_12_14.png,,,,,,,,,,,,
,,,,,,,,,,,,None,Half,Few,All,More than half,Many,Some,Most,Less than half,-0.135416667,0.3203125,1,0,0,QQQ4,,,,,,,,English,2020-07-02_11h00.31.994,Experiment_English,3.2.4,Linux x86_64,60,,,1,0,340,48,1,339,ratioX0_10_10_1.png,,,,,,,,,,,,
,,,,,,,,,,,,Less than half,Few,All,Half,Most,None,Many,More than half,Some,0.147135417,0.028645833,1,0,0,QQQ5,,,,,,,,English,2020-07-02_11h00.31.994,Experiment_English,3.2.4,Linux x86_64,60,,,1,0,340,323,1,339,ratio91_9_10_5.png,,,,,,,,,,,,
,,,,,,,,,,,,Most,More than half,Less than half,All,Many,Some,Half,None,Few,0.634114583,-0.0390625,1,0,0,QQQ2,,,,,,,,English,2020-07-02_11h00.31.994,Experiment_English,3.2.4,Linux x86_64,60,,,1,0,340,293,1,339,ratio43_8_14_7.png,,,,,,,,,,,,
,,,,,,,,,,,,Some,None,Many,More than half,Few,Less than half,Half,Most,All,0.498697917,-0.21875,1,0,0,QQQ3,,,,,,,,English,2020-07-02_11h00.31.994,Experiment_English,3.2.4,Linux x86_64,60,,,1,0,340,13,1,339,ratio12_5_15_3.png,,,,,,,,,,,,
,,,,,,,,,,,,More than half,None,Many,Half,Few,Most,All,Less than half,Some,0.01953125,-0.014322917,1,0,0,QQQ5,,,,,,,,English,2020-07-02_11h00.31.994,Experiment_English,3.2.4,Linux x86_64,60,,,1,0,340,240,1,339,ratio34_3_7_4.png,,,,,,,,,,,,
,,,,,,,,,,,,More than half,Most,Many,Some,Half,None,All,Less than half,Few,-0.579427083,0.346354167,1,0,0,QQQ7,,,,,,,,English,2020-07-02_11h00.31.994,Experiment_English,3.2.4,Linux x86_64,60,,,1,0,340,58,1,339,ratioX0_19_19_4.png,,,,,,,,,,,,
,,,,,,,,,,,,Few,None,Some,Half,Many,Less than half,More than half,Most,All,-0.401041667,-0.005208333,1,0,0,QQQ8,,,,,,,,English,2020-07-02_11h00.31.994,Experiment_English,3.2.4,Linux x86_64,60,,,1,0,340,304,1,339,ratio51_5_6_13.png,,,,,,,,,,,,
,,,,,,,,,,,,All,Few,Many,More than half,Half,Some,Less than half,Most,None,0.108072917,-0.013020833,1,0,0,QQQ5,,,,,,,,English,2020-07-02_11h00.31.994,Experiment_English,3.2.4,Linux x86_64,60,,,1,0,340,0,1,339,ratio12_1_3_3.png,,,,,,,,,,,,
,,,,,,,,,,,,Some,Most,More than half,All,Few,Many,Less than half,Half,None,0.09375,-0.375,1,0,0,QQQ6,,,,,,,,English,2020-07-02_11h00.31.994,Experiment_English,3.2.4,Linux x86_64,60,,,1,0,340,299,1,339,ratio43_8_14_17.png,,,,,,,,,,,,
,,,,,,,,,,,,Half,None,Less than half,More than half,Few,Most,All,Many,Some,0.380208333,0.23046875,1,0,0,QQQ1,,,,,,,,English,2020-07-02_11h00.31.994,Experiment_English,3.2.4,Linux x86_64,60,,,1,0,340,32,1,339,ratio11_7_14_5.png,,,,,,,,,,,,
,,,,,,,,,,,,None,Some,Less than half,Half,More than half,Many,All,Most,Few,-0.42578125,0.30859375,1,0,0,QQQ7,,,,,,,,English,2020-07-02_11h00.31.994,Experiment_English,3.2.4,Linux x86_64,60,,,1,0,340,54,1,339,ratioX0_15_15_5.png,,,,,,,,,,,,
,,,,,,,,,,,,Few,Many,None,Most,Some,All,Less than half,More than half,Half,0.4296875,0.354166667,1,0,0,QQQ1,,,,,,,,English,2020-07-02_11h00.31.994,Experiment_English,3.2.4,Linux x86_64,60,,,1,0,340,125,1,339,ratio15_1_6_19.png,,,,,,,,,,,,
,,,,,,,,,,,,Few,Most,None,Less than half,More than half,All,Some,Half,Many,-0.40625,0.217447917,1,0,0,QQQ7,,,,,,,,English,2020-07-02_11h00.31.994,Experiment_English,3.2.4,Linux x86_64,60,,,1,0,340,198,1,339,ratio23_8_20_7.png,,,,,,,,,,,,
,,,,,,,,,,,,Some,Less than half,Many,Most,Half,None,Few,More than half,All,-0.436197917,0.282552083,1,0,0,QQQ7,,,,,,,,English,2020-07-02_11h00.31.994,Experiment_English,3.2.4,Linux x86_64,60,,,1,0,340,130,1,339,ratio15_2_12_12.png,,,,,,,,,,,,
,,,,,,,,,,,,None,Less than half,Most,Half,All,More than half,Some,Many,Few,-0.430989583,-0.223958333,1,0,0,QQQ9,,,,,,,,English,2020-07-02_11h00.31.994,Experiment_English,3.2.4,Linux x86_64,60,,,1,0,340,7,1,339,ratio12_3_9_2.png,,,,,,,,,,,,
,,,,,,,,,,,,All,None,Some,Few,Less than half,Many,Half,Most,More than half,-0.072916667,0.278645833,1,0,0,QQQ4,,,,,,,,English,2020-07-02_11h00.31.994,Experiment_English,3.2.4,Linux x86_64,60,,,1,0,340,85,1,339,ratio13_2_8_5.png,,,,,,,,,,,,
,,,,,,,,,,,,Half,Many,All,Few,More than half,Some,None,Less than half,Most,-0.5,0.388020833,1,0,0,QQQ7,,,,,,,,English,2020-07-02_11h00.31.994,Experiment_English,3.2.4,Linux x86_64,60,,,1,0,340,79,1,339,ratio0Y_0_20_4.png,,,,,,,,,,,,
,,,,,,,,,,,,Less than half,Some,Most,None,More than half,Few,All,Many,Half,0.375,0.078125,1,0,0,QQQ2,,,,,,,,English,2020-07-02_11h00.31.994,Experiment_English,3.2.4,Linux x86_64,60,,,1,0,340,19,1,339,ratio12_6_18_9.png,,,,,,,,,,,,
,,,,,,,,,,,,Half,More than half,All,Many,Few,Some,Less than half,Most,None,-0.390625,-0.235677083,1,0,0,QQQ9,,,,,,,,English,2020-07-02_11h00.31.994,Experiment_English,3.2.4,Linux x86_64,60,,,1,0,340,69,1,339,ratio0Y_0_11_6.png,,,,,,,,,,,,
,,,,,,,,,,,,Half,Some,None,Few,Many,Less than half,More than half,All,Most,0.561197917,-0.055989583,1,0,0,QQQ2,,,,,,,,English,2020-07-02_11h00.31.994,Experiment_English,3.2.4,Linux x86_64,60,,,1,0,340,258,1,339,ratio34_6_14_14.png,,,,,,,,,,,,
,,,,,,,,,,,,None,Less than half,Half,Many,Most,All,More than half,Some,Few,0.049479167,0.059895833,1,0,0,QQQ5,,,,,,,,English,2020-07-02_11h00.31.994,Experiment_English,3.2.4,Linux x86_64,60,,,1,0,340,203,1,339,ratio31_3_4_9.png,,,,,,,,,,,,
,,,,,,,,,,,,Most,Few,Many,Less than half,All,Half,More than half,None,Some,0.4609375,-0.263020833,1,0,0,QQQ3,,,,,,,,English,2020-07-02_11h00.31.994,Experiment_English,3.2.4,Linux x86_64,60,,,1,0,340,310,1,339,ratio51_10_12_12.png,,,,,,,,,,,,
,,,,,,,,,,,,Half,More than half,Few,Less than half,All,Many,Most,None,Some,0.00390625,-0.2265625,1,0,0,QQQ6,,,,,,,,English,2020-07-02_11h00.31.994,Experiment_English,3.2.4,Linux x86_64,60,,,1,0,340,333,1,339,ratio91_18_20_6.png,,,,,,,,,,,,
,,,,,,,,,,,,More than half,Most,Some,Half,All,Many,Few,None,Less than half,-0.391927083,0.231770833,1,0,0,QQQ7,,,,,,,,English,2020-07-02_11h00.31.994,Experiment_English,3.2.4,Linux x86_64,60,,,1,0,340,147,1,339,ratio19_1_10_18.png,,,,,,,,,,,,
,,,,,,,,,,,,None,Few,Less than half,More than half,All,Many,Some,Half,Most,-0.427083333,-0.373697917,1,0,0,QQQ9,,,,,,,,English,2020-07-02_11h00.31.994,Experiment_English,3.2.4,Linux x86_64,60,,,1,0,340,319,1,339,ratio51_15_18_20.png,0.264322917,-0.361979167,1,0,0,continue_button_pause,1,0,1,0,1,0
,,,,,,,,,,,,,,,,,,,,,,,,,,,,,,,,,,English,2020-07-02_11h00.31.994,Experiment_English,3.2.4,Linux x86_64,60,,,1,0,340,319,1,339,ratio51_15_18_20.png,,,,,,,,,,,,
,,,,,,,,,,,,Less than half,Few,Most,None,Many,Half,Some,All,More than half,0.416666667,-0.217447917,1,0,0,QQQ3,,,,,,,,English,2020-07-02_11h00.31.994,Experiment_English,3.2.4,Linux x86_64,60,,,1,0,340,274,1,339,ratio41_12_15_9.png,,,,,,,,,,,,
,,,,,,,,,,,,Less than half,Most,Half,None,More than half,Many,All,Few,Some,-0.4140625,0.315104167,1,0,0,QQQ7,,,,,,,,English,2020-07-02_11h00.31.994,Experiment_English,3.2.4,Linux x86_64,60,,,1,0,340,53,1,339,ratioX0_14_14_8.png,,,,,,,,,,,,
,,,,,,,,,,,,Less than half,None,Few,Half,Most,More than half,Some,Many,All,0.38671875,-0.23828125,1,0,0,QQQ3,,,,,,,,English,2020-07-02_11h00.31.994,Experiment_English,3.2.4,Linux x86_64,60,,,1,0,340,12,1,339,ratio12_4_12_10.png,,,,,,,,,,,,
,,,,,,,,,,,,None,More than half,Half,Less than half,All,Many,Some,Most,Few,0.0859375,-0.247395833,1,0,0,QQQ6,,,,,,,,English,2020-07-02_11h00.31.994,Experiment_English,3.2.4,Linux x86_64,60,,,1,0,340,271,1,339,ratio41_12_15_6.png,,,,,,,,,,,,
,,,,,,,,,,,,Most,Many,None,More than half,Half,Less than half,Some,All,Few,-0.606770833,-0.0390625,1,0,0,QQQ8,,,,,,,,English,2020-07-02_11h00.31.994,Experiment_English,3.2.4,Linux x86_64,60,,,1,0,340,42,1,339,ratioX0_5_5_5.png,,,,,,,,,,,,
,,,,,,,,,,,,Many,Less than half,Few,Most,None,More than half,Half,All,Some,-0.3984375,0.31640625,1,0,0,QQQ7,,,,,,,,English,2020-07-02_11h00.31.994,Experiment_English,3.2.4,Linux x86_64,60,,,1,0,340,37,1,339,ratio11_9_18_8.png,,,,,,,,,,,,
,,,,,,,,,,,,More than half,Many,Few,Most,All,Half,Less than half,Some,None,0.634114583,-0.30078125,1,0,0,QQQ3,,,,,,,,English,2020-07-02_11h00.31.994,Experiment_English,3.2.4,Linux x86_64,60,,,1,0,340,112,1,339,ratio14_3_15_4.png,,,,,,,,,,,,
,,,,,,,,,,,,Many,All,Some,Less than half,Most,More than half,Half,Few,None,0.01171875,0.0078125,1,0,0,QQQ5,,,,,,,,English,2020-07-02_11h00.31.994,Experiment_English,3.2.4,Linux x86_64,60,,,1,0,340,326,1,339,ratio91_9_10_10.png,,,,,,,,,,,,
,,,,,,,,,,,,All,Some,Few,None,More than half,Half,Less than half,Many,Most,0.44140625,-0.240885417,1,0,0,QQQ3,,,,,,,,English,2020-07-02_11h00.31.994,Experiment_English,3.2.4,Linux x86_64,60,,,1,0,340,120,1,339,ratio15_1_6_1.png,,,,,,,,,,,,
,,,,,,,,,,,,Less than half,Few,None,Some,More than half,All,Half,Many,Most,-0.385416667,-0.048177083,1,0,0,QQQ8,,,,,,,,English,2020-07-02_11h00.31.994,Experiment_English,3.2.4,Linux x86_64,60,,,1,0,340,178,1,339,ratio21_12_18_2.png,,,,,,,,,,,,
,,,,,,,,,,,,Some,Less than half,More than half,Most,Many,All,Half,Few,None,-0.385416667,-0.048177083,1,0,0,QQQ8,,,,,,,,English,2020-07-02_11h00.31.994,Experiment_English,3.2.4,Linux x86_64,60,,,1,0,340,282,1,339,ratio43_4_7_7.png,,,,,,,,,,,,
,,,,,,,,,,,,None,Many,Half,All,More than half,Some,Most,Few,Less than half,0.481770833,-0.302083333,1,0,0,QQQ3,,,,,,,,English,2020-07-02_11h00.31.994,Experiment_English,3.2.4,Linux x86_64,60,,,1,0,340,237,1,339,ratio32_12_20_5.png,,,,,,,,,,,,
,,,,,,,,,,,,All,Some,Few,None,More than half,Less than half,Half,Most,Many,-0.46484375,-0.216145833,1,0,0,QQQ9,,,,,,,,English,2020-07-02_11h00.31.994,Experiment_English,3.2.4,Linux x86_64,60,,,1,0,340,332,1,339,ratio91_18_20_4.png,,,,,,,,,,,,
,,,,,,,,,,,,All,Few,Half,Many,None,Some,Most,More than half,Less than half,0.497395833,-0.057291667,1,0,0,QQQ2,,,,,,,,English,2020-07-02_11h00.31.994,Experiment_English,3.2.4,Linux x86_64,60,,,1,0,340,86,1,339,ratio13_2_8_6.png,,,,,,,,,,,,
,,,,,,,,,,,,Half,Most,Few,Less than half,Some,More than half,Many,All,None,0.4296875,-0.23828125,1,0,0,QQQ3,,,,,,,,English,2020-07-02_11h00.31.994,Experiment_English,3.2.4,Linux x86_64,60,,,1,0,340,88,1,339,ratio13_3_12_5.png,,,,,,,,,,,,
,,,,,,,,,,,,Most,Half,Less than half,None,More than half,Few,Some,All,Many,0.005208333,-0.048177083,1,0,0,QQQ5,,,,,,,,English,2020-07-02_11h00.31.994,Experiment_English,3.2.4,Linux x86_64,60,,,1,0,340,167,1,339,ratio21_6_9_2.png,,,,,,,,,,,,
,,,,,,,,,,,,Less than half,Many,Some,All,Most,Half,None,Few,More than half,0.005208333,-0.048177083,1,0,0,QQQ5,,,,,,,,English,2020-07-02_11h00.31.994,Experiment_English,3.2.4,Linux x86_64,60,,,1,0,340,321,1,339,ratio91_9_10_2.png,,,,,,,,,,,,
,,,,,,,,,,,,Few,Many,Most,Half,Some,None,Less than half,More than half,All,-0.014322917,-0.229166667,1,0,0,QQQ6,,,,,,,,English,2020-07-02_11h00.31.994,Experiment_English,3.2.4,Linux x86_64,60,,,1,0,340,322,1,339,ratio91_9_10_3.png,,,,,,,,,,,,
,,,,,,,,,,,,None,Half,Few,Less than half,Many,Most,Some,More than half,All,-0.009114583,-0.227864583,1,0,0,QQQ6,,,,,,,,English,2020-07-02_11h00.31.994,Experiment_English,3.2.4,Linux x86_64,60,,,1,0,340,190,1,339,ratio23_6_15_3.png,,,,,,,,,,,,
,,,,,,,,,,,,Less than half,Few,Many,Half,More than half,Some,Most,None,All,-0.467447917,-0.01953125,1,0,0,QQQ8,,,,,,,,English,2020-07-02_11h00.31.994,Experiment_English,3.2.4,Linux x86_64,60,,,1,0,340,78,1,339,ratio0Y_0_19_1.png,,,,,,,,,,,,
,,,,,,,,,,,,Most,All,Some,None,Many,Half,More than half,Few,Less than half,0.390625,-0.067708333,1,0,0,QQQ2,,,,,,,,English,2020-07-02_11h00.31.994,Experiment_English,3.2.4,Linux x86_64,60,,,1,0,340,47,1,339,ratioX0_9_9_4.png,,,,,,,,,,,,
,,,,,,,,,,,,Some,All,More than half,Few,None,Less than half,Most,Many,Half,-0.438802083,0.229166667,1,0,0,QQQ7,,,,,,,,English,2020-07-02_11h00.31.994,Experiment_English,3.2.4,Linux x86_64,60,,,1,0,340,308,1,339,ratio51_10_12_9.png,,,,,,,,,,,,
,,,,,,,,,,,,Few,Many,Half,Most,Some,All,More than half,Less than half,None,0.44140625,0.399739583,1,0,0,QQQ1,,,,,,,,English,2020-07-02_11h00.31.994,Experiment_English,3.2.4,Linux x86_64,60,,,1,0,340,114,1,339,ratio14_3_15_10.png,,,,,,,,,,,,
,,,,,,,,,,,,None,Many,Less than half,All,Most,More than half,Half,Some,Few,0.119791667,0.072916667,1,0,0,QQQ5,,,,,,,,English,2020-07-02_11h00.31.994,Experiment_English,3.2.4,Linux x86_64,60,,,1,0,340,216,1,339,ratio31_15_20_3.png,,,,,,,,,,,,
,,,,,,,,,,,,None,Less than half,Few,All,Half,Some,Most,Many,More than half,0.111979167,0.06640625,1,0,0,QQQ5,,,,,,,,English,2020-07-02_11h00.31.994,Experiment_English,3.2.4,Linux x86_64,60,,,1,0,340,25,1,339,ratio11_4_8_10.png,,,,,,,,,,,,
,,,,,,,,,,,,Half,Some,All,More than half,Less than half,None,Most,Few,Many,-0.34765625,0.03515625,1,0,0,QQQ8,,,,,,,,English,2020-07-02_11h00.31.994,Experiment_English,3.2.4,Linux x86_64,60,,,1,0,340,245,1,339,ratio34_3_7_10.png,,,,,,,,,,,,
,,,,,,,,,,,,Half,Most,None,Few,Some,More than half,Less than half,Many,All,0.486979167,0.061197917,1,0,0,QQQ2,,,,,,,,English,2020-07-02_11h00.31.994,Experiment_English,3.2.4,Linux x86_64,60,,,1,0,340,269,1,339,ratio41_8_10_6.png,,,,,,,,,,,,
,,,,,,,,,,,,None,Most,Few,Less than half,More than half,All,Half,Many,Some,0.07421875,0.251302083,1,0,0,QQQ4,,,,,,,,English,2020-07-02_11h00.31.994,Experiment_English,3.2.4,Linux x86_64,60,,,1,0,340,193,1,339,ratio23_6_15_9.png,,,,,,,,,,,,
,,,,,,,,,,,,More than half,Many,Some,All,Few,Half,None,Most,Less than half,-0.453125,0.046875,1,0,0,QQQ8,,,,,,,,English,2020-07-02_11h00.31.994,Experiment_English,3.2.4,Linux x86_64,60,,,1,0,340,337,1,339,ratio91_18_20_16.png,,,,,,,,,,,,
,,,,,,,,,,,,Most,Some,All,None,Half,More than half,Many,Less than half,Few,0.416666667,0.317708333,1,0,0,QQQ1,,,,,,,,English,2020-07-02_11h00.31.994,Experiment_English,3.2.4,Linux x86_64,60,,,1,0,340,217,1,339,ratio31_15_20_5.png,,,,,,,,,,,,
,,,,,,,,,,,,None,More than half,Many,Few,All,Half,Less than half,Most,Some,-0.001302083,0.236979167,1,0,0,QQQ4,,,,,,,,English,2020-07-02_11h00.31.994,Experiment_English,3.2.4,Linux x86_64,60,,,1,0,340,186,1,339,ratio23_4_10_2.png,,,,,,,,,,,,
,,,,,,,,,,,,Less than half,More than half,Few,Some,All,Most,Half,None,Many,0.477864583,-0.2265625,1,0,0,QQQ3,,,,,,,,English,2020-07-02_11h00.31.994,Experiment_English,3.2.4,Linux x86_64,60,,,1,0,340,4,1,339,ratio12_2_6_5.png,,,,,,,,,,,,
,,,,,,,,,,,,More than half,All,Some,Many,Most,Few,Less than half,None,Half,0.4765625,0.265625,1,0,0,QQQ1,,,,,,,,English,2020-07-02_11h00.31.994,Experiment_English,3.2.4,Linux x86_64,60,,,1,0,340,297,1,339,ratio43_8_14_13.png,,,,,,,,,,,,
,,,,,,,,,,,,Less than half,Many,Few,Half,Some,Most,All,None,More than half,0.475260417,0.265625,1,0,0,QQQ1,,,,,,,,English,2020-07-02_11h00.31.994,Experiment_English,3.2.4,Linux x86_64,60,,,1,0,340,115,1,339,ratio14_4_20_1.png,0.388020833,-0.38671875,1,0,0,continue_button_pause,1,0,1,0,1,0
,,,,,,,,,,,,,,,,,,,,,,,,,,,,,,,,,,English,2020-07-02_11h00.31.994,Experiment_English,3.2.4,Linux x86_64,60,,,1,0,340,115,1,339,ratio14_4_20_1.png,,,,,,,,,,,,
,,,,,,,,,,,,Most,Many,All,Less than half,Some,More than half,None,Few,Half,0.069010417,-0.31640625,1,0,0,QQQ6,,,,,,,,English,2020-07-02_11h00.31.994,Experiment_English,3.2.4,Linux x86_64,60,,,1,0,340,31,1,339,ratio11_6_12_9.png,,,,,,,,,,,,
,,,,,,,,,,,,More than half,Half,Most,Few,Many,None,Less than half,Some,All,0.03125,-0.348958333,1,0,0,QQQ6,,,,,,,,English,2020-07-02_11h00.31.994,Experiment_English,3.2.4,Linux x86_64,60,,,1,0,340,67,1,339,ratio0Y_0_10_10.png,,,,,,,,,,,,
,,,,,,,,,,,,None,Less than half,Most,Few,Some,Many,More than half,All,Half,0.063802083,-0.028645833,1,0,0,QQQ5,,,,,,,,English,2020-07-02_11h00.31.994,Experiment_English,3.2.4,Linux x86_64,60,,,1,0,340,256,1,339,ratio34_6_14_11.png,,,,,,,,,,,,
,,,,,,,,,,,,Most,Many,All,Half,Less than half,None,Some,More than half,Few,0.520833333,0.272135417,1,0,0,QQQ1,,,,,,,,English,2020-07-02_11h00.31.994,Experiment_English,3.2.4,Linux x86_64,60,,,1,0,340,335,1,339,ratio91_18_20_11.png,,,,,,,,,,,,
,,,,,,,,,,,,Half,Many,Some,Most,Less than half,Few,None,More than half,All,-0.032552083,-0.3828125,1,0,0,QQQ6,,,,,,,,English,2020-07-02_11h00.31.994,Experiment_English,3.2.4,Linux x86_64,60,,,1,0,340,11,1,339,ratio12_4_12_7.png,,,,,,,,,,,,
,,,,,,,,,,,,None,More than half,Half,Less than half,Few,Some,Many,Most,All,-0.423177083,-0.0390625,1,0,0,QQQ8,,,,,,,,English,2020-07-02_11h00.31.994,Experiment_English,3.2.4,Linux x86_64,60,,,1,0,340,320,1,339,ratio91_9_10_1.png,,,,,,,,,,,,
,,,,,,,,,,,,Most,Many,Few,Some,All,More than half,Half,None,Less than half,-0.497395833,0.05078125,1,0,0,QQQ8,,,,,,,,English,2020-07-02_11h00.31.994,Experiment_English,3.2.4,Linux x86_64,60,,,1,0,340,70,1,339,ratio0Y_0_12_5.png,,,,,,,,,,,,
,,,,,,,,,,,,Many,More than half,Most,None,All,Few,Some,Half,Less than half,0.553385417,-0.256510417,1,0,0,QQQ3,,,,,,,,English,2020-07-02_11h00.31.994,Experiment_English,3.2.4,Linux x86_64,60,,,1,0,340,268,1,339,ratio41_8_10_5.png,,,,,,,,,,,,
,,,,,,,,,,,,Less than half,Few,Half,All,More than half,Some,Most,Many,None,0.549479167,-0.063802083,1,0,0,QQQ2,,,,,,,,English,2020-07-02_11h00.31.994,Experiment_English,3.2.4,Linux x86_64,60,,,1,0,340,136,1,339,ratio15_3_18_8.png,,,,,,,,,,,,
,,,,,,,,,,,,None,Some,Half,Many,Most,More than half,Few,Less than half,All,-0.37890625,-0.015625,1,0,0,QQQ8,,,,,,,,English,2020-07-02_11h00.31.994,Experiment_English,3.2.4,Linux x86_64,60,,,1,0,340,197,1,339,ratio23_8_20_6.png,,,,,,,,,,,,
,,,,,,,,,,,,None,Half,Few,More than half,All,Many,Most,Less than half,Some,0.473958333,-0.33203125,1,0,0,QQQ3,,,,,,,,English,2020-07-02_11h00.31.994,Experiment_English,3.2.4,Linux x86_64,60,,,1,0,340,93,1,339,ratio13_4_16_7.png,,,,,,,,,,,,
,,,,,,,,,,,,Most,Less than half,Many,Few,Some,None,More than half,All,Half,-0.52734375,0.345052083,1,0,0,QQQ7,,,,,,,,English,2020-07-02_11h00.31.994,Experiment_English,3.2.4,Linux x86_64,60,,,1,0,340,221,1,339,ratio32_3_5_3.png,,,,,,,,,,,,
,,,,,,,,,,,,Most,Half,Many,Less than half,More than half,None,All,Few,Some,0.03515625,0.287760417,1,0,0,QQQ4,,,,,,,,English,2020-07-02_11h00.31.994,Experiment_English,3.2.4,Linux x86_64,60,,,1,0,340,188,1,339,ratio23_4_10_6.png,,,,,,,,,,,,
,,,,,,,,,,,,Most,Less than half,All,Some,Few,None,Many,Half,More than half,0.479166667,0.283854167,1,0,0,QQQ1,,,,,,,,English,2020-07-02_11h00.31.994,Experiment_English,3.2.4,Linux x86_64,60,,,1,0,340,270,1,339,ratio41_12_15_3.png,,,,,,,,,,,,
,,,,,,,,,,,,Many,Less than half,Half,Some,Most,More than half,None,All,Few,-0.436197917,0.236979167,1,0,0,QQQ7,,,,,,,,English,2020-07-02_11h00.31.994,Experiment_English,3.2.4,Linux x86_64,60,,,1,0,340,74,1,339,ratio0Y_0_15_10.png,,,,,,,,,,,,
,,,,,,,,,,,,None,More than half,Some,Few,Many,All,Less than half,Most,Half,-0.096354167,-0.01171875,1,0,0,QQQ5,,,,,,,,English,2020-07-02_11h00.31.994,Experiment_English,3.2.4,Linux x86_64,60,,,1,0,340,176,1,339,ratio21_10_15_3.png,,,,,,,,,,,,
,,,,,,,,,,,,Some,None,All,Few,Half,Many,More than half,Most,Less than half,-0.05859375,-0.303385417,1,0,0,QQQ6,,,,,,,,English,2020-07-02_11h00.31.994,Experiment_English,3.2.4,Linux x86_64,60,,,1,0,340,339,1,339,ratio91_18_20_19.png,,,,,,,,,,,,
,,,,,,,,,,,,None,Many,Few,More than half,Some,All,Less than half,Half,Most,0.061197917,0.22265625,1,0,0,QQQ4,,,,,,,,English,2020-07-02_11h00.31.994,Experiment_English,3.2.4,Linux x86_64,60,,,1,0,340,211,1,339,ratio31_9_12_10.png,,,,,,,,,,,,
,,,,,,,,,,,,More than half,Most,None,Many,Some,All,Less than half,Half,Few,0.446614583,-0.01171875,1,0,0,QQQ2,,,,,,,,English,2020-07-02_11h00.31.994,Experiment_English,3.2.4,Linux x86_64,60,,,1,0,340,200,1,339,ratio31_3_4_4.png,,,,,,,,,,,,
,,,,,,,,,,,,Many,All,Some,Less than half,Most,Half,Few,None,More than half,0.446614583,-0.01171875,1,0,0,QQQ2,,,,,,,,English,2020-07-02_11h00.31.994,Experiment_English,3.2.4,Linux x86_64,60,,,1,0,340,49,1,339,ratioX0_11_11_2.png,,,,,,,,,,,,
,,,,,,,,,,,,All,Some,Most,More than half,None,Less than half,Many,Few,Half,-0.46875,-0.002604167,1,0,0,QQQ8,,,,,,,,English,2020-07-02_11h00.31.994,Experiment_English,3.2.4,Linux x86_64,60,,,1,0,340,156,1,339,ratio19_2_20_14.png,,,,,,,,,,,,
,,,,,,,,,,,,None,Many,Half,All,Most,Less than half,More than half,Few,Some,-0.46875,-0.002604167,1,0,0,QQQ8,,,,,,,,English,2020-07-02_11h00.31.994,Experiment_English,3.2.4,Linux x86_64,60,,,1,0,340,255,1,339,ratio34_6_14_10.png,,,,,,,,,,,,
,,,,,,,,,,,,None,Half,Less than half,Most,Many,Few,All,More than half,Some,0.446614583,-0.07421875,1,0,0,QQQ2,,,,,,,,English,2020-07-02_11h00.31.994,Experiment_English,3.2.4,Linux x86_64,60,,,1,0,340,246,1,339,ratio34_3_7_11.png,,,,,,,,,,,,
,,,,,,,,,,,,Half,Few,Most,More than half,None,All,Less than half,Many,Some,0.388020833,-0.079427083,1,0,0,QQQ2,,,,,,,,English,2020-07-02_11h00.31.994,Experiment_English,3.2.4,Linux x86_64,60,,,1,0,340,82,1,339,ratio13_1_4_7.png,,,,,,,,,,,,
,,,,,,,,,,,,Many,None,Half,Some,Most,All,More than half,Few,Less than half,0.567708333,-0.276041667,1,0,0,QQQ3,,,,,,,,English,2020-07-02_11h00.31.994,Experiment_English,3.2.4,Linux x86_64,60,,,1,0,340,191,1,339,ratio23_6_15_7.png,,,,,,,,,,,,
,,,,,,,,,,,,Most,None,Less than half,All,Some,Many,Few,Half,More than half,0.420572917,0.26171875,1,0,0,QQQ1,,,,,,,,English,2020-07-02_11h00.31.994,Experiment_English,3.2.4,Linux x86_64,60,,,1,0,340,276,1,339,ratio41_16_20_4.png,,,,,,,,,,,,
,,,,,,,,,,,,None,Few,Less than half,Many,All,More than half,Half,Most,Some,-0.37109375,0.0703125,1,0,0,QQQ8,,,,,,,,English,2020-07-02_11h00.31.994,Experiment_English,3.2.4,Linux x86_64,60,,,1,0,340,309,1,339,ratio51_10_12_10.png,,,,,,,,,,,,
,,,,,,,,,,,,Less than half,Half,Many,None,Most,More than half,Some,All,Few,-0.067708333,0.028645833,1,0,0,QQQ5,,,,,,,,English,2020-07-02_11h00.31.994,Experiment_English,3.2.4,Linux x86_64,60,,,1,0,340,214,1,339,ratio31_12_16_5.png,,,,,,,,,,,,
,,,,,,,,,,,,More than half,Few,Less than half,Many,Some,Half,Most,None,All,0.5234375,0.282552083,1,0,0,QQQ1,,,,,,,,English,2020-07-02_11h00.31.994,Experiment_English,3.2.4,Linux x86_64,60,,,1,0,340,163,1,339,ratio21_4_6_1.png,,,,,,,,,,,,
,,,,,,,,,,,,Half,All,Some,None,Many,Less than half,Few,Most,More than half,-0.4609375,0.02734375,1,0,0,QQQ8,,,,,,,,English,2020-07-02_11h00.31.994,Experiment_English,3.2.4,Linux x86_64,60,,,1,0,340,263,1,339,ratio41_4_5_5.png,,,,,,,,,,,,
,,,,,,,,,,,,Few,Some,Half,All,None,Most,Less than half,Many,More than half,0.518229167,0.338541667,1,0,0,QQQ1,,,,,,,,English,2020-07-02_11h00.31.994,Experiment_English,3.2.4,Linux x86_64,60,,,1,0,340,154,1,339,ratio19_2_20_11.png,,,,,,,,,,,,
,,,,,,,,,,,,Less than half,None,All,Half,Many,Some,Most,More than half,Few,0.447916667,0.274739583,1,0,0,QQQ1,,,,,,,,English,2020-07-02_11h00.31.994,Experiment_English,3.2.4,Linux x86_64,60,,,1,0,340,187,1,339,ratio23_4_10_5.png,,,,,,,,,,,,
,,,,,,,,,,,,More than half,All,Half,Few,Many,Most,None,Some,Less than half,-0.04296875,0.247395833,1,0,0,QQQ4,,,,,,,,English,2020-07-02_11h00.31.994,Experiment_English,3.2.4,Linux x86_64,60,,,1,0,340,98,1,339,ratio13_5_20_3.png,,,,,,,,,,,,
,,,,,,,,,,,,Many,More than half,Half,None,Some,Few,Less than half,Most,All,0.115885417,-0.328125,1,0,0,QQQ6,,,,,,,,English,2020-07-02_11h00.31.994,Experiment_English,3.2.4,Linux x86_64,60,,,1,0,340,101,1,339,ratio14_1_5_7.png,0.263020833,-0.381510417,1,0,0,continue_button_pause,1,0,1,0,1,0
,,,,,,,,,,,,,,,,,,,,,,,,,,,,,,,,,,English,2020-07-02_11h00.31.994,Experiment_English,3.2.4,Linux x86_64,60,,,1,0,340,101,1,339,ratio14_1_5_7.png,,,,,,,,,,,,
,,,,,,,,,,,,None,Many,All,Half,Some,Few,Most,Less than half,More than half,-0.412760417,0.05078125,1,0,0,QQQ8,,,,,,,,English,2020-07-02_11h00.31.994,Experiment_English,3.2.4,Linux x86_64,60,,,1,0,340,5,1,339,ratio12_2_6_9.png,,,,,,,,,,,,
,,,,,,,,,,,,Less than half,Most,All,None,Many,More than half,Some,Half,Few,0.466145833,-0.2734375,1,0,0,QQQ3,,,,,,,,English,2020-07-02_11h00.31.994,Experiment_English,3.2.4,Linux x86_64,60,,,1,0,340,40,1,339,ratioX0_3_3_5.png,,,,,,,,,,,,
,,,,,,,,,,,,Many,Half,More than half,Few,None,Most,Less than half,All,Some,-0.40234375,0.01953125,1,0,0,QQQ8,,,,,,,,English,2020-07-02_11h00.31.994,Experiment_English,3.2.4,Linux x86_64,60,,,1,0,340,55,1,339,ratioX0_16_16_3.png,,,,,,,,,,,,
,,,,,,,,,,,,None,Half,More than half,Most,Some,Many,Less than half,All,Few,0.43359375,0.352864583,1,0,0,QQQ1,,,,,,,,English,2020-07-02_11h00.31.994,Experiment_English,3.2.4,Linux x86_64,60,,,1,0,340,60,1,339,ratio0Y_0_3_5.png,,,,,,,,,,,,
,,,,,,,,,,,,Many,More than half,All,None,Half,Less than half,Most,Few,Some,-0.369791667,0.065104167,1,0,0,QQQ8,,,,,,,,English,2020-07-02_11h00.31.994,Experiment_English,3.2.4,Linux x86_64,60,,,1,0,340,105,1,339,ratio14_2_10_1.png,,,,,,,,,,,,
,,,,,,,,,,,,None,Few,Many,More than half,All,Less than half,Half,Some,Most,-0.057291667,0.256510417,1,0,0,QQQ4,,,,,,,,English,2020-07-02_11h00.31.994,Experiment_English,3.2.4,Linux x86_64,60,,,1,0,340,227,1,339,ratio32_6_10_6.png,,,,,,,,,,,,
,,,,,,,,,,,,All,None,Many,Half,More than half,Few,Most,Some,Less than half,-0.390625,0.26171875,1,0,0,QQQ7,,,,,,,,English,2020-07-02_11h00.31.994,Experiment_English,3.2.4,Linux x86_64,60,,,1,0,340,171,1,339,ratio21_8_12_4.png,,,,,,,,,,,,
,,,,,,,,,,,,Less than half,Many,More than half,All,Some,Few,Half,Most,None,-0.080729167,-0.03515625,1,0,0,QQQ5,,,,,,,,English,2020-07-02_11h00.31.994,Experiment_English,3.2.4,Linux x86_64,60,,,1,0,340,119,1,339,ratio14_4_20_10.png,,,,,,,,,,,,
,,,,,,,,,,,,Less than half,Most,Many,Few,All,More than half,None,Some,Half,-0.0078125,-0.239583333,1,0,0,QQQ6,,,,,,,,English,2020-07-02_11h00.31.994,Experiment_English,3.2.4,Linux x86_64,60,,,1,0,340,298,1,339,ratio43_8_14_14.png,,,,,,,,,,,,
,,,,,,,,,,,,Some,Many,Few,None,More than half,Half,Most,Less than half,All,0.486979167,-0.287760417,1,0,0,QQQ3,,,,,,,,English,2020-07-02_11h00.31.994,Experiment_English,3.2.4,Linux x86_64,60,,,1,0,340,150,1,339,ratio19_2_20_1.png,,,,,,,,,,,,
,,,,,,,,,,,,Half,Most,Few,All,Less than half,Many,More than half,None,Some,0.397135417,-0.3203125,1,0,0,QQQ3,,,,,,,,English,2020-07-02_11h00.31.994,Experiment_English,3.2.4,Linux x86_64,60,,,1,0,340,253,1,339,ratio34_6_14_5.png,,,,,,,,,,,,
,,,,,,,,,,,,More than half,Many,None,Less than half,Most,Few,Some,Half,All,0.010416667,-0.263020833,1,0,0,QQQ6,,,,,,,,English,2020-07-02_11h00.31.994,Experiment_English,3.2.4,Linux x86_64,60,,,1,0,340,89,1,339,ratio13_3_12_6.png,,,,,,,,,,,,
,,,,,,,,,,,,All,Few,Many,None,More than half,Half,Most,Some,Less than half,0.509114583,0.002604167,1,0,0,QQQ2,,,,,,,,English,2020-07-02_11h00.31.994,Experiment_English,3.2.4,Linux x86_64,60,,,1,0,340,139,1,339,ratio15_3_18_20.png,,,,,,,,,,,,
,,,,,,,,,,,,Some,Half,Less than half,None,Most,More than half,All,Many,Few,-0.083333333,0.315104167,1,0,0,QQQ4,,,,,,,,English,2020-07-02_11h00.31.994,Experiment_English,3.2.4,Linux x86_64,60,,,1,0,340,75,1,339,ratio0Y_0_16_10.png,,,,,,,,,,,,
,,,,,,,,,,,,Most,Half,Many,Less than half,None,More than half,Some,All,Few,-0.510416667,-0.0078125,1,0,0,QQQ8,,,,,,,,English,2020-07-02_11h00.31.994,Experiment_English,3.2.4,Linux x86_64,60,,,1,0,340,56,1,339,ratioX0_17_17_10.png,,,,,,,,,,,,
,,,,,,,,,,,,Some,Most,All,Half,Less than half,More than half,None,Many,Few,-0.3984375,-0.223958333,1,0,0,QQQ9,,,,,,,,English,2020-07-02_11h00.31.994,Experiment_English,3.2.4,Linux x86_64,60,,,1,0,340,144,1,339,ratio19_1_10_11.png,,,,,,,,,,,,
,,,,,,,,,,,,None,Half,Some,More than half,Many,All,Less than half,Most,Few,-0.391927083,-0.25390625,1,0,0,QQQ9,,,,,,,,English,2020-07-02_11h00.31.994,Experiment_English,3.2.4,Linux x86_64,60,,,1,0,340,140,1,339,ratio19_1_10_1.png,,,,,,,,,,,,
,,,,,,,,,,,,Most,None,Some,Less than half,More than half,Half,All,Few,Many,0.502604167,0.365885417,1,0,0,QQQ1,,,,,,,,English,2020-07-02_11h00.31.994,Experiment_English,3.2.4,Linux x86_64,60,,,1,0,340,261,1,339,ratio41_4_5_3.png,,,,,,,,,,,,
,,,,,,,,,,,,Half,None,More than half,Most,Less than half,Few,Some,Many,All,-0.390625,0.07421875,1,0,0,QQQ8,,,,,,,,English,2020-07-02_11h00.31.994,Experiment_English,3.2.4,Linux x86_64,60,,,1,0,340,234,1,339,ratio32_9_15_10.png,,,,,,,,,,,,
,,,,,,,,,,,,All,More than half,Less than half,Many,Few,None,Half,Some,Most,-0.0234375,0.048177083,1,0,0,QQQ5,,,,,,,,English,2020-07-02_11h00.31.994,Experiment_English,3.2.4,Linux x86_64,60,,,1,0,340,107,1,339,ratio14_2_10_5.png,,,,,,,,,,,,
,,,,,,,,,,,,Some,Less than half,All,Many,Most,None,More than half,Half,Few,-0.415364583,-0.2578125,1,0,0,QQQ9,,,,,,,,English,2020-07-02_11h00.31.994,Experiment_English,3.2.4,Linux x86_64,60,,,1,0,340,80,1,339,ratio13_1_4_3.png,,,,,,,,,,,,
,,,,,,,,,,,,Some,More than half,None,Half,Most,All,Few,Less than half,Many,-0.421875,-0.23046875,1,0,0,QQQ9,,,,,,,,English,2020-07-02_11h00.31.994,Experiment_English,3.2.4,Linux x86_64,60,,,1,0,340,265,1,339,ratio41_8_10_1.png,,,,,,,,,,,,
,,,,,,,,,,,,All,Many,Few,Some,Half,Most,None,More than half,Less than half,0.423177083,-0.252604167,1,0,0,QQQ3,,,,,,,,English,2020-07-02_11h00.31.994,Experiment_English,3.2.4,Linux x86_64,60,,,1,0,340,137,1,339,ratio15_3_18_16.png,,,,,,,,,,,,
,,,,,,,,,,,,Few,Half,Many,All,Most,More than half,Some,None,Less than half,0.513020833,0.373697917,1,0,0,QQQ1,,,,,,,,English,2020-07-02_11h00.31.994,Experiment_English,3.2.4,Linux x86_64,60,,,1,0,340,126,1,339,ratio15_2_12_1.png,,,,,,,,,,,,
,,,,,,,,,,,,Many,None,Less than half,Half,All,Few,More than half,Most,Some,0.5,-0.23828125,1,0,0,QQQ3,,,,,,,,English,2020-07-02_11h00.31.994,Experiment_English,3.2.4,Linux x86_64,60,,,1,0,340,91,1,339,ratio13_3_12_10.png,,,,,,,,,,,,
,,,,,,,,,,,,More than half,Some,None,All,Less than half,Many,Half,Few,Most,0.34765625,0.330729167,1,0,0,QQQ1,,,,,,,,English,2020-07-02_11h00.31.994,Experiment_English,3.2.4,Linux x86_64,60,,,1,0,340,220,1,339,ratio32_3_5_1.png,,,,,,,,,,,,
,,,,,,,,,,,,Few,Many,All,More than half,Most,Less than half,Some,Half,None,0.139322917,0.303385417,1,0,0,QQQ4,,,,,,,,English,2020-07-02_11h00.31.994,Experiment_English,3.2.4,Linux x86_64,60,,,1,0,340,224,1,339,ratio32_3_5_10.png,,,,,,,,,,,,
,,,,,,,,,,,,Most,Half,Few,Less than half,Many,Some,All,None,More than half,-0.39453125,-0.25,1,0,0,QQQ9,,,,,,,,English,2020-07-02_11h00.31.994,Experiment_English,3.2.4,Linux x86_64,60,,,1,0,340,161,1,339,ratio21_2_3_8.png,,,,,,,,,,,,
,,,,,,,,,,,,None,Less than half,Some,More than half,Few,Many,All,Half,Most,-0.471354167,-0.29296875,1,0,0,QQQ9,,,,,,,,English,2020-07-02_11h00.31.994,Experiment_English,3.2.4,Linux x86_64,60,,,1,0,340,266,1,339,ratio41_8_10_2.png,,,,,,,,,,,,
,,,,,,,,,,,,None,More than half,Half,Some,Many,Few,Most,Less than half,All,0.489583333,-0.28515625,1,0,0,QQQ3,,,,,,,,English,2020-07-02_11h00.31.994,Experiment_English,3.2.4,Linux x86_64,60,,,1,0,340,20,1,339,ratio11_2_4_3.png,,,,,,,,,,,,
,,,,,,,,,,,,Some,Half,Few,Many,All,None,Most,More than half,Less than half,0.109375,0.022135417,1,0,0,QQQ5,,,,,,,,English,2020-07-02_11h00.31.994,Experiment_English,3.2.4,Linux x86_64,60,,,1,0,340,45,1,339,ratioX0_8_8_3.png,,,,,,,,,,,,
,,,,,,,,,,,,Less than half,None,More than half,Most,Few,Many,All,Some,Half,0.430989583,-0.25,1,0,0,QQQ3,,,,,,,,English,2020-07-02_11h00.31.994,Experiment_English,3.2.4,Linux x86_64,60,,,1,0,340,30,1,339,ratio11_6_12_6.png,,,,,,,,,,,,
,,,,,,,,,,,,More than half,All,Few,Most,Less than half,Many,Some,Half,None,0.37890625,-0.2265625,1,0,0,QQQ3,,,,,,,,English,2020-07-02_11h00.31.994,Experiment_English,3.2.4,Linux x86_64,60,,,1,0,340,116,1,339,ratio14_4_20_3.png,,,,,,,,,,,,
,,,,,,,,,,,,Few,More than half,Most,Some,Many,Half,None,Less than half,All,-0.557291667,0.393229167,1,0,0,QQQ7,,,,,,,,English,2020-07-02_11h00.31.994,Experiment_English,3.2.4,Linux x86_64,60,,,1,0,340,77,1,339,ratio0Y_0_18_3.png,0.395833333,-0.364583333,1,0,0,continue_button_pause,1,0,1,0,1,0
,,,,,,,,,,,,,,,,,,,,,,,,,,,,,,,,,,English,2020-07-02_11h00.31.994,Experiment_English,3.2.4,Linux x86_64,60,,,1,0,340,77,1,339,ratio0Y_0_18_3.png,,,,,,,,,,,,
,,,,,,,,,,,,Half,Less than half,Few,All,Many,Some,None,Most,More than half,0,-0.075520833,1,0,0,QQQ5,,,,,,,,English,2020-07-02_11h00.31.994,Experiment_English,3.2.4,Linux x86_64,60,,,1,0,340,306,1,339,ratio51_5_6_18.png,,,,,,,,,,,,
,,,,,,,,,,,,None,More than half,Few,All,Less than half,Most,Half,Many,Some,0.509114583,-0.0703125,1,0,0,QQQ2,,,,,,,,English,2020-07-02_11h00.31.994,Experiment_English,3.2.4,Linux x86_64,60,,,1,0,340,284,1,339,ratio43_4_7_11.png,,,,,,,,,,,,
,,,,,,,,,,,,Few,Half,Most,More than half,Some,None,Less than half,Many,All,0.62890625,0.28515625,1,0,0,QQQ1,,,,,,,,English,2020-07-02_11h00.31.994,Experiment_English,3.2.4,Linux x86_64,60,,,1,0,340,123,1,339,ratio15_1_6_12.png,,,,,,,,,,,,
,,,,,,,,,,,,All,Few,None,Some,Less than half,Most,Half,More than half,Many,-0.380208333,-0.3046875,1,0,0,QQQ9,,,,,,,,English,2020-07-02_11h00.31.994,Experiment_English,3.2.4,Linux x86_64,60,,,1,0,340,330,1,339,ratio91_18_20_2.png,,,,,,,,,,,,
,,,,,,,,,,,,Less than half,Some,All,Half,More than half,None,Few,Many,Most,-0.484375,0.303385417,1,0,0,QQQ7,,,,,,,,English,2020-07-02_11h00.31.994,Experiment_English,3.2.4,Linux x86_64,60,,,1,0,340,84,1,339,ratio13_2_8_1.png,,,,,,,,,,,,
,,,,,,,,,,,,More than half,All,Less than half,Few,None,Many,Some,Most,Half,0.412760417,-0.286458333,1,0,0,QQQ3,,,,,,,,English,2020-07-02_11h00.31.994,Experiment_English,3.2.4,Linux x86_64,60,,,1,0,340,251,1,339,ratio34_6_14_2.png,,,,,,,,,,,,
,,,,,,,,,,,,Less than half,Few,Most,None,All,More than half,Half,Many,Some,0.475260417,0.233072917,1,0,0,QQQ1,,,,,,,,English,2020-07-02_11h00.31.994,Experiment_English,3.2.4,Linux x86_64,60,,,1,0,340,242,1,339,ratio34_3_7_6.png,,,,,,,,,,,,
,,,,,,,,,,,,More than half,Less than half,Many,Some,Half,Few,All,Most,None,0.018229167,0.24609375,1,0,0,QQQ4,,,,,,,,English,2020-07-02_11h00.31.994,Experiment_English,3.2.4,Linux x86_64,60,,,1,0,340,238,1,339,ratio32_12_20_9.png,,,,,,,,,,,,
,,,,,,,,,,,,Few,Some,Half,All,Less than half,None,Many,More than half,Most,-0.005208333,0.213541667,1,0,0,QQQ4,,,,,,,,English,2020-07-02_11h00.31.994,Experiment_English,3.2.4,Linux x86_64,60,,,1,0,340,52,1,339,ratioX0_13_13_10.png,,,,,,,,,,,,
,,,,,,,,,,,,Many,Most,Few,Half,All,None,More than half,Less than half,Some,0.5078125,-0.283854167,1,0,0,QQQ3,,,,,,,,English,2020-07-02_11h00.31.994,Experiment_English,3.2.4,Linux x86_64,60,,,1,0,340,129,1,339,ratio15_2_12_9.png,,,,,,,,,,,,
,,,,,,,,,,,,Some,None,Many,Half,All,Few,Less than half,Most,More than half,-0.506510417,-0.325520833,1,0,0,QQQ9,,,,,,,,English,2020-07-02_11h00.31.994,Experiment_English,3.2.4,Linux x86_64,60,,,1,0,340,223,1,339,ratio32_3_5_5.png,,,,,,,,,,,,
,,,,,,,,,,,,None,More than half,Half,Few,Less than half,Some,Most,Many,All,-0.40234375,0.3046875,1,0,0,QQQ7,,,,,,,,English,2020-07-02_11h00.31.994,Experiment_English,3.2.4,Linux x86_64,60,,,1,0,340,300,1,339,ratio51_5_6_1.png,,,,,,,,,,,,
,,,,,,,,,,,,Most,All,None,Less than half,Half,Some,Many,More than half,Few,-0.4375,0.069010417,1,0,0,QQQ8,,,,,,,,English,2020-07-02_11h00.31.994,Experiment_English,3.2.4,Linux x86_64,60,,,1,0,340,228,1,339,ratio32_6_10_7.png,,,,,,,,,,,,
,,,,,,,,,,,,More than half,None,Less than half,Half,Some,Few,All,Most,Many,-0.3984375,-0.08203125,1,0,0,QQQ8,,,,,,,,English,2020-07-02_11h00.31.994,Experiment_English,3.2.4,Linux x86_64,60,,,1,0,340,204,1,339,ratio31_6_8_1.png,,,,,,,,,,,,
,,,,,,,,,,,,Half,None,Less than half,Few,All,Some,Most,Many,More than half,0.013020833,-0.0625,1,0,0,QQQ5,,,,,,,,English,2020-07-02_11h00.31.994,Experiment_English,3.2.4,Linux x86_64,60,,,1,0,340,57,1,339,ratioX0_18_18_1.png,,,,,,,,,,,,
,,,,,,,,,,,,All,Few,None,Half,Some,Less than half,Most,Many,More than half,-0.12109375,-0.223958333,1,0,0,QQQ6,,,,,,,,English,2020-07-02_11h00.31.994,Experiment_English,3.2.4,Linux x86_64,60,,,1,0,340,247,1,339,ratio34_3_7_12.png,,,,,,,,,,,,
,,,,,,,,,,,,Many,Few,None,Some,Half,Most,All,Less than half,More than half,-0.100260417,-0.329427083,1,0,0,QQQ6,,,,,,,,English,2020-07-02_11h00.31.994,Experiment_English,3.2.4,Linux x86_64,60,,,1,0,340,296,1,339,ratio43_8_14_12.png,,,,,,,,,,,,
,,,,,,,,,,,,Few,More than half,Less than half,Half,Many,None,All,Most,Some,0.427083333,0.236979167,1,0,0,QQQ1,,,,,,,,English,2020-07-02_11h00.31.994,Experiment_English,3.2.4,Linux x86_64,60,,,1,0,340,109,1,339,ratio14_2_10_9.png,,,,,,,,,,,,
,,,,,,,,,,,,Less than half,Some,Few,More than half,All,None,Most,Many,Half,0.114583333,0.2421875,1,0,0,QQQ4,,,,,,,,English,2020-07-02_11h00.31.994,Experiment_English,3.2.4,Linux x86_64,60,,,1,0,340,29,1,339,ratio11_6_12_1.png,,,,,,,,,,,,
,,,,,,,,,,,,Less than half,Some,None,Few,Half,More than half,Many,Most,All,0.485677083,0.243489583,1,0,0,QQQ1,,,,,,,,English,2020-07-02_11h00.31.994,Experiment_English,3.2.4,Linux x86_64,60,,,1,0,340,6,1,339,ratio12_3_9_1.png,,,,,,,,,,,,
,,,,,,,,,,,,More than half,None,Most,Few,Less than half,Some,Half,All,Many,-0.399739583,0.25,1,0,0,QQQ7,,,,,,,,English,2020-07-02_11h00.31.994,Experiment_English,3.2.4,Linux x86_64,60,,,1,0,340,285,1,339,ratio43_4_7_14.png,,,,,,,,,,,,
,,,,,,,,,,,,All,Many,None,Most,Less than half,Some,More than half,Few,Half,0.484375,-0.286458333,1,0,0,QQQ3,,,,,,,,English,2020-07-02_11h00.31.994,Experiment_English,3.2.4,Linux x86_64,60,,,1,0,340,61,1,339,ratio0Y_0_4_7.png,,,,,,,,,,,,
,,,,,,,,,,,,Few,Some,Most,None,Less than half,Many,More than half,All,Half,0.49609375,-0.31640625,1,0,0,QQQ3,,,,,,,,English,2020-07-02_11h00.31.994,Experiment_English,3.2.4,Linux x86_64,60,,,1,0,340,267,1,339,ratio41_8_10_4.png,,,,,,,,,,,,
,,,,,,,,,,,,Half,None,Less than half,Many,Some,All,Few,Most,More than half,0.411458333,-0.040364583,1,0,0,QQQ2,,,,,,,,English,2020-07-02_11h00.31.994,Experiment_English,3.2.4,Linux x86_64,60,,,1,0,340,76,1,339,ratio0Y_0_17_10.png,,,,,,,,,,,,
,,,,,,,,,,,,Most,Less than half,More than half,None,Few,Many,All,Half,Some,0.494791667,0.272135417,1,0,0,QQQ1,,,,,,,,English,2020-07-02_11h00.31.994,Experiment_English,3.2.4,Linux x86_64,60,,,1,0,340,260,1,339,ratio41_4_5_2.png,,,,,,,,,,,,
,,,,,,,,,,,,Many,Some,Half,Less than half,All,More than half,Most,None,Few,-0.44140625,0.29296875,1,0,0,QQQ7,,,,,,,,English,2020-07-02_11h00.31.994,Experiment_English,3.2.4,Linux x86_64,60,,,1,0,340,334,1,339,ratio91_18_20_9.png,,,,,,,,,,,,
,,,,,,,,,,,,Most,All,Half,Less than half,Few,Many,None,More than half,Some,-0.40234375,0.083333333,1,0,0,QQQ8,,,,,,,,English,2020-07-02_11h00.31.994,Experiment_English,3.2.4,Linux x86_64,60,,,1,0,340,280,1,339,ratio43_4_7_2.png,,,,,,,,,,,,
,,,,,,,,,,,,Less than half,Few,Most,More than half,Some,Many,None,Half,All,0.427083333,0.325520833,1,0,0,QQQ1,,,,,,,,English,2020-07-02_11h00.31.994,Experiment_English,3.2.4,Linux x86_64,60,,,1,0,340,10,1,339,ratio12_4_12_4.png,,,,,,,,,,,,
,,,,,,,,,,,,Few,Many,Less than half,More than half,Most,All,None,Some,Half,-0.364583333,-0.235677083,1,0,0,QQQ9,,,,,,,,English,2020-07-02_11h00.31.994,Experiment_English,3.2.4,Linux x86_64,60,,,1,0,340,185,1,339,ratio23_4_10_1.png,,,,,,,,,,,,
,,,,,,,,,,,,All,Some,Less than half,Many,Most,None,Half,Few,More than half,-0.388020833,0.231770833,1,0,0,QQQ7,,,,,,,,English,2020-07-02_11h00.31.994,Experiment_English,3.2.4,Linux x86_64,60,,,1,0,340,38,1,339,ratio11_10_20_5.png,,,,,,,,,,,,
,,,,,,,,,,,,Less than half,Some,Half,Many,None,Most,Few,All,More than half,0.533854167,0.25390625,1,0,0,QQQ1,,,,,,,,English,2020-07-02_11h00.31.994,Experiment_English,3.2.4,Linux x86_64,60,,,1,0,340,241,1,339,ratio34_3_7_5.png,,,,,,,,,,,,
,,,,,,,,,,,,More than half,Most,Many,All,Few,Less than half,Some,Half,None,0.111979167,-0.022135417,1,0,0,QQQ5,,,,,,,,English,2020-07-02_11h00.31.994,Experiment_English,3.2.4,Linux x86_64,60,,,1,0,340,145,1,339,ratio19_1_10_15.png,,,,,,,,,,,,
,,,,,,,,,,,,Most,All,Few,Half,None,Less than half,Many,More than half,Some,0.114583333,0.208333333,1,0,0,QQQ4,,,,,,,,English,2020-07-02_11h00.31.994,Experiment_English,3.2.4,Linux x86_64,60,,,1,0,340,257,1,339,ratio34_6_14_12.png,,,,,,,,,,,,
,,,,,,,,,,,,Most,Half,Few,All,Many,More than half,Some,None,Less than half,-0.3984375,-0.026041667,1,0,0,QQQ8,,,,,,,,English,2020-07-02_11h00.31.994,Experiment_English,3.2.4,Linux x86_64,60,,,1,0,340,64,1,339,ratio0Y_0_7_1.png,0.4140625,-0.404947917,1,0,0,continue_button_pause,1,0,1,0,1,0
,,,,,,,,,,,,,,,,,,,,,,,,,,,,,,,,,,English,2020-07-02_11h00.31.994,Experiment_English,3.2.4,Linux x86_64,60,,,1,0,340,64,1,339,ratio0Y_0_7_1.png,,,,,,,,,,,,
,,,,,,,,,,,,Many,Some,Less than half,None,Half,More than half,Most,All,Few,-0.434895833,0.31640625,1,0,0,QQQ7,,,,,,,,English,2020-07-02_11h00.31.994,Experiment_English,3.2.4,Linux x86_64,60,,,1,0,340,225,1,339,ratio32_6_10_4.png,,,,,,,,,,,,
,,,,,,,,,,,,Some,None,Many,More than half,Few,Most,Half,Less than half,All,-0.4375,-0.25390625,1,0,0,QQQ9,,,,,,,,English,2020-07-02_11h00.31.994,Experiment_English,3.2.4,Linux x86_64,60,,,1,0,340,46,1,339,ratioX0_9_9_3.png,,,,,,,,,,,,
,,,,,,,,,,,,Many,All,Most,Less than half,Half,None,More than half,Some,Few,0.4453125,-0.377604167,1,0,0,QQQ3,,,,,,,,English,2020-07-02_11h00.31.994,Experiment_English,3.2.4,Linux x86_64,60,,,1,0,340,175,1,339,ratio21_10_15_2.png,,,,,,,,,,,,
,,,,,,,,,,,,Few,More than half,Many,None,All,Most,Some,Less than half,Half,0.51171875,0.209635417,1,0,0,QQQ1,,,,,,,,English,2020-07-02_11h00.31.994,Experiment_English,3.2.4,Linux x86_64,60,,,1,0,340,92,1,339,ratio13_4_16_3.png,,,,,,,,,,,,
,,,,,,,,,,,,Some,More than half,Many,Few,Most,None,Half,All,Less than half,-0.46875,-0.233072917,1,0,0,QQQ9,,,,,,,,English,2020-07-02_11h00.31.994,Experiment_English,3.2.4,Linux x86_64,60,,,1,0,340,97,1,339,ratio13_5_20_2.png,,,,,,,,,,,,
,,,,,,,,,,,,More than half,Less than half,Some,None,Half,All,Few,Many,Most,-0.403645833,0.201822917,1,0,0,QQQ7,,,,,,,,English,2020-07-02_11h00.31.994,Experiment_English,3.2.4,Linux x86_64,60,,,1,0,340,146,1,339,ratio19_1_10_17.png,,,,,,,,,,,,
,,,,,,,,,,,,Many,Half,None,Few,All,More than half,Less than half,Some,Most,0.501302083,-0.041666667,1,0,0,QQQ2,,,,,,,,English,2020-07-02_11h00.31.994,Experiment_English,3.2.4,Linux x86_64,60,,,1,0,340,26,1,339,ratio11_5_10_4.png,,,,,,,,,,,,
,,,,,,,,,,,,More than half,Less than half,Many,Some,Half,Most,All,Few,None,-0.03515625,-0.200520833,1,0,0,QQQ6,,,,,,,,English,2020-07-02_11h00.31.994,Experiment_English,3.2.4,Linux x86_64,60,,,1,0,340,316,1,339,ratio51_15_18_11.png,,,,,,,,,,,,
,,,,,,,,,,,,Few,Less than half,None,Half,All,Some,Many,More than half,Most,0.618489583,0.35546875,1,0,0,QQQ1,,,,,,,,English,2020-07-02_11h00.31.994,Experiment_English,3.2.4,Linux x86_64,60,,,1,0,340,124,1,339,ratio15_1_6_16.png,,,,,,,,,,,,
,,,,,,,,,,,,More than half,Less than half,Most,None,All,Some,Few,Many,Half,0.592447917,0.32421875,1,0,0,QQQ1,,,,,,,,English,2020-07-02_11h00.31.994,Experiment_English,3.2.4,Linux x86_64,60,,,1,0,340,28,1,339,ratio11_5_10_9.png,,,,,,,,,,,,
,,,,,,,,,,,,Some,All,Most,None,More than half,Half,Many,Few,Less than half,0.53515625,-0.27734375,1,0,0,QQQ3,,,,,,,,English,2020-07-02_11h00.31.994,Experiment_English,3.2.4,Linux x86_64,60,,,1,0,340,325,1,339,ratio91_9_10_8.png,,,,,,,,,,,,
,,,,,,,,,,,,Few,More than half,Most,Many,Half,Some,Less than half,None,All,0.434895833,0.287760417,1,0,0,QQQ1,,,,,,,,English,2020-07-02_11h00.31.994,Experiment_English,3.2.4,Linux x86_64,60,,,1,0,340,127,1,339,ratio15_2_12_2.png,,,,,,,,,,,,
,,,,,,,,,,,,Less than half,All,Half,Some,Few,None,Many,Most,More than half,0.43359375,0.287760417,1,0,0,QQQ1,,,,,,,,English,2020-07-02_11h00.31.994,Experiment_English,3.2.4,Linux x86_64,60,,,1,0,340,8,1,339,ratio12_3_9_4.png,,,,,,,,,,,,
,,,,,,,,,,,,Half,Many,Few,Some,None,Less than half,More than half,All,Most,0.052083333,-0.063802083,1,0,0,QQQ5,,,,,,,,English,2020-07-02_11h00.31.994,Experiment_English,3.2.4,Linux x86_64,60,,,1,0,340,66,1,339,ratio0Y_0_9_8.png,,,,,,,,,,,,
,,,,,,,,,,,,All,More than half,Less than half,None,Many,Half,Some,Most,Few,-0.5,-0.020833333,1,0,0,QQQ8,,,,,,,,English,2020-07-02_11h00.31.994,Experiment_English,3.2.4,Linux x86_64,60,,,1,0,340,312,1,339,ratio51_10_12_16.png,,,,,,,,,,,,
,,,,,,,,,,,,Less than half,None,Few,All,Half,Most,Some,Many,More than half,-0.52734375,0.016927083,1,0,0,QQQ8,,,,,,,,English,2020-07-02_11h00.31.994,Experiment_English,3.2.4,Linux x86_64,60,,,1,0,340,278,1,339,ratio41_16_20_9.png,,,,,,,,,,,,
,,,,,,,,,,,,Less than half,None,Some,Many,More than half,Most,All,Few,Half,-0.415364583,-0.013020833,1,0,0,QQQ8,,,,,,,,English,2020-07-02_11h00.31.994,Experiment_English,3.2.4,Linux x86_64,60,,,1,0,340,102,1,339,ratio14_1_5_8.png,,,,,,,,,,,,
,,,,,,,,,,,,None,Half,Many,All,Few,Less than half,Some,Most,More than half,-0.415364583,-0.013020833,1,0,0,QQQ8,,,,,,,,English,2020-07-02_11h00.31.994,Experiment_English,3.2.4,Linux x86_64,60,,,1,0,340,219,1,339,ratio31_15_20_10.png,,,,,,,,,,,,
,,,,,,,,,,,,Half,More than half,None,Most,Few,Less than half,Some,All,Many,-0.014322917,0.348958333,1,0,0,QQQ4,,,,,,,,English,2020-07-02_11h00.31.994,Experiment_English,3.2.4,Linux x86_64,60,,,1,0,340,206,1,339,ratio31_6_8_6.png,,,,,,,,,,,,
,,,,,,,,,,,,All,Some,More than half,Less than half,Half,Many,Few,Most,None,-0.014322917,0.348958333,1,0,0,QQQ4,,,,,,,,English,2020-07-02_11h00.31.994,Experiment_English,3.2.4,Linux x86_64,60,,,1,0,340,180,1,339,ratio23_2_5_4.png,,,,,,,,,,,,
,,,,,,,,,,,,Less than half,All,Some,Many,None,Most,Few,More than half,Half,0.001302083,0.380208333,1,0,0,QQQ4,,,,,,,,English,2020-07-02_11h00.31.994,Experiment_English,3.2.4,Linux x86_64,60,,,1,0,340,277,1,339,ratio41_16_20_8.png,,,,,,,,,,,,
,,,,,,,,,,,,Many,None,Most,Less than half,More than half,All,Few,Some,Half,-0.45703125,0.2890625,1,0,0,QQQ7,,,,,,,,English,2020-07-02_11h00.31.994,Experiment_English,3.2.4,Linux x86_64,60,,,1,0,340,103,1,339,ratio14_1_5_9.png,,,,,,,,,,,,
,,,,,,,,,,,,Few,Some,Less than half,Half,More than half,None,Many,Most,All,0.552083333,0.302083333,1,0,0,QQQ1,,,,,,,,English,2020-07-02_11h00.31.994,Experiment_English,3.2.4,Linux x86_64,60,,,1,0,340,152,1,339,ratio19_2_20_6.png,,,,,,,,,,,,
,,,,,,,,,,,,Most,Many,Some,Less than half,Half,All,Few,More than half,None,0.377604167,0.244791667,1,0,0,QQQ1,,,,,,,,English,2020-07-02_11h00.31.994,Experiment_English,3.2.4,Linux x86_64,60,,,1,0,340,301,1,339,ratio51_5_6_4.png,,,,,,,,,,,,
,,,,,,,,,,,,Most,Less than half,Many,Half,More than half,Few,Some,None,All,0.376302083,0.244791667,1,0,0,QQQ1,,,,,,,,English,2020-07-02_11h00.31.994,Experiment_English,3.2.4,Linux x86_64,60,,,1,0,340,210,1,339,ratio31_9_12_9.png,,,,,,,,,,,,
,,,,,,,,,,,,More than half,Some,Less than half,Half,Most,Many,All,Few,None,0.376302083,0.244791667,1,0,0,QQQ1,,,,,,,,English,2020-07-02_11h00.31.994,Experiment_English,3.2.4,Linux x86_64,60,,,1,0,340,222,1,339,ratio32_3_5_4.png,,,,,,,,,,,,
,,,,,,,,,,,,Some,None,Few,More than half,Most,All,Many,Half,Less than half,-0.450520833,-0.345052083,1,0,0,QQQ9,,,,,,,,English,2020-07-02_11h00.31.994,Experiment_English,3.2.4,Linux x86_64,60,,,1,0,340,27,1,339,ratio11_5_10_7.png,,,,,,,,,,,,
,,,,,,,,,,,,None,More than half,Most,Less than half,Few,Many,Some,All,Half,0.096354167,0.055989583,1,0,0,QQQ5,,,,,,,,English,2020-07-02_11h00.31.994,Experiment_English,3.2.4,Linux x86_64,60,,,1,0,340,133,1,339,ratio15_3_18_3.png,,,,,,,,,,,,
,,,,,,,,,,,,More than half,None,Less than half,Most,All,Few,Some,Many,Half,0.079427083,0.395833333,1,0,0,QQQ4,,,,,,,,English,2020-07-02_11h00.31.994,Experiment_English,3.2.4,Linux x86_64,60,,,1,0,340,177,1,339,ratio21_12_18_1.png,,,,,,,,,,,,
,,,,,,,,,,,,Many,Most,Few,Less than half,Half,All,Some,None,More than half,-0.470052083,-0.295572917,1,0,0,QQQ9,,,,,,,,English,2020-07-02_11h00.31.994,Experiment_English,3.2.4,Linux x86_64,60,,,1,0,340,286,1,339,ratio43_4_7_15.png,,,,,,,,,,,,
,,,,,,,,,,,,All,Some,Many,Few,Half,Less than half,None,Most,More than half,0.04296875,-0.044270833,1,0,0,QQQ5,,,,,,,,English,2020-07-02_11h00.31.994,Experiment_English,3.2.4,Linux x86_64,60,,,1,0,340,231,1,339,ratio32_9_15_2.png,,,,,,,,,,,,
,,,,,,,,,,,,All,None,Half,Some,Many,Less than half,Most,Few,More than half,0.04296875,-0.044270833,1,0,0,QQQ5,,,,,,,,English,2020-07-02_11h00.31.994,Experiment_English,3.2.4,Linux x86_64,60,,,1,0,340,336,1,339,ratio91_18_20_12.png,,,,,,,,,,,,
,,,,,,,,,,,,Less than half,All,Some,Many,None,Few,Half,Most,More than half,0.513020833,-0.248697917,1,0,0,QQQ3,,,,,,,,English,2020-07-02_11h00.31.994,Experiment_English,3.2.4,Linux x86_64,60,,,1,0,340,16,1,339,ratio12_5_15_6.png,,,,,,,,,,,,
,,,,,,,,,,,,Few,None,All,Half,Many,Less than half,More than half,Most,Some,-0.46875,-0.26953125,1,0,0,QQQ9,,,,,,,,English,2020-07-02_11h00.31.994,Experiment_English,3.2.4,Linux x86_64,60,,,1,0,340,194,1,339,ratio23_6_15_10.png,0.365885417,-0.415364583,1,0,0,continue_button_pause,1,0,1,0,1,0
,,,,,,,,,,,,,,,,,,,,,,,,,,,,,,,,,,English,2020-07-02_11h00.31.994,Experiment_English,3.2.4,Linux x86_64,60,,,1,0,340,194,1,339,ratio23_6_15_10.png,,,,,,,,,,,,
,,,,,,,,,,,,All,Half,Most,None,Some,Few,More than half,Less than half,Many,0.46875,0.260416667,1,0,0,QQQ1,,,,,,,,English,2020-07-02_11h00.31.994,Experiment_English,3.2.4,Linux x86_64,60,,,1,0,340,41,1,339,ratioX0_4_4_9.png,,,,,,,,,,,,
,,,,,,,,,,,,More than half,Some,Half,All,Less than half,Most,Many,None,Few,-0.466145833,-0.330729167,1,0,0,QQQ9,,,,,,,,English,2020-07-02_11h00.31.994,Experiment_English,3.2.4,Linux x86_64,60,,,1,0,340,3,1,339,ratio12_2_6_3.png,,,,,,,,,,,,
,,,,,,,,,,,,All,None,Few,Some,Many,Less than half,Most,Half,More than half,-0.48828125,0.2890625,1,0,0,QQQ7,,,,,,,,English,2020-07-02_11h00.31.994,Experiment_English,3.2.4,Linux x86_64,60,,,1,0,340,201,1,339,ratio31_3_4_7.png,,,,,,,,,,,,
,,,,,,,,,,,,More than half,Some,Most,Many,Few,Less than half,None,Half,All,0.645833333,-0.01171875,1,0,0,QQQ2,,,,,,,,English,2020-07-02_11h00.31.994,Experiment_English,3.2.4,Linux x86_64,60,,,1,0,340,39,1,339,ratio11_10_20_6.png,,,,,,,,,,,,
,,,,,,,,,,,,None,More than half,Few,Half,Less than half,Many,Some,All,Most,0.451822917,-0.283854167,1,0,0,QQQ3,,,,,,,,English,2020-07-02_11h00.31.994,Experiment_English,3.2.4,Linux x86_64,60,,,1,0,340,104,1,339,ratio14_1_5_10.png,,,,,,,,,,,,
,,,,,,,,,,,,None,All,Half,Some,Few,Most,More than half,Many,Less than half,-0.0703125,-0.25,1,0,0,QQQ6,,,,,,,,English,2020-07-02_11h00.31.994,Experiment_English,3.2.4,Linux x86_64,60,,,1,0,340,229,1,339,ratio32_6_10_9.png,,,,,,,,,,,,
,,,,,,,,,,,,None,Less than half,Many,Most,All,Some,Half,More than half,Few,0.563802083,-0.279947917,1,0,0,QQQ3,,,,,,,,English,2020-07-02_11h00.31.994,Experiment_English,3.2.4,Linux x86_64,60,,,1,0,340,215,1,339,ratio31_12_16_8.png,,,,,,,,,,,,
,,,,,,,,,,,,Half,More than half,Less than half,Some,Few,Most,All,None,Many,-0.588541667,0.048177083,1,0,0,QQQ8,,,,,,,,English,2020-07-02_11h00.31.994,Experiment_English,3.2.4,Linux x86_64,60,,,1,0,340,63,1,339,ratio0Y_0_6_8.png,,,,,,,,,,,,
,,,,,,,,,,,,Less than half,Many,Some,Most,Few,Half,None,More than half,All,0.0625,0.036458333,1,0,0,QQQ5,,,,,,,,English,2020-07-02_11h00.31.994,Experiment_English,3.2.4,Linux x86_64,60,,,1,0,340,149,1,339,ratio19_1_10_20.png,,,,,,,,,,,,
,,,,,,,,,,,,Many,None,All,Most,Few,Some,Less than half,More than half,Half,0.157552083,-0.313802083,1,0,0,QQQ6,,,,,,,,English,2020-07-02_11h00.31.994,Experiment_English,3.2.4,Linux x86_64,60,,,1,0,340,294,1,339,ratio43_8_14_9.png,,,,,,,,,,,,
,,,,,,,,,,,,Some,Most,Many,More than half,Less than half,Half,None,All,Few,-0.479166667,0.346354167,1,0,0,QQQ7,,,,,,,,English,2020-07-02_11h00.31.994,Experiment_English,3.2.4,Linux x86_64,60,,,1,0,340,65,1,339,ratio0Y_0_8_4.png,,,,,,,,,,,,
,,,,,,,,,,,,Half,Few,None,Most,Less than half,All,More than half,Some,Many,0.125,0.046875,1,0,0,QQQ5,,,,,,,,English,2020-07-02_11h00.31.994,Experiment_English,3.2.4,Linux x86_64,60,,,1,0,340,24,1,339,ratio11_4_8_3.png,,,,,,,,,,,,
,,,,,,,,,,,,All,None,Some,Most,Many,Few,Half,Less than half,More than half,-0.350260417,0.03125,1,0,0,QQQ8,,,,,,,,English,2020-07-02_11h00.31.994,Experiment_English,3.2.4,Linux x86_64,60,,,1,0,340,9,1,339,ratio12_3_9_5.png,,,,,,,,,,,,
,,,,,,,,,,,,All,Most,Some,Many,Few,Half,Less than half,More than half,None,0.015625,0.020833333,1,0,0,QQQ5,,,,,,,,English,2020-07-02_11h00.31.994,Experiment_English,3.2.4,Linux x86_64,60,,,1,0,340,96,1,339,ratio13_5_20_1.png,,,,,,,,,,,,
,,,,,,,,,,,,More than half,Half,Less than half,Few,None,Many,Most,Some,All,-0.352864583,0.2421875,1,0,0,QQQ7,,,,,,,,English,2020-07-02_11h00.31.994,Experiment_English,3.2.4,Linux x86_64,60,,,1,0,340,317,1,339,ratio51_15_18_13.png,,,,,,,,,,,,
,,,,,,,,,,,,All,Most,Many,Some,None,Few,Less than half,More than half,Half,-0.384114583,0.033854167,1,0,0,QQQ8,,,,,,,,English,2020-07-02_11h00.31.994,Experiment_English,3.2.4,Linux x86_64,60,,,1,0,340,172,1,339,ratio21_8_12_6.png,,,,,,,,,,,,
,,,,,,,,,,,,None,Few,More than half,All,Half,Less than half,Many,Most,Some,0.4609375,0.059895833,1,0,0,QQQ2,,,,,,,,English,2020-07-02_11h00.31.994,Experiment_English,3.2.4,Linux x86_64,60,,,1,0,340,17,1,339,ratio12_6_18_5.png,,,,,,,,,,,,
,,,,,,,,,,,,Many,Half,Less than half,Most,All,Some,None,Few,More than half,0.016927083,0.213541667,1,0,0,QQQ4,,,,,,,,English,2020-07-02_11h00.31.994,Experiment_English,3.2.4,Linux x86_64,60,,,1,0,340,233,1,339,ratio32_9_15_9.png,,,,,,,,,,,,
,,,,,,,,,,,,All,Less than half,Most,None,Half,Few,More than half,Many,Some,-0.399739583,0.053385417,1,0,0,QQQ8,,,,,,,,English,2020-07-02_11h00.31.994,Experiment_English,3.2.4,Linux x86_64,60,,,1,0,340,327,1,339,ratio91_9_10_11.png,,,,,,,,,,,,
,,,,,,,,,,,,None,Few,More than half,Some,Many,Most,All,Less than half,Half,0.651041667,-0.013020833,1,0,0,QQQ2,,,,,,,,English,2020-07-02_11h00.31.994,Experiment_English,3.2.4,Linux x86_64,60,,,1,0,340,243,1,339,ratio34_3_7_8.png,,,,,,,,,,,,
,,,,,,,,,,,,None,Few,Some,Less than half,Many,Half,All,Most,More than half,-0.453125,-0.029947917,1,0,0,QQQ8,,,,,,,,English,2020-07-02_11h00.31.994,Experiment_English,3.2.4,Linux x86_64,60,,,1,0,340,338,1,339,ratio91_18_20_18.png,,,,,,,,,,,,
,,,,,,,,,,,,Few,Half,Most,Some,Many,Less than half,None,All,More than half,0.063802083,-0.069010417,1,0,0,QQQ5,,,,,,,,English,2020-07-02_11h00.31.994,Experiment_English,3.2.4,Linux x86_64,60,,,1,0,340,315,1,339,ratio51_15_18_10.png,,,,,,,,,,,,
,,,,,,,,,,,,None,Less than half,Half,All,More than half,Some,Most,Many,Few,-0.407552083,-0.208333333,1,0,0,QQQ9,,,,,,,,English,2020-07-02_11h00.31.994,Experiment_English,3.2.4,Linux x86_64,60,,,1,0,340,81,1,339,ratio13_1_4_5.png,,,,,,,,,,,,
,,,,,,,,,,,,All,Some,None,Many,Few,Most,More than half,Less than half,Half,-0.05078125,-0.032552083,1,0,0,QQQ5,,,,,,,,English,2020-07-02_11h00.31.994,Experiment_English,3.2.4,Linux x86_64,60,,,1,0,340,250,1,339,ratio34_6_14_1.png,,,,,,,,,,,,
,,,,,,,,,,,,Most,Half,Less than half,Many,Some,None,All,Few,More than half,-0.5078125,0.052083333,1,0,0,QQQ8,,,,,,,,English,2020-07-02_11h00.31.994,Experiment_English,3.2.4,Linux x86_64,60,,,1,0,340,118,1,339,ratio14_4_20_8.png,,,,,,,,,,,,
,,,,,,,,,,,,Some,Half,Few,Most,More than half,Less than half,Many,None,All,0.0859375,0.22265625,1,0,0,QQQ4,,,,,,,,English,2020-07-02_11h00.31.994,Experiment_English,3.2.4,Linux x86_64,60,,,1,0,340,289,1,339,ratio43_4_7_20.png,,,,,,,,,,,,
,,,,,,,,,,,,Most,Few,Less than half,All,More than half,Half,Many,None,Some,-0.483072917,-0.286458333,1,0,0,QQQ9,,,,,,,,English,2020-07-02_11h00.31.994,Experiment_English,3.2.4,Linux x86_64,60,,,1,0,340,14,1,339,ratio12_5_15_4.png,,,,,,,,,,,,
,,,,,,,,,,,,Half,Less than half,Most,More than half,Many,None,Some,All,Few,-0.473958333,-0.244791667,1,0,0,QQQ9,,,,,,,,English,2020-07-02_11h00.31.994,Experiment_English,3.2.4,Linux x86_64,60,,,1,0,340,155,1,339,ratio19_2_20_13.png,,,,,,,,,,,,
,,,,,,,,,,,,Less than half,Few,Most,Half,Some,Many,More than half,None,All,0.033854167,-0.013020833,1,0,0,QQQ5,,,,,,,,English,2020-07-02_11h00.31.994,Experiment_English,3.2.4,Linux x86_64,60,,,1,0,340,36,1,339,ratio11_9_18_1.png,,,,,,,,,,,,
,,,,,,,,,,,,All,Half,Few,Most,None,Many,More than half,Less than half,Some,0.51171875,0,1,0,0,QQQ2,,,,,,,,English,2020-07-02_11h00.31.994,Experiment_English,3.2.4,Linux x86_64,60,,,1,0,340,33,1,339,ratio11_7_14_8.png,,,,,,,,,,,,
,,,,,,,,,,,,All,Many,More than half,Less than half,Half,Few,Some,None,Most,-0.470052083,-0.268229167,1,0,0,QQQ9,,,,,,,,English,2020-07-02_11h00.31.994,Experiment_English,3.2.4,Linux x86_64,60,,,1,0,340,59,1,339,ratioX0_20_20_9.png,,,,,,,,,,,,
,,,,,,,,,,,,Some,Few,None,Many,All,Less than half,Half,Most,More than half,0.029947917,-0.348958333,1,0,0,QQQ6,,,,,,,,English,2020-07-02_11h00.31.994,Experiment_English,3.2.4,Linux x86_64,60,,,1,0,340,244,1,339,ratio34_3_7_9.png,,,,,,,,,,,,
,,,,,,,,,,,,Few,Most,Many,All,Less than half,None,Half,More than half,Some,-0.360677083,0.373697917,1,0,0,QQQ7,,,,,,,,English,2020-07-02_11h00.31.994,Experiment_English,3.2.4,Linux x86_64,60,,,1,0,340,281,1,339,ratio43_4_7_4.png,,,,,,,,,,,,
,,,,,,,,,,,,Half,Less than half,None,Few,More than half,Most,Many,Some,All,0.069010417,0.25390625,1,0,0,QQQ4,,,,,,,,English,2020-07-02_11h00.31.994,Experiment_English,3.2.4,Linux x86_64,60,,,1,0,340,90,1,339,ratio13_3_12_7.png,,,,,,,,,,,,
