continue_mouse.x,continue_mouse.y,continue_mouse.leftButton,continue_mouse.midButton,continue_mouse.rightButton,continue_mouse.clicked_name,continue_mouse_2.x,continue_mouse_2.y,continue_mouse_2.leftButton,continue_mouse_2.midButton,continue_mouse_2.rightButton,continue_mouse_2.clicked_name,Q1,Q2,Q3,Q4,Q5,Q6,Q7,Q8,Q9,select_answer.x,select_answer.y,select_answer.leftButton,select_answer.midButton,select_answer.rightButton,select_answer.clicked_name,trial.thisRepN,trial.thisTrialN,trial.thisN,trial.thisIndex,trial.ran,trial.order,trials,Native tongue*,date,expName,psychopyVersion,OS,frameRate,key_resp.keys,key_resp.rt,Actual_Experiment.thisRepN,Actual_Experiment.thisTrialN,Actual_Experiment.thisN,Actual_Experiment.thisIndex,Actual_Experiment.ran,Actual_Experiment.order,Pic,mouse_pause.x,mouse_pause.y,mouse_pause.leftButton,mouse_pause.midButton,mouse_pause.rightButton,mouse_pause.clicked_name,pause.thisRepN,pause.thisTrialN,pause.thisN,pause.thisIndex,pause.ran,pause.order
0.343518555,-0.43518527,1,0,0,continue_button,0.334259296,-0.453703732,1,0,0,continue_button_2,Few,More than half,Most,Some,Less than half,Many,Half,All,None,0.4842593,0.017592578,1,0,0,QQQ2,1,0,16,6,1,15,ratio31_12_16_7.png,English,2020-07-02_10h59.26.244,Experiment_English,3.2.4,Win32,60,,,,,,,,,,,,,,,,,,,,,
,,,,,,,,,,,,Many,Some,None,Most,Less than half,Few,Half,More than half,All,0.083333362,0.038888875,1,0,0,QQQ5,1,0,16,7,1,15,ratio23_2_5_8.png,English,2020-07-02_10h59.26.244,Experiment_English,3.2.4,Win32,60,,,,,,,,,,,,,,,,,,,,,
,,,,,,,,,,,,None,Less than half,Most,Some,More than half,Half,Few,Many,All,0.390740779,-0.04907409,1,0,0,QQQ2,1,0,16,14,1,15,ratio11_5_10_6.png,English,2020-07-02_10h59.26.244,Experiment_English,3.2.4,Win32,60,,,,,,,,,,,,,,,,,,,,,
,,,,,,,,,,,,Half,More than half,Most,Many,Less than half,Few,Some,All,None,0.462963003,-0.047222239,1,0,0,QQQ2,1,0,16,5,1,15,ratio32_6_10_2.png,English,2020-07-02_10h59.26.244,Experiment_English,3.2.4,Win32,60,,,,,,,,,,,,,,,,,,,,,
,,,,,,,,,,,,More than half,All,Less than half,Some,None,Half,Few,Many,Most,0.441666706,-0.281481505,1,0,0,QQQ3,1,0,16,13,1,15,ratio12_5_15_1.png,English,2020-07-02_10h59.26.244,Experiment_English,3.2.4,Win32,60,,,,,,,,,,,,,,,,,,,,,
,,,,,,,,,,,,All,Most,Less than half,None,Many,Some,Few,More than half,Half,-0.445370357,-0.05833335,1,0,0,QQQ8,,,,,,,,English,2020-07-02_10h59.26.244,Experiment_English,3.2.4,Win32,60,b,14.87899995,1,0,340,295,1,339,ratio43_8_14_11.png,,,,,,,,,,,,
,,,,,,,,,,,,None,All,Less than half,Most,Few,Half,Some,Many,More than half,0.470370411,-0.310185266,1,0,0,QQQ3,,,,,,,,English,2020-07-02_10h59.26.244,Experiment_English,3.2.4,Win32,60,,,1,0,340,110,1,339,ratio14_3_15_2.png,,,,,,,,,,,,
,,,,,,,,,,,,Some,More than half,None,Many,Few,Less than half,All,Half,Most,-0.548148138,0.037962921,1,0,0,QQQ8,,,,,,,,English,2020-07-02_10h59.26.244,Experiment_English,3.2.4,Win32,60,,,1,0,340,31,1,339,ratio11_6_12_9.png,,,,,,,,,,,,
,,,,,,,,,,,,Half,More than half,Some,Less than half,Many,All,Most,None,Few,0.100925955,-0.309259283,1,0,0,QQQ6,,,,,,,,English,2020-07-02_10h59.26.244,Experiment_English,3.2.4,Win32,60,,,1,0,340,45,1,339,ratioX0_8_8_3.png,,,,,,,,,,,,
,,,,,,,,,,,,Many,Half,All,Some,Few,None,Most,More than half,Less than half,0.534259415,-0.060185202,1,0,0,QQQ2,,,,,,,,English,2020-07-02_10h59.26.244,Experiment_English,3.2.4,Win32,60,,,1,0,340,247,1,339,ratio34_3_7_12.png,,,,,,,,,,,,
,,,,,,,,,,,,Most,Half,Many,None,Few,Some,All,More than half,Less than half,0.458333373,0.020370356,1,0,0,QQQ2,,,,,,,,English,2020-07-02_10h59.26.244,Experiment_English,3.2.4,Win32,60,,,1,0,340,197,1,339,ratio23_8_20_6.png,,,,,,,,,,,,
,,,,,,,,,,,,Some,Few,None,All,Many,More than half,Less than half,Most,Half,-0.42685181,0.219444436,1,0,0,QQQ7,,,,,,,,English,2020-07-02_10h59.26.244,Experiment_English,3.2.4,Win32,60,,,1,0,340,88,1,339,ratio13_3_12_5.png,,,,,,,,,,,,
,,,,,,,,,,,,Few,None,Less than half,All,Half,More than half,Many,Most,Some,0.506481523,0.318518513,1,0,0,QQQ1,,,,,,,,English,2020-07-02_10h59.26.244,Experiment_English,3.2.4,Win32,60,,,1,0,340,104,1,339,ratio14_1_5_10.png,,,,,,,,,,,,
,,,,,,,,,,,,Most,More than half,Some,Less than half,Few,All,Many,None,Half,0.051851936,0.02870369,1,0,0,QQQ5,,,,,,,,English,2020-07-02_10h59.26.244,Experiment_English,3.2.4,Win32,60,,,1,0,340,131,1,339,ratio15_2_12_14.png,,,,,,,,,,,,
,,,,,,,,,,,,Some,Most,Half,Few,None,More than half,All,Less than half,Many,-0.03055553,-0.208333354,1,0,0,QQQ6,,,,,,,,English,2020-07-02_10h59.26.244,Experiment_English,3.2.4,Win32,60,,,1,0,340,273,1,339,ratio41_12_15_8.png,,,,,,,,,,,,
,,,,,,,,,,,,Half,None,Most,Few,More than half,All,Many,Some,Less than half,0.072222251,-0.041666683,1,0,0,QQQ5,,,,,,,,English,2020-07-02_10h59.26.244,Experiment_English,3.2.4,Win32,60,,,1,0,340,296,1,339,ratio43_8_14_12.png,,,,,,,,,,,,
,,,,,,,,,,,,Half,Few,Some,Most,All,Many,More than half,Less than half,None,-0.470370358,-0.280555579,1,0,0,QQQ9,,,,,,,,English,2020-07-02_10h59.26.244,Experiment_English,3.2.4,Win32,60,,,1,0,340,77,1,339,ratio0Y_0_18_3.png,,,,,,,,,,,,
,,,,,,,,,,,,Many,Less than half,Most,Half,More than half,Some,None,All,Few,0.098148178,-0.295370394,1,0,0,QQQ6,,,,,,,,English,2020-07-02_10h59.26.244,Experiment_English,3.2.4,Win32,60,,,1,0,340,10,1,339,ratio12_4_12_4.png,,,,,,,,,,,,
,,,,,,,,,,,,More than half,Few,All,None,Most,Less than half,Half,Many,Some,0.094444474,-0.357407489,1,0,0,QQQ6,,,,,,,,English,2020-07-02_10h59.26.244,Experiment_English,3.2.4,Win32,60,,,1,0,340,189,1,339,ratio23_4_10_8.png,,,,,,,,,,,,
,,,,,,,,,,,,More than half,All,None,Some,Many,Half,Most,Few,Less than half,-0.412962949,0.023148134,1,0,0,QQQ8,,,,,,,,English,2020-07-02_10h59.26.244,Experiment_English,3.2.4,Win32,60,,,1,0,340,128,1,339,ratio15_2_12_8.png,,,,,,,,,,,,
,,,,,,,,,,,,Half,Few,None,More than half,Less than half,Most,Some,All,Many,0.005555582,-0.042592609,1,0,0,QQQ5,,,,,,,,English,2020-07-02_10h59.26.244,Experiment_English,3.2.4,Win32,60,,,1,0,340,14,1,339,ratio12_5_15_4.png,,,,,,,,,,,,
,,,,,,,,,,,,More than half,All,Many,Half,Few,Most,Some,Less than half,None,-0.532407369,-0.314814839,1,0,0,QQQ9,,,,,,,,English,2020-07-02_10h59.26.244,Experiment_English,3.2.4,Win32,60,,,1,0,340,62,1,339,ratio0Y_0_5_4.png,,,,,,,,,,,,
,,,,,,,,,,,,Most,Half,Less than half,Some,Many,None,More than half,All,Few,-0.590740732,0.360185181,1,0,0,QQQ7,,,,,,,,English,2020-07-02_10h59.26.244,Experiment_English,3.2.4,Win32,60,,,1,0,340,200,1,339,ratio31_3_4_4.png,,,,,,,,,,,,
,,,,,,,,,,,,Less than half,Few,Half,None,Most,All,More than half,Some,Many,-0.3898148,0.342592588,1,0,0,QQQ7,,,,,,,,English,2020-07-02_10h59.26.244,Experiment_English,3.2.4,Win32,60,,,1,0,340,32,1,339,ratio11_7_14_5.png,,,,,,,,,,,,
,,,,,,,,,,,,Many,Few,All,Most,Less than half,Some,Half,None,More than half,-0.085185161,0.033333319,1,0,0,QQQ5,,,,,,,,English,2020-07-02_10h59.26.244,Experiment_English,3.2.4,Win32,60,,,1,0,340,139,1,339,ratio15_3_18_20.png,,,,,,,,,,,,
,,,,,,,,,,,,All,Less than half,Most,None,Some,Half,Many,More than half,Few,-0.122222199,-0.271296376,1,0,0,QQQ6,,,,,,,,English,2020-07-02_10h59.26.244,Experiment_English,3.2.4,Win32,60,,,1,0,340,20,1,339,ratio11_2_4_3.png,,,,,,,,,,,,
,,,,,,,,,,,,Half,Less than half,Few,Many,More than half,None,All,Some,Most,0.000925952,0.012962948,1,0,0,QQQ5,,,,,,,,English,2020-07-02_10h59.26.244,Experiment_English,3.2.4,Win32,60,,,1,0,340,205,1,339,ratio31_6_8_2.png,,,,,,,,,,,,
,,,,,,,,,,,,None,Most,Many,Less than half,Half,More than half,Some,All,Few,-0.075925845,0.287037017,1,0,0,QQQ4,,,,,,,,English,2020-07-02_10h59.26.244,Experiment_English,3.2.4,Win32,60,,,1,0,340,119,1,339,ratio14_4_20_10.png,,,,,,,,,,,,
,,,,,,,,,,,,Less than half,All,More than half,Many,None,Few,Half,Most,Some,0.414814854,0.319444439,1,0,0,QQQ1,,,,,,,,English,2020-07-02_10h59.26.244,Experiment_English,3.2.4,Win32,60,,,1,0,340,188,1,339,ratio23_4_10_6.png,,,,,,,,,,,,
,,,,,,,,,,,,More than half,None,Some,Half,Less than half,Few,All,Many,Most,-0.439814801,-0.323148173,1,0,0,QQQ9,,,,,,,,English,2020-07-02_10h59.26.244,Experiment_English,3.2.4,Win32,60,,,1,0,340,304,1,339,ratio51_5_6_13.png,,,,,,,,,,,,
,,,,,,,,,,,,Some,All,None,Less than half,Half,Many,More than half,Most,Few,-0.054629605,-0.337037062,1,0,0,QQQ6,,,,,,,,English,2020-07-02_10h59.26.244,Experiment_English,3.2.4,Win32,60,,,1,0,340,294,1,339,ratio43_8_14_9.png,,,,,,,,,,,,
,,,,,,,,,,,,Less than half,Most,More than half,Few,Some,None,Many,Half,All,0.400000038,-0.285185265,1,0,0,QQQ3,,,,,,,,English,2020-07-02_10h59.26.244,Experiment_English,3.2.4,Win32,60,,,1,0,340,38,1,339,ratio11_10_20_5.png,,,,,,,,,,,,
,,,,,,,,,,,,Most,Half,More than half,None,Many,Some,Few,All,Less than half,0.351851889,-0.251851931,1,0,0,QQQ3,,,,,,,,English,2020-07-02_10h59.26.244,Experiment_English,3.2.4,Win32,60,,,1,0,340,168,1,339,ratio21_6_9_3.png,,,,,,,,,,,,
,,,,,,,,,,,,None,Many,Few,Most,Less than half,More than half,Half,All,Some,-0.005555529,0.29166666,1,0,0,QQQ4,,,,,,,,English,2020-07-02_10h59.26.244,Experiment_English,3.2.4,Win32,60,,,1,0,340,202,1,339,ratio31_3_4_8.png,,,,,,,,,,,,
,,,,,,,,,,,,More than half,Less than half,Some,Most,Many,None,Half,Few,All,0.078703733,0.341666662,1,0,0,QQQ4,,,,,,,,English,2020-07-02_10h59.26.244,Experiment_English,3.2.4,Win32,60,,,1,0,340,323,1,339,ratio91_9_10_5.png,,,,,,,,,,,,
,,,,,,,,,,,,Many,Most,All,None,Half,Less than half,Few,Some,More than half,0.514814857,-0.006481497,1,0,0,QQQ2,,,,,,,,English,2020-07-02_10h59.26.244,Experiment_English,3.2.4,Win32,60,,,1,0,340,336,1,339,ratio91_18_20_12.png,,,,,,,,,,,,
,,,,,,,,,,,,Less than half,Many,Some,Half,Few,All,None,Most,More than half,0.480555596,0.314814795,1,0,0,QQQ1,,,,,,,,English,2020-07-02_10h59.26.244,Experiment_English,3.2.4,Win32,60,,,1,0,340,184,1,339,ratio23_2_5_10.png,,,,,,,,,,,,
,,,,,,,,,,,,More than half,Less than half,None,Some,Half,Few,Most,Many,All,0.462037077,0.360185181,1,0,0,QQQ1,,,,,,,,English,2020-07-02_10h59.26.244,Experiment_English,3.2.4,Win32,60,,,1,0,340,206,1,339,ratio31_6_8_6.png,,,,,,,,,,,,
,,,,,,,,,,,,Some,More than half,All,None,Many,Less than half,Half,Most,Few,0.353703741,-0.016666682,0,0,1,QQQ2,,,,,,,,English,2020-07-02_10h59.26.244,Experiment_English,3.2.4,Win32,60,,,1,0,340,309,1,339,ratio51_10_12_10.png,0.299074109,-0.370370396,1,0,0,continue_button_pause,1,0,1,0,1,0
,,,,,,,,,,,,,,,,,,,,,,,,,,,,,,,,,,English,2020-07-02_10h59.26.244,Experiment_English,3.2.4,Win32,60,,,1,0,340,309,1,339,ratio51_10_12_10.png,,,,,,,,,,,,
,,,,,,,,,,,,Less than half,All,More than half,Most,Some,Few,None,Half,Many,0.036111139,0.261111104,1,0,0,QQQ4,,,,,,,,English,2020-07-02_10h59.26.244,Experiment_English,3.2.4,Win32,60,,,1,0,340,321,1,339,ratio91_9_10_2.png,,,,,,,,,,,,
,,,,,,,,,,,,None,More than half,Few,All,Most,Less than half,Some,Half,Many,0.515740783,0.29166666,1,0,0,QQQ1,,,,,,,,English,2020-07-02_10h59.26.244,Experiment_English,3.2.4,Win32,60,,,1,0,340,63,1,339,ratio0Y_0_6_8.png,,,,,,,,,,,,
,,,,,,,,,,,,All,None,More than half,Many,Some,Half,Few,Less than half,Most,0.498148189,0.02407406,1,0,0,QQQ2,,,,,,,,English,2020-07-02_10h59.26.244,Experiment_English,3.2.4,Win32,60,,,1,0,340,60,1,339,ratio0Y_0_3_5.png,,,,,,,,,,,,
,,,,,,,,,,,,All,Less than half,None,More than half,Few,Most,Half,Some,Many,0.002777804,0.303703684,1,0,0,QQQ4,,,,,,,,English,2020-07-02_10h59.26.244,Experiment_English,3.2.4,Win32,60,,,1,0,340,286,1,339,ratio43_4_7_15.png,,,,,,,,,,,,
,,,,,,,,,,,,None,More than half,Some,Half,Most,All,Less than half,Few,Many,0.002777804,0.2574074,1,0,0,QQQ4,,,,,,,,English,2020-07-02_10h59.26.244,Experiment_English,3.2.4,Win32,60,,,1,0,340,186,1,339,ratio23_4_10_2.png,,,,,,,,,,,,
,,,,,,,,,,,,Some,Half,Many,Most,Few,None,All,More than half,Less than half,0.037963047,0.369444441,1,0,0,QQQ4,,,,,,,,English,2020-07-02_10h59.26.244,Experiment_English,3.2.4,Win32,60,,,1,0,340,219,1,339,ratio31_15_20_10.png,,,,,,,,,,,,
,,,,,,,,,,,,None,More than half,Few,Many,Some,Half,Less than half,Most,All,-0.452777765,0.33981481,1,0,0,QQQ7,,,,,,,,English,2020-07-02_10h59.26.244,Experiment_English,3.2.4,Win32,60,,,1,0,340,30,1,339,ratio11_6_12_6.png,,,,,,,,,,,,
,,,,,,,,,,,,More than half,Many,Few,Some,Less than half,Most,Half,None,All,0.467592633,-0.274074154,1,0,0,QQQ3,,,,,,,,English,2020-07-02_10h59.26.244,Experiment_English,3.2.4,Win32,60,,,1,0,340,140,1,339,ratio19_1_10_1.png,,,,,,,,,,,,
,,,,,,,,,,,,All,Half,Less than half,None,Few,Most,More than half,Some,Many,0.024074158,-0.027777794,1,0,0,QQQ5,,,,,,,,English,2020-07-02_10h59.26.244,Experiment_English,3.2.4,Win32,60,,,1,0,340,87,1,339,ratio13_2_8_8.png,,,,,,,,,,,,
,,,,,,,,,,,,Half,Many,Few,Most,More than half,Less than half,None,All,Some,0.091666696,0.342592588,1,0,0,QQQ4,,,,,,,,English,2020-07-02_10h59.26.244,Experiment_English,3.2.4,Win32,60,,,1,0,340,300,1,339,ratio51_5_6_1.png,,,,,,,,,,,,
,,,,,,,,,,,,Many,Some,Less than half,More than half,Most,Few,None,Half,All,0.139814845,-0.004629645,1,0,0,QQQ5,,,,,,,,English,2020-07-02_10h59.26.244,Experiment_English,3.2.4,Win32,60,,,1,0,340,161,1,339,ratio21_2_3_8.png,,,,,,,,,,,,
,,,,,,,,,,,,Many,Most,Some,Half,More than half,None,All,Less than half,Few,-0.42685181,-0.221296374,1,0,0,QQQ9,,,,,,,,English,2020-07-02_10h59.26.244,Experiment_English,3.2.4,Win32,60,,,1,0,340,106,1,339,ratio14_2_10_2.png,,,,,,,,,,,,
,,,,,,,,,,,,Less than half,Few,More than half,Many,All,None,Some,Half,Most,0.567592749,-0.018518534,1,0,0,QQQ2,,,,,,,,English,2020-07-02_10h59.26.244,Experiment_English,3.2.4,Win32,60,,,1,0,340,136,1,339,ratio15_3_18_8.png,,,,,,,,,,,,
,,,,,,,,,,,,Few,Many,All,Less than half,None,Most,More than half,Half,Some,0.035185269,-0.310185266,1,0,0,QQQ6,,,,,,,,English,2020-07-02_10h59.26.244,Experiment_English,3.2.4,Win32,60,,,1,0,340,234,1,339,ratio32_9_15_10.png,,,,,,,,,,,,
,,,,,,,,,,,,None,Some,Less than half,More than half,Most,Half,Many,All,Few,-0.005555529,0.01944443,1,0,0,QQQ5,,,,,,,,English,2020-07-02_10h59.26.244,Experiment_English,3.2.4,Win32,60,,,1,0,340,52,1,339,ratioX0_13_13_10.png,,,,,,,,,,,,
,,,,,,,,,,,,More than half,All,Most,Half,Many,Some,Few,Less than half,None,-0.434259246,0.020370356,1,0,0,QQQ8,,,,,,,,English,2020-07-02_10h59.26.244,Experiment_English,3.2.4,Win32,60,,,1,0,340,257,1,339,ratio34_6_14_12.png,,,,,,,,,,,,
,,,,,,,,,,,,Half,All,Many,Some,None,Less than half,Few,Most,More than half,-0.047222197,-0.26574082,1,0,0,QQQ6,,,,,,,,English,2020-07-02_10h59.26.244,Experiment_English,3.2.4,Win32,60,,,1,0,340,12,1,339,ratio12_4_12_10.png,,,,,,,,,,,,
,,,,,,,,,,,,Most,All,None,More than half,Half,Less than half,Many,Some,Few,-0.474999988,-0.294444468,1,0,0,QQQ9,,,,,,,,English,2020-07-02_10h59.26.244,Experiment_English,3.2.4,Win32,60,,,1,0,340,103,1,339,ratio14_1_5_9.png,,,,,,,,,,,,
,,,,,,,,,,,,None,Few,Many,Half,All,Less than half,Some,More than half,Most,-0.449999987,-0.046296313,1,0,0,QQQ8,,,,,,,,English,2020-07-02_10h59.26.244,Experiment_English,3.2.4,Win32,60,,,1,0,340,174,1,339,ratio21_10_15_1.png,,,,,,,,,,,,
,,,,,,,,,,,,Some,All,None,Most,Half,Many,Few,More than half,Less than half,-0.049999975,0.204629621,1,0,0,QQQ4,,,,,,,,English,2020-07-02_10h59.26.244,Experiment_English,3.2.4,Win32,60,,,1,0,340,215,1,339,ratio31_12_16_8.png,,,,,,,,,,,,
,,,,,,,,,,,,Most,All,Less than half,Few,None,Half,More than half,Some,Many,0.062037065,0.281481461,1,0,0,QQQ4,,,,,,,,English,2020-07-02_10h59.26.244,Experiment_English,3.2.4,Win32,60,,,1,0,340,1,1,339,ratio12_1_3_7.png,,,,,,,,,,,,
,,,,,,,,,,,,Less than half,Few,All,None,Many,Some,Most,Half,More than half,-0.430555542,-0.01481483,1,0,0,QQQ8,,,,,,,,English,2020-07-02_10h59.26.244,Experiment_English,3.2.4,Win32,60,,,1,0,340,242,1,339,ratio34_3_7_6.png,,,,,,,,,,,,
,,,,,,,,,,,,None,More than half,Some,Many,Few,Less than half,Most,All,Half,0.434259299,-0.048148164,1,0,0,QQQ2,,,,,,,,English,2020-07-02_10h59.26.244,Experiment_English,3.2.4,Win32,60,,,1,0,340,271,1,339,ratio41_12_15_6.png,,,,,,,,,,,,
,,,,,,,,,,,,Half,Many,None,Some,Few,Most,More than half,All,Less than half,0.077777807,-0.008333348,1,0,0,QQQ5,,,,,,,,English,2020-07-02_10h59.26.244,Experiment_English,3.2.4,Win32,60,,,1,0,340,126,1,339,ratio15_2_12_1.png,,,,,,,,,,,,
,,,,,,,,,,,,Less than half,All,More than half,Half,Some,Most,Many,None,Few,-0.006481399,-0.26666669,1,0,0,QQQ6,,,,,,,,English,2020-07-02_10h59.26.244,Experiment_English,3.2.4,Win32,60,,,1,0,340,337,1,339,ratio91_18_20_16.png,,,,,,,,,,,,
,,,,,,,,,,,,Half,More than half,Few,None,Many,All,Some,Less than half,Most,-0.374074059,0.023148134,1,0,0,QQQ8,,,,,,,,English,2020-07-02_10h59.26.244,Experiment_English,3.2.4,Win32,60,,,1,0,340,244,1,339,ratio34_3_7_9.png,,,,,,,,,,,,
,,,,,,,,,,,,Some,Few,More than half,Less than half,Many,Half,All,None,Most,-0.621296288,-0.283333357,1,0,0,QQQ9,,,,,,,,English,2020-07-02_10h59.26.244,Experiment_English,3.2.4,Win32,60,,,1,0,340,334,1,339,ratio91_18_20_9.png,,,,,,,,,,,,
,,,,,,,,,,,,Less than half,None,Few,All,Most,Many,More than half,Some,Half,0.126851882,0.020370356,1,0,0,QQQ5,,,,,,,,English,2020-07-02_10h59.26.244,Experiment_English,3.2.4,Win32,60,,,1,0,340,274,1,339,ratio41_12_15_9.png,,,,,,,,,,,,
,,,,,,,,,,,,None,More than half,Some,Many,Few,Half,Less than half,All,Most,0.018518602,-0.057407424,1,0,0,QQQ5,,,,,,,,English,2020-07-02_10h59.26.244,Experiment_English,3.2.4,Win32,60,,,1,0,340,98,1,339,ratio13_5_20_3.png,,,,,,,,,,,,
,,,,,,,,,,,,Most,Some,More than half,All,Less than half,Half,None,Many,Few,0.425925965,-0.269444467,1,0,0,QQQ3,,,,,,,,English,2020-07-02_10h59.26.244,Experiment_English,3.2.4,Win32,60,,,1,0,340,290,1,339,ratio43_8_14_3.png,,,,,,,,,,,,
,,,,,,,,,,,,Most,Some,None,Less than half,Few,All,Half,Many,More than half,0.453703744,0.289814794,1,0,0,QQQ1,,,,,,,,English,2020-07-02_10h59.26.244,Experiment_English,3.2.4,Win32,60,,,1,0,340,338,1,339,ratio91_18_20_18.png,,,,,,,,,,,,
,,,,,,,,,,,,Few,Most,Some,All,Half,None,Many,Less than half,More than half,0.464814855,0.238888881,1,0,0,QQQ1,,,,,,,,English,2020-07-02_10h59.26.244,Experiment_English,3.2.4,Win32,60,,,1,0,340,95,1,339,ratio13_4_16_10.png,,,,,,,,,,,,
,,,,,,,,,,,,Half,Some,More than half,Most,Few,All,None,Less than half,Many,-0.094444421,0.015740726,1,0,0,QQQ5,,,,,,,,English,2020-07-02_10h59.26.244,Experiment_English,3.2.4,Win32,60,,,1,0,340,135,1,339,ratio15_3_18_7.png,,,,,,,,,,,,
,,,,,,,,,,,,Most,More than half,Less than half,All,Some,None,Few,Half,Many,0.424074113,0.261111104,1,0,0,QQQ1,,,,,,,,English,2020-07-02_10h59.26.244,Experiment_English,3.2.4,Win32,60,,,1,0,340,330,1,339,ratio91_18_20_2.png,0.326851888,-0.413888916,1,0,0,continue_button_pause,1,0,1,0,1,0
,,,,,,,,,,,,,,,,,,,,,,,,,,,,,,,,,,English,2020-07-02_10h59.26.244,Experiment_English,3.2.4,Win32,60,,,1,0,340,330,1,339,ratio91_18_20_2.png,,,,,,,,,,,,
,,,,,,,,,,,,Some,Less than half,Few,Half,Many,More than half,All,Most,None,0.438888928,-0.052777794,1,0,0,QQQ2,,,,,,,,English,2020-07-02_10h59.26.244,Experiment_English,3.2.4,Win32,60,,,1,0,340,255,1,339,ratio34_6_14_10.png,,,,,,,,,,,,
,,,,,,,,,,,,All,More than half,Many,Half,Some,Few,Most,Less than half,None,-0.477777766,-0.280555579,1,0,0,QQQ9,,,,,,,,English,2020-07-02_10h59.26.244,Experiment_English,3.2.4,Win32,60,,,1,0,340,66,1,339,ratio0Y_0_9_8.png,,,,,,,,,,,,
,,,,,,,,,,,,All,Most,More than half,Few,Some,Half,Many,Less than half,None,-0.500925914,0.026851809,1,0,0,QQQ8,,,,,,,,English,2020-07-02_10h59.26.244,Experiment_English,3.2.4,Win32,60,,,1,0,340,259,1,339,ratio34_6_14_19.png,,,,,,,,,,,,
,,,,,,,,,,,,Many,Half,Some,Most,More than half,Less than half,None,Few,All,-0.415740698,-0.285185265,1,0,0,QQQ9,,,,,,,,English,2020-07-02_10h59.26.244,Experiment_English,3.2.4,Win32,60,,,1,0,340,42,1,339,ratioX0_5_5_5.png,,,,,,,,,,,,
,,,,,,,,,,,,All,Some,More than half,Most,Few,Less than half,Half,Many,None,0.089814844,0.248148141,1,0,0,QQQ4,,,,,,,,English,2020-07-02_10h59.26.244,Experiment_English,3.2.4,Win32,60,,,1,0,340,34,1,339,ratio11_8_16_8.png,,,,,,,,,,,,
,,,,,,,,,,,,Few,Most,Half,None,Some,Many,All,More than half,Less than half,-0.50462959,0.292592572,1,0,0,QQQ7,,,,,,,,English,2020-07-02_10h59.26.244,Experiment_English,3.2.4,Win32,60,,,1,0,340,49,1,339,ratioX0_11_11_2.png,,,,,,,,,,,,
,,,,,,,,,,,,All,More than half,None,Most,Some,Few,Less than half,Many,Half,0.143518549,0.337037032,1,0,0,QQQ4,,,,,,,,English,2020-07-02_10h59.26.244,Experiment_English,3.2.4,Win32,60,,,1,0,340,301,1,339,ratio51_5_6_4.png,,,,,,,,,,,,
,,,,,,,,,,,,Half,Some,All,Many,Most,Less than half,More than half,Few,None,0.0953704,0.056481468,1,0,0,QQQ5,,,,,,,,English,2020-07-02_10h59.26.244,Experiment_English,3.2.4,Win32,60,,,1,0,340,333,1,339,ratio91_18_20_6.png,,,,,,,,,,,,
,,,,,,,,,,,,Many,Half,Few,None,More than half,Less than half,Most,Some,All,0.112962993,-0.061111128,1,0,0,QQQ5,,,,,,,,English,2020-07-02_10h59.26.244,Experiment_English,3.2.4,Win32,60,,,1,0,340,235,1,339,ratio32_12_20_1.png,,,,,,,,,,,,
,,,,,,,,,,,,More than half,Less than half,Some,None,Many,All,Most,Half,Few,-0.510185146,-0.260185264,1,0,0,QQQ9,,,,,,,,English,2020-07-02_10h59.26.244,Experiment_English,3.2.4,Win32,60,,,1,0,340,83,1,339,ratio13_1_4_10.png,,,,,,,,,,,,
,,,,,,,,,,,,Few,Most,Some,Less than half,Many,All,None,Half,More than half,0.512963005,-0.051851868,1,0,0,QQQ2,,,,,,,,English,2020-07-02_10h59.26.244,Experiment_English,3.2.4,Win32,60,,,1,0,340,230,1,339,ratio32_9_15_1.png,,,,,,,,,,,,
,,,,,,,,,,,,Half,Some,Less than half,Most,Few,None,All,Many,More than half,0.402777816,-0.30462971,1,0,0,QQQ3,,,,,,,,English,2020-07-02_10h59.26.244,Experiment_English,3.2.4,Win32,60,,,1,0,340,248,1,339,ratio34_3_7_19.png,,,,,,,,,,,,
,,,,,,,,,,,,All,Some,More than half,Most,Less than half,Few,None,Many,Half,-0.523148137,-0.362963045,1,0,0,QQQ9,,,,,,,,English,2020-07-02_10h59.26.244,Experiment_English,3.2.4,Win32,60,,,1,0,340,27,1,339,ratio11_5_10_7.png,,,,,,,,,,,,
,,,,,,,,,,,,Less than half,All,More than half,Some,Few,Half,None,Most,Many,0.500925967,-0.375925952,1,0,0,QQQ3,,,,,,,,English,2020-07-02_10h59.26.244,Experiment_English,3.2.4,Win32,60,,,1,0,340,176,1,339,ratio21_10_15_3.png,,,,,,,,,,,,
,,,,,,,,,,,,Most,Less than half,None,More than half,Some,All,Many,Few,Half,0.600000044,-0.202777799,0,0,1,QQQ3,,,,,,,,English,2020-07-02_10h59.26.244,Experiment_English,3.2.4,Win32,60,,,1,0,340,68,1,339,ratio0Y_0_11_3.png,,,,,,,,,,,,
,,,,,,,,,,,,Many,Most,Less than half,Some,Half,None,All,More than half,Few,0.063888917,-0.050925942,1,0,0,QQQ5,,,,,,,,English,2020-07-02_10h59.26.244,Experiment_English,3.2.4,Win32,60,,,1,0,340,222,1,339,ratio32_3_5_4.png,,,,,,,,,,,,
,,,,,,,,,,,,None,More than half,Most,Many,Half,Some,All,Less than half,Few,-0.520370359,-0.292592616,1,0,0,QQQ9,,,,,,,,English,2020-07-02_10h59.26.244,Experiment_English,3.2.4,Win32,60,,,1,0,340,108,1,339,ratio14_2_10_6.png,,,,,,,,,,,,
,,,,,,,,,,,,None,More than half,Some,Many,All,Most,Less than half,Few,Half,-0.555555546,0.231481473,1,0,0,QQQ7,,,,,,,,English,2020-07-02_10h59.26.244,Experiment_English,3.2.4,Win32,60,,,1,0,340,193,1,339,ratio23_6_15_9.png,,,,,,,,,,,,
,,,,,,,,,,,,Many,Few,None,All,Some,Half,More than half,Most,Less than half,-0.039814733,0.30555555,1,0,0,QQQ4,,,,,,,,English,2020-07-02_10h59.26.244,Experiment_English,3.2.4,Win32,60,,,1,0,340,41,1,339,ratioX0_4_4_9.png,,,,,,,,,,,,
,,,,,,,,,,,,Some,Half,None,Few,Most,All,Less than half,More than half,Many,-0.448148135,0.061111098,1,0,0,QQQ8,,,,,,,,English,2020-07-02_10h59.26.244,Experiment_English,3.2.4,Win32,60,,,1,0,340,299,1,339,ratio43_8_14_17.png,,,,,,,,,,,,
,,,,,,,,,,,,None,Half,Some,More than half,Few,Many,Less than half,Most,All,-0.043518493,0.324999995,1,0,0,QQQ4,,,,,,,,English,2020-07-02_10h59.26.244,Experiment_English,3.2.4,Win32,60,,,1,0,340,165,1,339,ratio21_4_6_10.png,,,,,,,,,,,,
,,,,,,,,,,,,Some,None,Few,All,More than half,Many,Less than half,Half,Most,-0.622222214,0.025925912,1,0,0,QQQ8,,,,,,,,English,2020-07-02_10h59.26.244,Experiment_English,3.2.4,Win32,60,,,1,0,340,26,1,339,ratio11_5_10_4.png,,,,,,,,,,,,
,,,,,,,,,,,,Many,Some,Half,All,None,Less than half,More than half,Few,Most,-0.475925914,0.016666652,1,0,0,QQQ8,,,,,,,,English,2020-07-02_10h59.26.244,Experiment_English,3.2.4,Win32,60,,,1,0,340,155,1,339,ratio19_2_20_13.png,,,,,,,,,,,,
,,,,,,,,,,,,Many,Less than half,Few,Half,All,More than half,None,Some,Most,0.130555586,-0.302777802,1,0,0,QQQ6,,,,,,,,English,2020-07-02_10h59.26.244,Experiment_English,3.2.4,Win32,60,,,1,0,340,169,1,339,ratio21_6_9_7.png,,,,,,,,,,,,
,,,,,,,,,,,,Most,Half,Many,Less than half,All,None,More than half,Some,Few,-0.423148134,-0.243518597,1,0,0,QQQ9,,,,,,,,English,2020-07-02_10h59.26.244,Experiment_English,3.2.4,Win32,60,,,1,0,340,2,1,339,ratio12_1_3_10.png,,,,,,,,,,,,
,,,,,,,,,,,,All,Many,Less than half,Some,More than half,Half,Most,None,Few,-0.491666655,0.228703696,1,0,0,QQQ7,,,,,,,,English,2020-07-02_10h59.26.244,Experiment_English,3.2.4,Win32,60,,,1,0,340,322,1,339,ratio91_9_10_3.png,,,,,,,,,,,,
,,,,,,,,,,,,Few,More than half,Many,None,Less than half,Most,All,Half,Some,0.041666694,-0.313888913,1,0,0,QQQ6,,,,,,,,English,2020-07-02_10h59.26.244,Experiment_English,3.2.4,Win32,60,,,1,0,340,308,1,339,ratio51_10_12_9.png,,,,,,,,,,,,
,,,,,,,,,,,,Most,More than half,All,None,Some,Half,Few,Many,Less than half,-0.007407381,0.304629624,1,0,0,QQQ4,,,,,,,,English,2020-07-02_10h59.26.244,Experiment_English,3.2.4,Win32,60,,,1,0,340,64,1,339,ratio0Y_0_7_1.png,,,,,,,,,,,,
,,,,,,,,,,,,Most,Less than half,Half,Few,All,More than half,None,Some,Many,-0.050925844,0.329629625,1,0,0,QQQ4,,,,,,,,English,2020-07-02_10h59.26.244,Experiment_English,3.2.4,Win32,60,,,1,0,340,82,1,339,ratio13_1_4_7.png,,,,,,,,,,,,
,,,,,,,,,,,,More than half,Half,Less than half,Some,Few,None,Many,Most,All,0.53981497,0.240740733,1,0,0,QQQ1,,,,,,,,English,2020-07-02_10h59.26.244,Experiment_English,3.2.4,Win32,60,,,1,0,340,228,1,339,ratio32_6_10_7.png,,,,,,,,,,,,
,,,,,,,,,,,,All,None,More than half,Few,Less than half,Many,Most,Half,Some,-0.475925914,-0.005555571,1,0,0,QQQ8,,,,,,,,English,2020-07-02_10h59.26.244,Experiment_English,3.2.4,Win32,60,,,1,0,340,251,1,339,ratio34_6_14_2.png,,,,,,,,,,,,
,,,,,,,,,,,,Few,Some,More than half,Less than half,Many,All,Half,Most,None,-0.425925912,-0.297222246,1,0,0,QQQ9,,,,,,,,English,2020-07-02_10h59.26.244,Experiment_English,3.2.4,Win32,60,,,1,0,340,76,1,339,ratio0Y_0_17_10.png,,,,,,,,,,,,
,,,,,,,,,,,,Half,Some,Many,Most,All,Few,None,Less than half,More than half,0.390740779,0.300925906,1,0,0,QQQ1,,,,,,,,English,2020-07-02_10h59.26.244,Experiment_English,3.2.4,Win32,60,,,1,0,340,291,1,339,ratio43_8_14_5.png,,,,,,,,,,,,
,,,,,,,,,,,,More than half,None,Half,Less than half,Many,Few,Most,Some,All,0.02129638,-0.345370396,1,0,0,QQQ6,,,,,,,,English,2020-07-02_10h59.26.244,Experiment_English,3.2.4,Win32,60,,,1,0,340,145,1,339,ratio19_1_10_15.png,0.301851887,-0.393518602,1,0,0,continue_button_pause,1,0,1,0,1,0
,,,,,,,,,,,,,,,,,,,,,,,,,,,,,,,,,,English,2020-07-02_10h59.26.244,Experiment_English,3.2.4,Win32,60,,,1,0,340,145,1,339,ratio19_1_10_15.png,,,,,,,,,,,,
,,,,,,,,,,,,All,More than half,Half,Many,None,Few,Most,Less than half,Some,0.369444482,-0.306481506,1,0,0,QQQ3,,,,,,,,English,2020-07-02_10h59.26.244,Experiment_English,3.2.4,Win32,60,,,1,0,340,289,1,339,ratio43_4_7_20.png,,,,,,,,,,,,
,,,,,,,,,,,,More than half,Some,Half,All,Less than half,Many,None,Few,Most,-0.018518493,0.020370356,1,0,0,QQQ5,,,,,,,,English,2020-07-02_10h59.26.244,Experiment_English,3.2.4,Win32,60,,,1,0,340,182,1,339,ratio23_2_5_7.png,,,,,,,,,,,,
,,,,,,,,,,,,Most,Some,Few,Many,Half,Less than half,More than half,None,All,-0.094444421,-0.279629709,1,0,0,QQQ6,,,,,,,,English,2020-07-02_10h59.26.244,Experiment_English,3.2.4,Win32,60,,,1,0,340,117,1,339,ratio14_4_20_6.png,,,,,,,,,,,,
,,,,,,,,,,,,None,Half,Few,More than half,Less than half,Most,Many,Some,All,0.420370409,-0.243518597,1,0,0,QQQ3,,,,,,,,English,2020-07-02_10h59.26.244,Experiment_English,3.2.4,Win32,60,,,1,0,340,147,1,339,ratio19_1_10_18.png,,,,,,,,,,,,
,,,,,,,,,,,,Less than half,Some,All,More than half,Half,None,Most,Many,Few,-0.4657407,-0.30092595,1,0,0,QQQ9,,,,,,,,English,2020-07-02_10h59.26.244,Experiment_English,3.2.4,Win32,60,,,1,0,340,84,1,339,ratio13_2_8_1.png,,,,,,,,,,,,
,,,,,,,,,,,,More than half,Few,Many,Some,Most,All,Less than half,None,Half,0.031481509,0.011111097,1,0,0,QQQ5,,,,,,,,English,2020-07-02_10h59.26.244,Experiment_English,3.2.4,Win32,60,,,1,0,340,313,1,339,ratio51_15_18_2.png,,,,,,,,,,,,
,,,,,,,,,,,,Many,Most,None,Some,Half,More than half,All,Less than half,Few,-0.563888879,-0.259259282,1,0,0,QQQ9,,,,,,,,English,2020-07-02_10h59.26.244,Experiment_English,3.2.4,Win32,60,,,1,0,340,158,1,339,ratio19_2_20_17.png,,,,,,,,,,,,
,,,,,,,,,,,,All,Less than half,Half,Some,Many,More than half,Few,Most,None,0.033333361,-0.037962979,1,0,0,QQQ5,,,,,,,,English,2020-07-02_10h59.26.244,Experiment_English,3.2.4,Win32,60,,,1,0,340,196,1,339,ratio23_8_20_5.png,,,,,,,,,,,,
,,,,,,,,,,,,Most,Half,None,Few,More than half,Many,Some,Less than half,All,0.079629658,0.326851847,1,0,0,QQQ4,,,,,,,,English,2020-07-02_10h59.26.244,Experiment_English,3.2.4,Win32,60,,,1,0,340,113,1,339,ratio14_3_15_8.png,,,,,,,,,,,,
,,,,,,,,,,,,None,Half,Some,Many,Less than half,Few,All,More than half,Most,-0.440740699,-0.264814838,1,0,0,QQQ9,,,,,,,,English,2020-07-02_10h59.26.244,Experiment_English,3.2.4,Win32,60,,,1,0,340,331,1,339,ratio91_18_20_3.png,,,,,,,,,,,,
,,,,,,,,,,,,Some,Most,Less than half,Many,None,Few,More than half,Half,All,0.061111139,-0.292592616,1,0,0,QQQ6,,,,,,,,English,2020-07-02_10h59.26.244,Experiment_English,3.2.4,Win32,60,,,1,0,340,151,1,339,ratio19_2_20_4.png,,,,,,,,,,,,
,,,,,,,,,,,,Some,Few,Less than half,Half,More than half,None,All,Many,Most,0.427777817,0.007407393,1,0,0,QQQ2,,,,,,,,English,2020-07-02_10h59.26.244,Experiment_English,3.2.4,Win32,60,,,1,0,340,92,1,339,ratio13_4_16_3.png,,,,,,,,,,,,
,,,,,,,,,,,,Many,Half,All,More than half,Few,Most,Some,Less than half,None,0.535185228,-0.023148164,1,0,0,QQQ2,,,,,,,,English,2020-07-02_10h59.26.244,Experiment_English,3.2.4,Win32,60,,,1,0,340,246,1,339,ratio34_3_7_11.png,,,,,,,,,,,,
,,,,,,,,,,,,Half,Few,All,More than half,Many,None,Some,Less than half,Most,-0.397222208,-1.4912E-08,1,0,0,QQQ8,,,,,,,,English,2020-07-02_10h59.26.244,Experiment_English,3.2.4,Win32,60,,,1,0,340,3,1,339,ratio12_2_6_3.png,,,,,,,,,,,,
,,,,,,,,,,,,Some,Few,All,None,Less than half,Most,Many,Half,More than half,0.462963003,-0.065740758,1,0,0,QQQ2,,,,,,,,English,2020-07-02_10h59.26.244,Experiment_English,3.2.4,Win32,60,,,1,0,340,144,1,339,ratio19_1_10_11.png,,,,,,,,,,,,
,,,,,,,,,,,,Less than half,Few,More than half,Most,Some,None,Many,All,Half,0.373148186,-0.056481498,1,0,0,QQQ2,,,,,,,,English,2020-07-02_10h59.26.244,Experiment_English,3.2.4,Win32,60,,,1,0,340,97,1,339,ratio13_5_20_2.png,,,,,,,,,,,,
,,,,,,,,,,,,Most,None,More than half,Some,Few,Half,All,Many,Less than half,0.458333373,0.229629622,1,0,0,QQQ1,,,,,,,,English,2020-07-02_10h59.26.244,Experiment_English,3.2.4,Win32,60,,,1,0,340,311,1,339,ratio51_10_12_14.png,,,,,,,,,,,,
,,,,,,,,,,,,Some,All,Less than half,Few,More than half,None,Most,Half,Many,-0.464814802,-0.023148164,1,0,0,QQQ8,,,,,,,,English,2020-07-02_10h59.26.244,Experiment_English,3.2.4,Win32,60,,,1,0,340,227,1,339,ratio32_6_10_6.png,,,,,,,,,,,,
,,,,,,,,,,,,Many,Most,Few,Half,More than half,All,None,Less than half,Some,0.581481638,-0.360185267,1,0,0,QQQ3,,,,,,,,English,2020-07-02_10h59.26.244,Experiment_English,3.2.4,Win32,60,,,1,0,340,121,1,339,ratio15_1_6_4.png,,,,,,,,,,,,
,,,,,,,,,,,,Some,All,Few,Half,Many,None,More than half,Less than half,Most,0.579629673,-0.362037063,1,0,0,QQQ3,,,,,,,,English,2020-07-02_10h59.26.244,Experiment_English,3.2.4,Win32,60,,,1,0,340,101,1,339,ratio14_1_5_7.png,,,,,,,,,,,,
,,,,,,,,,,,,None,Half,More than half,Few,Many,Most,Some,All,Less than half,-0.088888865,0.237037029,1,0,0,QQQ4,,,,,,,,English,2020-07-02_10h59.26.244,Experiment_English,3.2.4,Win32,60,,,1,0,340,133,1,339,ratio15_3_18_3.png,,,,,,,,,,,,
,,,,,,,,,,,,Some,Half,Less than half,All,None,More than half,Most,Many,Few,0.035185269,0.210185177,1,0,0,QQQ4,,,,,,,,English,2020-07-02_10h59.26.244,Experiment_English,3.2.4,Win32,60,,,1,0,340,51,1,339,ratioX0_12_12_9.png,,,,,,,,,,,,
,,,,,,,,,,,,Half,More than half,None,Most,All,Many,Less than half,Few,Some,0.02129638,0.330555551,1,0,0,QQQ4,,,,,,,,English,2020-07-02_10h59.26.244,Experiment_English,3.2.4,Win32,60,,,1,0,340,265,1,339,ratio41_8_10_1.png,,,,,,,,,,,,
,,,,,,,,,,,,None,All,Many,Few,Some,Most,More than half,Less than half,Half,-0.462962922,-0.017592608,1,0,0,QQQ8,,,,,,,,English,2020-07-02_10h59.26.244,Experiment_English,3.2.4,Win32,60,,,1,0,340,245,1,339,ratio34_3_7_10.png,,,,,,,,,,,,
,,,,,,,,,,,,Most,Many,Few,Less than half,None,Half,Some,More than half,All,-0.449074033,-0.007407423,1,0,0,QQQ8,,,,,,,,English,2020-07-02_10h59.26.244,Experiment_English,3.2.4,Win32,60,,,1,0,340,223,1,339,ratio32_3_5_5.png,,,,,,,,,,,,
,,,,,,,,,,,,Less than half,Half,More than half,Some,None,Many,All,Most,Few,0.468518559,0.013888874,1,0,0,QQQ2,,,,,,,,English,2020-07-02_10h59.26.244,Experiment_English,3.2.4,Win32,60,,,1,0,340,28,1,339,ratio11_5_10_9.png,,,,,,,,,,,,
,,,,,,,,,,,,Most,Many,All,None,More than half,Few,Less than half,Some,Half,-0.412037023,0.294444438,1,0,0,QQQ7,,,,,,,,English,2020-07-02_10h59.26.244,Experiment_English,3.2.4,Win32,60,,,1,0,340,7,1,339,ratio12_3_9_2.png,,,,,,,,,,,,
,,,,,,,,,,,,Few,Some,Most,All,Half,Less than half,Many,None,More than half,0.451851892,0.302777772,1,0,0,QQQ1,,,,,,,,English,2020-07-02_10h59.26.244,Experiment_English,3.2.4,Win32,60,,,1,0,340,129,1,339,ratio15_2_12_9.png,,,,,,,,,,,,
,,,,,,,,,,,,All,None,Some,Few,Less than half,Most,Many,More than half,Half,-0.011111085,0.299074068,1,0,0,QQQ4,,,,,,,,English,2020-07-02_10h59.26.244,Experiment_English,3.2.4,Win32,60,,,1,0,340,85,1,339,ratio13_2_8_5.png,,,,,,,,,,,,
,,,,,,,,,,,,All,Less than half,Many,None,Few,More than half,Half,Most,Some,-0.551851842,-1.4912E-08,1,0,0,QQQ8,,,,,,,,English,2020-07-02_10h59.26.244,Experiment_English,3.2.4,Win32,60,,,1,0,340,201,1,339,ratio31_3_4_7.png,,,,,,,,,,,,
,,,,,,,,,,,,More than half,Some,Less than half,Most,None,Half,Few,All,Many,0.497222264,-0.225925948,1,0,0,QQQ3,,,,,,,,English,2020-07-02_10h59.26.244,Experiment_English,3.2.4,Win32,60,,,1,0,340,19,1,339,ratio12_6_18_9.png,,,,,,,,,,,,
,,,,,,,,,,,,All,More than half,Half,None,Most,Some,Many,Less than half,Few,0.059259288,0.345370366,1,0,0,QQQ4,,,,,,,,English,2020-07-02_10h59.26.244,Experiment_English,3.2.4,Win32,60,,,1,0,340,74,1,339,ratio0Y_0_15_10.png,,,,,,,,,,,,
,,,,,,,,,,,,Many,Less than half,Few,All,Some,Half,Most,None,More than half,0.561111154,-0.065740758,1,0,0,QQQ2,,,,,,,,English,2020-07-02_10h59.26.244,Experiment_English,3.2.4,Win32,60,,,1,0,340,241,1,339,ratio34_3_7_5.png,,,,,,,,,,,,
,,,,,,,,,,,,More than half,Half,Most,Few,Many,Some,All,Less than half,None,0.522222264,-0.301851932,1,0,0,QQQ3,,,,,,,,English,2020-07-02_10h59.26.244,Experiment_English,3.2.4,Win32,60,,,1,0,340,207,1,339,ratio31_6_8_9.png,0.249074108,-0.387963046,1,0,0,continue_button_pause,1,0,1,0,1,0
,,,,,,,,,,,,,,,,,,,,,,,,,,,,,,,,,,English,2020-07-02_10h59.26.244,Experiment_English,3.2.4,Win32,60,,,1,0,340,207,1,339,ratio31_6_8_9.png,,,,,,,,,,,,
,,,,,,,,,,,,Half,All,Some,Less than half,Many,More than half,Few,None,Most,0.057407492,0.254629622,1,0,0,QQQ4,,,,,,,,English,2020-07-02_10h59.26.244,Experiment_English,3.2.4,Win32,60,,,1,0,340,194,1,339,ratio23_6_15_10.png,,,,,,,,,,,,
,,,,,,,,,,,,Less than half,Few,Most,Many,All,More than half,Some,None,Half,0.560185228,-0.26574082,1,0,0,QQQ3,,,,,,,,English,2020-07-02_10h59.26.244,Experiment_English,3.2.4,Win32,60,,,1,0,340,214,1,339,ratio31_12_16_5.png,,,,,,,,,,,,
,,,,,,,,,,,,More than half,All,Half,None,Many,Most,Less than half,Some,Few,0.011111138,-0.294444468,1,0,0,QQQ6,,,,,,,,English,2020-07-02_10h59.26.244,Experiment_English,3.2.4,Win32,60,,,1,0,340,267,1,339,ratio41_8_10_4.png,,,,,,,,,,,,
,,,,,,,,,,,,Less than half,Some,Few,None,All,Half,Many,Most,More than half,-0.463888876,-0.005555571,1,0,0,QQQ8,,,,,,,,English,2020-07-02_10h59.26.244,Experiment_English,3.2.4,Win32,60,,,1,0,340,310,1,339,ratio51_10_12_12.png,,,,,,,,,,,,
,,,,,,,,,,,,Few,Many,Less than half,All,More than half,None,Some,Half,Most,-0.117592513,0.012037022,1,0,0,QQQ5,,,,,,,,English,2020-07-02_10h59.26.244,Experiment_English,3.2.4,Win32,60,,,1,0,340,218,1,339,ratio31_15_20_7.png,,,,,,,,,,,,
,,,,,,,,,,,,Some,None,Half,All,Most,Many,Few,Less than half,More than half,-0.516666656,-0.30462971,1,0,0,QQQ9,,,,,,,,English,2020-07-02_10h59.26.244,Experiment_English,3.2.4,Win32,60,,,1,0,340,281,1,339,ratio43_4_7_4.png,,,,,,,,,,,,
,,,,,,,,,,,,None,Few,Most,Half,All,Some,More than half,Less than half,Many,-0.599074065,0.001851837,1,0,0,QQQ8,,,,,,,,English,2020-07-02_10h59.26.244,Experiment_English,3.2.4,Win32,60,,,1,0,340,5,1,339,ratio12_2_6_9.png,,,,,,,,,,,,
,,,,,,,,,,,,Less than half,Half,Many,More than half,Most,Few,None,All,Some,0.131481512,-0.380555582,1,0,0,QQQ6,,,,,,,,English,2020-07-02_10h59.26.244,Experiment_English,3.2.4,Win32,60,,,1,0,340,153,1,339,ratio19_2_20_8.png,,,,,,,,,,,,
,,,,,,,,,,,,Half,All,Most,Few,Some,More than half,None,Many,Less than half,-0.029629604,-0.288888912,1,0,0,QQQ6,,,,,,,,English,2020-07-02_10h59.26.244,Experiment_English,3.2.4,Win32,60,,,1,0,340,297,1,339,ratio43_8_14_13.png,,,,,,,,,,,,
,,,,,,,,,,,,All,Most,More than half,None,Less than half,Half,Many,Few,Some,-0.379629614,0.057407366,1,0,0,QQQ8,,,,,,,,English,2020-07-02_10h59.26.244,Experiment_English,3.2.4,Win32,60,,,1,0,340,157,1,339,ratio19_2_20_16.png,,,,,,,,,,,,
,,,,,,,,,,,,Many,Most,All,Few,Less than half,Some,More than half,None,Half,-0.000925843,0.011111097,1,0,0,QQQ5,,,,,,,,English,2020-07-02_10h59.26.244,Experiment_English,3.2.4,Win32,60,,,1,0,340,183,1,339,ratio23_2_5_9.png,,,,,,,,,,,,
,,,,,,,,,,,,All,Half,Most,Some,Less than half,More than half,Few,None,Many,-0.070370289,-0.012037052,1,0,0,QQQ5,,,,,,,,English,2020-07-02_10h59.26.244,Experiment_English,3.2.4,Win32,60,,,1,0,340,254,1,339,ratio34_6_14_9.png,,,,,,,,,,,,
,,,,,,,,,,,,Less than half,Some,Most,None,Many,All,More than half,Few,Half,0.066666695,-0.336111136,1,0,0,QQQ6,,,,,,,,English,2020-07-02_10h59.26.244,Experiment_English,3.2.4,Win32,60,,,1,0,340,40,1,339,ratioX0_3_3_5.png,,,,,,,,,,,,
,,,,,,,,,,,,None,Few,Many,Most,All,Half,Some,More than half,Less than half,0.541666709,-0.01481483,1,0,0,QQQ2,,,,,,,,English,2020-07-02_10h59.26.244,Experiment_English,3.2.4,Win32,60,,,1,0,340,123,1,339,ratio15_1_6_12.png,,,,,,,,,,,,
,,,,,,,,,,,,All,Many,Half,Some,Most,None,Few,Less than half,More than half,-0.06944442,-0.017592608,1,0,0,QQQ5,,,,,,,,English,2020-07-02_10h59.26.244,Experiment_English,3.2.4,Win32,60,,,1,0,340,269,1,339,ratio41_8_10_6.png,,,,,,,,,,,,
,,,,,,,,,,,,Few,Some,More than half,Half,None,All,Less than half,Most,Many,0.451851892,-0.312037061,1,0,0,QQQ3,,,,,,,,English,2020-07-02_10h59.26.244,Experiment_English,3.2.4,Win32,60,,,1,0,340,33,1,339,ratio11_7_14_8.png,,,,,,,,,,,,
,,,,,,,,,,,,Most,All,Some,None,Half,Many,More than half,Few,Less than half,0.468518559,0.302777772,1,0,0,QQQ1,,,,,,,,English,2020-07-02_10h59.26.244,Experiment_English,3.2.4,Win32,60,,,1,0,340,276,1,339,ratio41_16_20_4.png,,,,,,,,,,,,
,,,,,,,,,,,,Less than half,None,Few,Half,More than half,All,Some,Many,Most,0.400000038,-0.315740822,1,0,0,QQQ3,,,,,,,,English,2020-07-02_10h59.26.244,Experiment_English,3.2.4,Win32,60,,,1,0,340,137,1,339,ratio15_3_18_16.png,,,,,,,,,,,,
,,,,,,,,,,,,Half,Most,None,Few,Less than half,More than half,All,Some,Many,0.443518558,-0.012037052,1,0,0,QQQ2,,,,,,,,English,2020-07-02_10h59.26.244,Experiment_English,3.2.4,Win32,60,,,1,0,340,314,1,339,ratio51_15_18_4.png,,,,,,,,,,,,
,,,,,,,,,,,,Many,All,More than half,Most,None,Less than half,Half,Few,Some,-0.577777769,0.003703689,1,0,0,QQQ8,,,,,,,,English,2020-07-02_10h59.26.244,Experiment_English,3.2.4,Win32,60,,,1,0,340,112,1,339,ratio14_3_15_4.png,,,,,,,,,,,,
,,,,,,,,,,,,More than half,Half,Many,None,Some,Most,Less than half,All,Few,0.442592632,0.249074067,1,0,0,QQQ1,,,,,,,,English,2020-07-02_10h59.26.244,Experiment_English,3.2.4,Win32,60,,,1,0,340,172,1,339,ratio21_8_12_6.png,,,,,,,,,,,,
,,,,,,,,,,,,Less than half,More than half,Some,Many,Few,All,Half,None,Most,-0.483333321,0.313888883,1,0,0,QQQ7,,,,,,,,English,2020-07-02_10h59.26.244,Experiment_English,3.2.4,Win32,60,,,1,0,340,258,1,339,ratio34_6_14_14.png,,,,,,,,,,,,
,,,,,,,,,,,,Half,None,Less than half,Most,Some,More than half,Few,All,Many,0.521296338,-0.33981484,1,0,0,QQQ3,,,,,,,,English,2020-07-02_10h59.26.244,Experiment_English,3.2.4,Win32,60,,,1,0,340,253,1,339,ratio34_6_14_5.png,,,,,,,,,,,,
,,,,,,,,,,,,Less than half,All,Few,Many,More than half,Some,Half,Most,None,0.591666711,0.009259245,1,0,0,QQQ2,,,,,,,,English,2020-07-02_10h59.26.244,Experiment_English,3.2.4,Win32,60,,,1,0,340,43,1,339,ratioX0_6_6_9.png,,,,,,,,,,,,
,,,,,,,,,,,,Most,Few,Less than half,All,More than half,None,Many,Some,Half,-0.398148134,-0.297222246,1,0,0,QQQ9,,,,,,,,English,2020-07-02_10h59.26.244,Experiment_English,3.2.4,Win32,60,,,1,0,340,23,1,339,ratio11_3_6_9.png,,,,,,,,,,,,
,,,,,,,,,,,,None,Few,More than half,Half,Most,Less than half,All,Many,Some,0.045370398,-0.042592609,1,0,0,QQQ5,,,,,,,,English,2020-07-02_10h59.26.244,Experiment_English,3.2.4,Win32,60,,,1,0,340,328,1,339,ratio91_9_10_15.png,,,,,,,,,,,,
,,,,,,,,,,,,Some,None,Many,Few,Less than half,Most,Half,More than half,All,-0.474999988,-0.247222244,1,0,0,QQQ9,,,,,,,,English,2020-07-02_10h59.26.244,Experiment_English,3.2.4,Win32,60,,,1,0,340,54,1,339,ratioX0_15_15_5.png,,,,,,,,,,,,
,,,,,,,,,,,,Some,Many,Most,Less than half,Few,More than half,All,Half,None,0.373148186,-0.239814837,1,0,0,QQQ3,,,,,,,,English,2020-07-02_10h59.26.244,Experiment_English,3.2.4,Win32,60,,,1,0,340,261,1,339,ratio41_4_5_3.png,,,,,,,,,,,,
,,,,,,,,,,,,Half,More than half,None,Most,Less than half,Few,All,Many,Some,0.032407491,0.290740735,1,0,0,QQQ4,,,,,,,,English,2020-07-02_10h59.26.244,Experiment_English,3.2.4,Win32,60,,,1,0,340,312,1,339,ratio51_10_12_16.png,,,,,,,,,,,,
,,,,,,,,,,,,Half,Some,Less than half,None,Many,Few,All,Most,More than half,-0.484259247,-0.033333349,1,0,0,QQQ8,,,,,,,,English,2020-07-02_10h59.26.244,Experiment_English,3.2.4,Win32,60,,,1,0,340,177,1,339,ratio21_12_18_1.png,,,,,,,,,,,,
,,,,,,,,,,,,Most,Some,Few,None,Less than half,More than half,All,Many,Half,0.108333363,-0.26666669,1,0,0,QQQ6,,,,,,,,English,2020-07-02_10h59.26.244,Experiment_English,3.2.4,Win32,60,,,1,0,340,226,1,339,ratio32_6_10_5.png,,,,,,,,,,,,
,,,,,,,,,,,,Few,More than half,Most,Many,All,Half,Some,None,Less than half,0.453703744,0.265740734,1,0,0,QQQ1,,,,,,,,English,2020-07-02_10h59.26.244,Experiment_English,3.2.4,Win32,60,,,1,0,340,149,1,339,ratio19_1_10_20.png,,,,,,,,,,,,
,,,,,,,,,,,,More than half,Most,Many,Half,Less than half,Some,All,Few,None,0.487963004,0.027777764,1,0,0,QQQ2,,,,,,,,English,2020-07-02_10h59.26.244,Experiment_English,3.2.4,Win32,60,,,1,0,340,204,1,339,ratio31_6_8_1.png,,,,,,,,,,,,
,,,,,,,,,,,,Less than half,More than half,Few,All,Many,None,Most,Half,Some,0.402777816,0.233333325,1,0,0,QQQ1,,,,,,,,English,2020-07-02_10h59.26.244,Experiment_English,3.2.4,Win32,60,,,1,0,340,192,1,339,ratio23_6_15_8.png,0.404629668,-0.353703729,1,0,0,continue_button_pause,1,0,1,0,1,0
,,,,,,,,,,,,,,,,,,,,,,,,,,,,,,,,,,English,2020-07-02_10h59.26.244,Experiment_English,3.2.4,Win32,60,,,1,0,340,192,1,339,ratio23_6_15_8.png,,,,,,,,,,,,
,,,,,,,,,,,,Less than half,Some,All,Most,More than half,None,Half,Many,Few,-0.364814799,-0.066666684,1,0,0,QQQ8,,,,,,,,English,2020-07-02_10h59.26.244,Experiment_English,3.2.4,Win32,60,,,1,0,340,303,1,339,ratio51_5_6_6.png,,,,,,,,,,,,
,,,,,,,,,,,,More than half,Many,Most,Few,All,Some,Less than half,None,Half,0.467592633,-0.312963044,1,0,0,QQQ3,,,,,,,,English,2020-07-02_10h59.26.244,Experiment_English,3.2.4,Win32,60,,,1,0,340,209,1,339,ratio31_9_12_6.png,,,,,,,,,,,,
,,,,,,,,,,,,All,Some,Half,More than half,Many,Most,Less than half,Few,None,0.067592621,0.33518518,1,0,0,QQQ4,,,,,,,,English,2020-07-02_10h59.26.244,Experiment_English,3.2.4,Win32,60,,,1,0,340,292,1,339,ratio43_8_14_6.png,,,,,,,,,,,,
,,,,,,,,,,,,All,Most,Less than half,More than half,Many,Half,None,Few,Some,0.051851936,-0.329629711,1,0,0,QQQ6,,,,,,,,English,2020-07-02_10h59.26.244,Experiment_English,3.2.4,Win32,60,,,1,0,340,22,1,339,ratio11_3_6_6.png,,,,,,,,,,,,
,,,,,,,,,,,,Few,Less than half,Half,All,None,Most,Some,More than half,Many,-0.020370288,0.355555551,1,0,0,QQQ4,,,,,,,,English,2020-07-02_10h59.26.244,Experiment_English,3.2.4,Win32,60,,,1,0,340,50,1,339,ratioX0_12_12_3.png,,,,,,,,,,,,
,,,,,,,,,,,,None,Less than half,More than half,Most,Many,Half,Few,All,Some,0.575000044,-0.293518599,1,0,0,QQQ3,,,,,,,,English,2020-07-02_10h59.26.244,Experiment_English,3.2.4,Win32,60,,,1,0,340,178,1,339,ratio21_12_18_2.png,,,,,,,,,,,,
,,,,,,,,,,,,Half,More than half,All,Some,Many,Most,None,Few,Less than half,-0.463888876,-0.012962978,1,0,0,QQQ8,,,,,,,,English,2020-07-02_10h59.26.244,Experiment_English,3.2.4,Win32,60,,,1,0,340,159,1,339,ratio19_2_20_20.png,,,,,,,,,,,,
,,,,,,,,,,,,Half,None,Many,Few,Some,Most,Less than half,More than half,All,0.52314819,0.034259245,1,0,0,QQQ2,,,,,,,,English,2020-07-02_10h59.26.244,Experiment_English,3.2.4,Win32,60,,,1,0,340,78,1,339,ratio0Y_0_19_1.png,,,,,,,,,,,,
,,,,,,,,,,,,More than half,Most,Less than half,Half,Many,Few,Some,None,All,-0.509259248,0.032407365,1,0,0,QQQ8,,,,,,,,English,2020-07-02_10h59.26.244,Experiment_English,3.2.4,Win32,60,,,1,0,340,73,1,339,ratio0Y_0_14_7.png,,,,,,,,,,,,
,,,,,,,,,,,,Less than half,All,More than half,Some,Half,Many,Few,Most,None,0.40648152,0.284259239,1,0,0,QQQ1,,,,,,,,English,2020-07-02_10h59.26.244,Experiment_English,3.2.4,Win32,60,,,1,0,340,13,1,339,ratio12_5_15_3.png,,,,,,,,,,,,
,,,,,,,,,,,,Most,More than half,None,Less than half,Half,Some,Many,All,Few,0.046296381,0.007407393,1,0,0,QQQ5,,,,,,,,English,2020-07-02_10h59.26.244,Experiment_English,3.2.4,Win32,60,,,1,0,340,24,1,339,ratio11_4_8_3.png,,,,,,,,,,,,
,,,,,,,,,,,,Most,More than half,Few,Half,All,Many,Less than half,Some,None,-0.401851837,-0.257407486,1,0,0,QQQ9,,,,,,,,English,2020-07-02_10h59.26.244,Experiment_English,3.2.4,Win32,60,,,1,0,340,67,1,339,ratio0Y_0_10_10.png,,,,,,,,,,,,
,,,,,,,,,,,,All,Few,Less than half,None,Half,Most,Some,Many,More than half,0.549074117,-0.318518599,1,0,0,QQQ3,,,,,,,,English,2020-07-02_10h59.26.244,Experiment_English,3.2.4,Win32,60,,,1,0,340,37,1,339,ratio11_9_18_8.png,,,,,,,,,,,,
,,,,,,,,,,,,Less than half,Few,None,Most,All,Half,Many,Some,More than half,0.015740824,-0.316666691,1,0,0,QQQ6,,,,,,,,English,2020-07-02_10h59.26.244,Experiment_English,3.2.4,Win32,60,,,1,0,340,252,1,339,ratio34_6_14_3.png,,,,,,,,,,,,
,,,,,,,,,,,,Many,Some,Half,Most,More than half,None,Few,All,Less than half,0.567592749,-0.275925949,1,0,0,QQQ3,,,,,,,,English,2020-07-02_10h59.26.244,Experiment_English,3.2.4,Win32,60,,,1,0,340,25,1,339,ratio11_4_8_10.png,,,,,,,,,,,,
,,,,,,,,,,,,Half,More than half,Less than half,None,Most,Few,All,Many,Some,0.066666695,0.212962954,1,0,0,QQQ4,,,,,,,,English,2020-07-02_10h59.26.244,Experiment_English,3.2.4,Win32,60,,,1,0,340,79,1,339,ratio0Y_0_20_4.png,,,,,,,,,,,,
,,,,,,,,,,,,Many,All,Half,Few,Less than half,None,Most,Some,More than half,0.102777807,-0.04907409,1,0,0,QQQ5,,,,,,,,English,2020-07-02_10h59.26.244,Experiment_English,3.2.4,Win32,60,,,1,0,340,0,1,339,ratio12_1_3_3.png,,,,,,,,,,,,
,,,,,,,,,,,,All,Half,Less than half,Most,None,Many,More than half,Few,Some,-0.468518478,-0.023148164,1,0,0,QQQ8,,,,,,,,English,2020-07-02_10h59.26.244,Experiment_English,3.2.4,Win32,60,,,1,0,340,107,1,339,ratio14_2_10_5.png,,,,,,,,,,,,
,,,,,,,,,,,,More than half,Some,Most,Less than half,Few,Half,Many,None,All,0.457407448,-0.258333356,1,0,0,QQQ3,,,,,,,,English,2020-07-02_10h59.26.244,Experiment_English,3.2.4,Win32,60,,,1,0,340,171,1,339,ratio21_8_12_4.png,,,,,,,,,,,,
,,,,,,,,,,,,Most,None,Half,Few,Less than half,Many,All,Some,More than half,0.405555594,0.29166666,1,0,0,QQQ1,,,,,,,,English,2020-07-02_10h59.26.244,Experiment_English,3.2.4,Win32,60,,,1,0,340,319,1,339,ratio51_15_18_20.png,,,,,,,,,,,,
,,,,,,,,,,,,None,Most,Half,Less than half,Some,Many,More than half,All,Few,-0.537962953,-0.004629645,1,0,0,QQQ8,,,,,,,,English,2020-07-02_10h59.26.244,Experiment_English,3.2.4,Win32,60,,,1,0,340,55,1,339,ratioX0_16_16_3.png,,,,,,,,,,,,
,,,,,,,,,,,,Some,All,Less than half,More than half,None,Many,Half,Few,Most,-0.371296281,-0.277777801,1,0,0,QQQ9,,,,,,,,English,2020-07-02_10h59.26.244,Experiment_English,3.2.4,Win32,60,,,1,0,340,264,1,339,ratio41_4_5_6.png,,,,,,,,,,,,
,,,,,,,,,,,,Some,Few,Many,Less than half,More than half,All,Most,None,Half,-0.059259178,-0.30462971,1,0,0,QQQ6,,,,,,,,English,2020-07-02_10h59.26.244,Experiment_English,3.2.4,Win32,60,,,1,0,340,339,1,339,ratio91_18_20_19.png,,,,,,,,,,,,
,,,,,,,,,,,,More than half,Half,Some,Less than half,None,Few,All,Most,Many,0.564814971,-0.028703719,1,0,0,QQQ2,,,,,,,,English,2020-07-02_10h59.26.244,Experiment_English,3.2.4,Win32,60,,,1,0,340,6,1,339,ratio12_3_9_1.png,,,,,,,,,,,,
,,,,,,,,,,,,None,Most,Half,More than half,All,Less than half,Many,Few,Some,-0.459259246,-0.005555571,1,0,0,QQQ8,,,,,,,,English,2020-07-02_10h59.26.244,Experiment_English,3.2.4,Win32,60,,,1,0,340,154,1,339,ratio19_2_20_11.png,,,,,,,,,,,,
,,,,,,,,,,,,All,Most,Many,Less than half,More than half,Some,Few,Half,None,0.039814842,-0.027777794,1,0,0,QQQ5,,,,,,,,English,2020-07-02_10h59.26.244,Experiment_English,3.2.4,Win32,60,,,1,0,340,163,1,339,ratio21_4_6_1.png,,,,,,,,,,,,
,,,,,,,,,,,,None,Less than half,Half,Many,More than half,Some,All,Most,Few,-0.441666653,-0.085185203,1,0,0,QQQ8,,,,,,,,English,2020-07-02_10h59.26.244,Experiment_English,3.2.4,Win32,60,,,1,0,340,213,1,339,ratio31_12_16_2.png,,,,,,,,,,,,
,,,,,,,,,,,,Half,Some,More than half,Most,Less than half,Many,Few,All,None,-0.132407385,0.279629623,1,0,0,QQQ4,,,,,,,,English,2020-07-02_10h59.26.244,Experiment_English,3.2.4,Win32,60,,,1,0,340,203,1,339,ratio31_3_4_9.png,,,,,,,,,,,,
,,,,,,,,,,,,Half,Most,Few,Some,All,Less than half,Many,None,More than half,0.474074115,-0.277777801,1,0,0,QQQ3,,,,,,,,English,2020-07-02_10h59.26.244,Experiment_English,3.2.4,Win32,60,,,1,0,340,100,1,339,ratio14_1_5_3.png,,,,,,,,,,,,
,,,,,,,,,,,,Less than half,More than half,Few,Most,Half,None,Many,Some,All,0.037963047,-0.362963045,1,0,0,QQQ6,,,,,,,,English,2020-07-02_10h59.26.244,Experiment_English,3.2.4,Win32,60,,,1,0,340,70,1,339,ratio0Y_0_12_5.png,,,,,,,,,,,,
,,,,,,,,,,,,Half,Less than half,Some,Many,Few,Most,More than half,None,All,-0.072222198,-0.277777801,1,0,0,QQQ6,,,,,,,,English,2020-07-02_10h59.26.244,Experiment_English,3.2.4,Win32,60,,,1,0,340,160,1,339,ratio21_2_3_2.png,,,,,,,,,,,,
,,,,,,,,,,,,Some,Half,Most,None,More than half,Less than half,Few,Many,All,0.450925966,-0.26203706,1,0,0,QQQ3,,,,,,,,English,2020-07-02_10h59.26.244,Experiment_English,3.2.4,Win32,60,,,1,0,340,315,1,339,ratio51_15_18_10.png,,,,,,,,,,,,
,,,,,,,,,,,,All,Less than half,None,Few,Many,Some,Most,Half,More than half,-0.42685181,0.256481474,1,0,0,QQQ7,,,,,,,,English,2020-07-02_10h59.26.244,Experiment_English,3.2.4,Win32,60,,,1,0,340,277,1,339,ratio41_16_20_8.png,,,,,,,,,,,,
,,,,,,,,,,,,Many,None,Most,All,Half,More than half,Less than half,Some,Few,0.45462967,-0.285185265,1,0,0,QQQ3,,,,,,,,English,2020-07-02_10h59.26.244,Experiment_English,3.2.4,Win32,60,,,1,0,340,324,1,339,ratio91_9_10_7.png,0.432407447,-0.379629712,1,0,0,continue_button_pause,1,0,1,0,1,0
,,,,,,,,,,,,,,,,,,,,,,,,,,,,,,,,,,English,2020-07-02_10h59.26.244,Experiment_English,3.2.4,Win32,60,,,1,0,340,324,1,339,ratio91_9_10_7.png,,,,,,,,,,,,
,,,,,,,,,,,,Less than half,Most,Half,All,Few,None,Some,Many,More than half,-0.041666641,-0.060185202,1,0,0,QQQ5,,,,,,,,English,2020-07-02_10h59.26.244,Experiment_English,3.2.4,Win32,60,,,1,0,340,115,1,339,ratio14_4_20_1.png,,,,,,,,,,,,
,,,,,,,,,,,,Most,Less than half,Few,All,Many,Half,Some,More than half,None,0.399074112,-0.247222244,1,0,0,QQQ3,,,,,,,,English,2020-07-02_10h59.26.244,Experiment_English,3.2.4,Win32,60,,,1,0,340,138,1,339,ratio15_3_18_17.png,,,,,,,,,,,,
,,,,,,,,,,,,Less than half,Half,All,More than half,Some,Few,Many,None,Most,0.012037064,-0.289814838,1,0,0,QQQ6,,,,,,,,English,2020-07-02_10h59.26.244,Experiment_English,3.2.4,Win32,60,,,1,0,340,89,1,339,ratio13_3_12_6.png,,,,,,,,,,,,
,,,,,,,,,,,,Few,Half,Some,All,Most,Many,None,Less than half,More than half,-0.562037027,-0.269444467,1,0,0,QQQ9,,,,,,,,English,2020-07-02_10h59.26.244,Experiment_English,3.2.4,Win32,60,,,1,0,340,288,1,339,ratio43_4_7_18.png,,,,,,,,,,,,
,,,,,,,,,,,,None,Less than half,Some,Half,Many,Most,More than half,Few,All,0.442592632,0.015740726,1,0,0,QQQ2,,,,,,,,English,2020-07-02_10h59.26.244,Experiment_English,3.2.4,Win32,60,,,1,0,340,243,1,339,ratio34_3_7_8.png,,,,,,,,,,,,
,,,,,,,,,,,,Some,All,Many,Less than half,More than half,Half,None,Most,Few,-0.0564814,0.096296256,1,0,0,QQQ5,,,,,,,,English,2020-07-02_10h59.26.244,Experiment_English,3.2.4,Win32,60,,,1,0,340,287,1,339,ratio43_4_7_17.png,,,,,,,,,,,,
,,,,,,,,,,,,Most,Some,Less than half,All,Many,More than half,Half,Few,None,-0.462962922,0.002777763,1,0,0,QQQ8,,,,,,,,English,2020-07-02_10h59.26.244,Experiment_English,3.2.4,Win32,60,,,1,0,340,90,1,339,ratio13_3_12_7.png,,,,,,,,,,,,
,,,,,,,,,,,,None,All,Few,Half,More than half,Most,Some,Less than half,Many,0.429629669,-0.008333348,1,0,0,QQQ2,,,,,,,,English,2020-07-02_10h59.26.244,Experiment_English,3.2.4,Win32,60,,,1,0,340,47,1,339,ratioX0_9_9_4.png,,,,,,,,,,,,
,,,,,,,,,,,,Half,Some,Many,More than half,Most,All,Less than half,Few,None,-0.54999999,-0.011111126,1,0,0,QQQ8,,,,,,,,English,2020-07-02_10h59.26.244,Experiment_English,3.2.4,Win32,60,,,1,0,340,118,1,339,ratio14_4_20_8.png,,,,,,,,,,,,
,,,,,,,,,,,,Half,Less than half,Most,All,Few,Many,None,More than half,Some,0.430555595,-0.308333357,1,0,0,QQQ3,,,,,,,,English,2020-07-02_10h59.26.244,Experiment_English,3.2.4,Win32,60,,,1,0,340,272,1,339,ratio41_12_15_7.png,,,,,,,,,,,,
,,,,,,,,,,,,Half,Many,Less than half,Some,None,Most,All,Few,More than half,0.00833336,-0.355555581,1,0,0,QQQ6,,,,,,,,English,2020-07-02_10h59.26.244,Experiment_English,3.2.4,Win32,60,,,1,0,340,275,1,339,ratio41_16_20_2.png,,,,,,,,,,,,
,,,,,,,,,,,,All,Some,More than half,Half,Less than half,Most,Few,None,Many,0.00833336,-0.355555581,1,0,0,QQQ6,,,,,,,,English,2020-07-02_10h59.26.244,Experiment_English,3.2.4,Win32,60,,,1,0,340,335,1,339,ratio91_18_20_11.png,,,,,,,,,,,,
,,,,,,,,,,,,Many,None,Less than half,More than half,Few,Half,Most,Some,All,0.036111139,-0.041666683,1,0,0,QQQ5,,,,,,,,English,2020-07-02_10h59.26.244,Experiment_English,3.2.4,Win32,60,,,1,0,340,141,1,339,ratio19_1_10_2.png,,,,,,,,,,,,
,,,,,,,,,,,,Less than half,Some,None,Half,Few,More than half,Many,All,Most,-0.489814803,-0.078703721,1,0,0,QQQ8,,,,,,,,English,2020-07-02_10h59.26.244,Experiment_English,3.2.4,Win32,60,,,1,0,340,46,1,339,ratioX0_9_9_3.png,,,,,,,,,,,,
,,,,,,,,,,,,Some,Most,Half,Few,Less than half,Many,None,More than half,All,0.094444474,-0.074074091,1,0,0,QQQ5,,,,,,,,English,2020-07-02_10h59.26.244,Experiment_English,3.2.4,Win32,60,,,1,0,340,256,1,339,ratio34_6_14_11.png,,,,,,,,,,,,
,,,,,,,,,,,,None,All,Most,Less than half,Few,Some,Half,Many,More than half,0.136111142,-0.06759261,1,0,0,QQQ5,,,,,,,,English,2020-07-02_10h59.26.244,Experiment_English,3.2.4,Win32,60,,,1,0,340,99,1,339,ratio13_5_20_4.png,,,,,,,,,,,,
,,,,,,,,,,,,All,Many,Most,Less than half,Some,None,Few,More than half,Half,0.482407448,-0.311111135,0,0,1,QQQ3,,,,,,,,English,2020-07-02_10h59.26.244,Experiment_English,3.2.4,Win32,60,,,1,0,340,268,1,339,ratio41_8_10_5.png,,,,,,,,,,,,
,,,,,,,,,,,,Few,More than half,Many,Some,All,Less than half,None,Half,Most,-0.413888875,-0.250925948,1,0,0,QQQ9,,,,,,,,English,2020-07-02_10h59.26.244,Experiment_English,3.2.4,Win32,60,,,1,0,340,210,1,339,ratio31_9_12_9.png,,,,,,,,,,,,
,,,,,,,,,,,,More than half,Some,Few,Half,All,Less than half,None,Many,Most,0.475000041,-0.357407489,1,0,0,QQQ3,,,,,,,,English,2020-07-02_10h59.26.244,Experiment_English,3.2.4,Win32,60,,,1,0,340,109,1,339,ratio14_2_10_9.png,,,,,,,,,,,,
,,,,,,,,,,,,Some,Few,Half,Many,None,Most,All,More than half,Less than half,-0.444444431,-0.387963046,1,0,0,QQQ9,,,,,,,,English,2020-07-02_10h59.26.244,Experiment_English,3.2.4,Win32,60,,,1,0,340,36,1,339,ratio11_9_18_1.png,,,,,,,,,,,,
,,,,,,,,,,,,Some,None,More than half,Many,Few,Half,All,Less than half,Most,0.019444472,-0.348148173,1,0,0,QQQ6,,,,,,,,English,2020-07-02_10h59.26.244,Experiment_English,3.2.4,Win32,60,,,1,0,340,221,1,339,ratio32_3_5_3.png,,,,,,,,,,,,
,,,,,,,,,,,,Few,Less than half,Many,Half,Most,Some,None,All,More than half,-0.46759258,-0.306481506,1,0,0,QQQ9,,,,,,,,English,2020-07-02_10h59.26.244,Experiment_English,3.2.4,Win32,60,,,1,0,340,282,1,339,ratio43_4_7_7.png,,,,,,,,,,,,
,,,,,,,,,,,,None,Few,Most,Some,Less than half,Half,All,Many,More than half,0.370370408,-0.312963044,1,0,0,QQQ3,,,,,,,,English,2020-07-02_10h59.26.244,Experiment_English,3.2.4,Win32,60,,,1,0,340,302,1,339,ratio51_5_6_5.png,,,,,,,,,,,,
,,,,,,,,,,,,Some,Less than half,Few,More than half,Most,Half,Many,All,None,-0.059259178,0.353703699,1,0,0,QQQ4,,,,,,,,English,2020-07-02_10h59.26.244,Experiment_English,3.2.4,Win32,60,,,1,0,340,225,1,339,ratio32_6_10_4.png,,,,,,,,,,,,
,,,,,,,,,,,,Many,Few,None,More than half,Half,All,Some,Less than half,Most,-0.514814804,-0.031481497,1,0,0,QQQ8,,,,,,,,English,2020-07-02_10h59.26.244,Experiment_English,3.2.4,Win32,60,,,1,0,340,198,1,339,ratio23_8_20_7.png,,,,,,,,,,,,
,,,,,,,,,,,,All,Few,Most,None,Many,Half,Less than half,More than half,Some,-0.468518478,0.276851845,1,0,0,QQQ7,,,,,,,,English,2020-07-02_10h59.26.244,Experiment_English,3.2.4,Win32,60,,,1,0,340,96,1,339,ratio13_5_20_1.png,,,,,,,,,,,,
,,,,,,,,,,,,Less than half,Many,Most,Some,Half,Few,None,More than half,All,0.525000042,-0.250000022,0,0,1,QQQ3,,,,,,,,English,2020-07-02_10h59.26.244,Experiment_English,3.2.4,Win32,60,,,1,0,340,329,1,339,ratio91_9_10_20.png,,,,,,,,,,,,
,,,,,,,,,,,,Many,None,Less than half,All,Few,More than half,Most,Some,Half,-0.577777769,0.21851851,1,0,0,QQQ7,,,,,,,,English,2020-07-02_10h59.26.244,Experiment_English,3.2.4,Win32,60,,,1,0,340,278,1,339,ratio41_16_20_9.png,,,,,,,,,,,,
,,,,,,,,,,,,Few,Many,None,More than half,Some,All,Half,Less than half,Most,-0.456481469,-0.324074155,1,0,0,QQQ9,,,,,,,,English,2020-07-02_10h59.26.244,Experiment_English,3.2.4,Win32,60,,,1,0,340,318,1,339,ratio51_15_18_18.png,,,,,,,,,,,,
,,,,,,,,,,,,More than half,Many,All,Some,Few,Less than half,Half,None,Most,-0.50462959,-0.288888912,1,0,0,QQQ9,,,,,,,,English,2020-07-02_10h59.26.244,Experiment_English,3.2.4,Win32,60,,,1,0,340,208,1,339,ratio31_9_12_3.png,,,,,,,,,,,,
,,,,,,,,,,,,Few,Some,More than half,All,Most,Less than half,None,Half,Many,0.526851894,-0.259259282,1,0,0,QQQ3,,,,,,,,English,2020-07-02_10h59.26.244,Experiment_English,3.2.4,Win32,60,,,1,0,340,280,1,339,ratio43_4_7_2.png,,,,,,,,,,,,
,,,,,,,,,,,,Few,Many,All,Most,None,Less than half,More than half,Half,Some,0.088888918,0.316666661,1,0,0,QQQ4,,,,,,,,English,2020-07-02_10h59.26.244,Experiment_English,3.2.4,Win32,60,,,1,0,340,307,1,339,ratio51_10_12_1.png,,,,,,,,,,,,
,,,,,,,,,,,,Many,Most,Few,Half,Less than half,More than half,None,All,Some,-0.387037022,0.096296256,1,0,0,QQQ8,,,,,,,,English,2020-07-02_10h59.26.244,Experiment_English,3.2.4,Win32,60,,,1,0,340,44,1,339,ratioX0_7_7_5.png,,,,,,,,,,,,
,,,,,,,,,,,,Most,None,All,Many,Few,More than half,Half,Some,Less than half,-0.453703691,-0.289814838,1,0,0,QQQ9,,,,,,,,English,2020-07-02_10h59.26.244,Experiment_English,3.2.4,Win32,60,,,1,0,340,180,1,339,ratio23_2_5_4.png,0.373148186,-0.381481508,1,0,0,continue_button_pause,1,0,1,0,1,0
,,,,,,,,,,,,,,,,,,,,,,,,,,,,,,,,,,English,2020-07-02_10h59.26.244,Experiment_English,3.2.4,Win32,60,,,1,0,340,180,1,339,ratio23_2_5_4.png,,,,,,,,,,,,
,,,,,,,,,,,,None,Half,Less than half,More than half,Many,Most,Few,Some,All,-0.503703692,0.249074067,1,0,0,QQQ7,,,,,,,,English,2020-07-02_10h59.26.244,Experiment_English,3.2.4,Win32,60,,,1,0,340,134,1,339,ratio15_3_18_5.png,,,,,,,,,,,,
,,,,,,,,,,,,Half,Few,Less than half,More than half,All,Some,Most,None,Many,0.424074113,-0.075000017,1,0,0,QQQ2,,,,,,,,English,2020-07-02_10h59.26.244,Experiment_English,3.2.4,Win32,60,,,1,0,340,93,1,339,ratio13_4_16_7.png,,,,,,,,,,,,
,,,,,,,,,,,,More than half,Less than half,Some,Most,Half,None,All,Few,Many,-0.392592578,0.212037028,1,0,0,QQQ7,,,,,,,,English,2020-07-02_10h59.26.244,Experiment_English,3.2.4,Win32,60,,,1,0,340,53,1,339,ratioX0_14_14_8.png,,,,,,,,,,,,
,,,,,,,,,,,,All,Half,None,Less than half,Some,More than half,Many,Few,Most,-0.363888873,-0.311111135,1,0,0,QQQ9,,,,,,,,English,2020-07-02_10h59.26.244,Experiment_English,3.2.4,Win32,60,,,1,0,340,263,1,339,ratio41_4_5_5.png,,,,,,,,,,,,
,,,,,,,,,,,,Few,Less than half,None,Most,All,More than half,Some,Many,Half,0.387963001,-0.068518535,1,0,0,QQQ2,,,,,,,,English,2020-07-02_10h59.26.244,Experiment_English,3.2.4,Win32,60,,,1,0,340,4,1,339,ratio12_2_6_5.png,,,,,,,,,,,,
,,,,,,,,,,,,None,Few,Most,Half,All,More than half,Many,Some,Less than half,0.451851892,0.34444444,1,0,0,QQQ1,,,,,,,,English,2020-07-02_10h59.26.244,Experiment_English,3.2.4,Win32,60,,,1,0,340,69,1,339,ratio0Y_0_11_6.png,,,,,,,,,,,,
,,,,,,,,,,,,All,Most,Few,Half,Less than half,More than half,Many,None,Some,0.109259289,-0.320370395,1,0,0,QQQ6,,,,,,,,English,2020-07-02_10h59.26.244,Experiment_English,3.2.4,Win32,60,,,1,0,340,238,1,339,ratio32_12_20_9.png,,,,,,,,,,,,
,,,,,,,,,,,,Some,Few,Most,More than half,Many,None,Less than half,All,Half,0.019444472,0.215740732,1,0,0,QQQ4,,,,,,,,English,2020-07-02_10h59.26.244,Experiment_English,3.2.4,Win32,60,,,1,0,340,298,1,339,ratio43_8_14_14.png,,,,,,,,,,,,
,,,,,,,,,,,,Less than half,Few,None,Most,Many,More than half,Some,All,Half,0.525925968,0.230555548,1,0,0,QQQ1,,,,,,,,English,2020-07-02_10h59.26.244,Experiment_English,3.2.4,Win32,60,,,1,0,340,18,1,339,ratio12_6_18_7.png,,,,,,,,,,,,
,,,,,,,,,,,,Some,Most,None,More than half,Less than half,Half,Many,Few,All,-0.408333319,0.063888876,1,0,0,QQQ8,,,,,,,,English,2020-07-02_10h59.26.244,Experiment_English,3.2.4,Win32,60,,,1,0,340,86,1,339,ratio13_2_8_6.png,,,,,,,,,,,,
,,,,,,,,,,,,Half,Many,None,More than half,Few,Less than half,Most,All,Some,-0.583333324,0.376851848,1,0,0,QQQ7,,,,,,,,English,2020-07-02_10h59.26.244,Experiment_English,3.2.4,Win32,60,,,1,0,340,306,1,339,ratio51_5_6_18.png,,,,,,,,,,,,
,,,,,,,,,,,,Many,None,Some,Most,Half,All,Less than half,Few,More than half,0.009259286,0.214814806,1,0,0,QQQ4,,,,,,,,English,2020-07-02_10h59.26.244,Experiment_English,3.2.4,Win32,60,,,1,0,340,212,1,339,ratio31_12_16_1.png,,,,,,,,,,,,
,,,,,,,,,,,,Few,Less than half,Many,Some,All,None,Half,More than half,Most,-0.485185145,-0.393518602,1,0,0,QQQ9,,,,,,,,English,2020-07-02_10h59.26.244,Experiment_English,3.2.4,Win32,60,,,1,0,340,217,1,339,ratio31_15_20_5.png,,,,,,,,,,,,
,,,,,,,,,,,,Many,Half,Some,Few,All,Less than half,Most,More than half,None,0.004629713,0.337962958,1,0,0,QQQ4,,,,,,,,English,2020-07-02_10h59.26.244,Experiment_English,3.2.4,Win32,60,,,1,0,340,116,1,339,ratio14_4_20_3.png,,,,,,,,,,,,
,,,,,,,,,,,,Half,Few,Some,Most,All,Less than half,Many,More than half,None,0.477777819,0.346296292,1,0,0,QQQ1,,,,,,,,English,2020-07-02_10h59.26.244,Experiment_English,3.2.4,Win32,60,,,1,0,340,35,1,339,ratio11_8_16_10.png,,,,,,,,,,,,
,,,,,,,,,,,,None,Less than half,Few,All,More than half,Some,Many,Half,Most,-0.445370357,-0.263888912,1,0,0,QQQ9,,,,,,,,English,2020-07-02_10h59.26.244,Experiment_English,3.2.4,Win32,60,,,1,0,340,216,1,339,ratio31_15_20_3.png,,,,,,,,,,,,
,,,,,,,,,,,,Half,Many,More than half,Some,None,Most,Few,All,Less than half,0.043518603,-0.007407423,1,0,0,QQQ5,,,,,,,,English,2020-07-02_10h59.26.244,Experiment_English,3.2.4,Win32,60,,,1,0,340,61,1,339,ratio0Y_0_4_7.png,,,,,,,,,,,,
,,,,,,,,,,,,Half,Most,Some,Less than half,More than half,Few,All,Many,None,0.079629658,0.264814794,1,0,0,QQQ4,,,,,,,,English,2020-07-02_10h59.26.244,Experiment_English,3.2.4,Win32,60,,,1,0,340,249,1,339,ratio34_3_7_20.png,,,,,,,,,,,,
,,,,,,,,,,,,Most,Less than half,More than half,Many,Few,Some,All,Half,None,0.038888917,0.043518477,1,0,0,QQQ5,,,,,,,,English,2020-07-02_10h59.26.244,Experiment_English,3.2.4,Win32,60,,,1,0,340,94,1,339,ratio13_4_16_8.png,,,,,,,,,,,,
,,,,,,,,,,,,Some,Few,More than half,Many,Half,All,Less than half,None,Most,-0.471296256,-0.022222238,1,0,0,QQQ8,,,,,,,,English,2020-07-02_10h59.26.244,Experiment_English,3.2.4,Win32,60,,,1,0,340,71,1,339,ratio0Y_0_12_10.png,,,,,,,,,,,,
,,,,,,,,,,,,Many,Less than half,Few,Some,None,All,Most,More than half,Half,-0.463888876,0.299999994,1,0,0,QQQ7,,,,,,,,English,2020-07-02_10h59.26.244,Experiment_English,3.2.4,Win32,60,,,1,0,340,327,1,339,ratio91_9_10_11.png,,,,,,,,,,,,
,,,,,,,,,,,,More than half,All,Less than half,Many,None,Half,Some,Few,Most,-0.580555546,-0.309259283,1,0,0,QQQ9,,,,,,,,English,2020-07-02_10h59.26.244,Experiment_English,3.2.4,Win32,60,,,1,0,340,316,1,339,ratio51_15_18_11.png,,,,,,,,,,,,
,,,,,,,,,,,,None,More than half,Most,Half,Many,Few,All,Some,Less than half,0.522222264,-0.327777802,1,0,0,QQQ3,,,,,,,,English,2020-07-02_10h59.26.244,Experiment_English,3.2.4,Win32,60,,,1,0,340,266,1,339,ratio41_8_10_2.png,,,,,,,,,,,,
,,,,,,,,,,,,More than half,Many,Some,Less than half,Half,All,None,Most,Few,-0.586111102,-0.331481506,1,0,0,QQQ9,,,,,,,,English,2020-07-02_10h59.26.244,Experiment_English,3.2.4,Win32,60,,,1,0,340,102,1,339,ratio14_1_5_8.png,,,,,,,,,,,,
,,,,,,,,,,,,All,Half,More than half,None,Few,Less than half,Some,Many,Most,-0.479629589,-0.310185266,1,0,0,QQQ9,,,,,,,,English,2020-07-02_10h59.26.244,Experiment_English,3.2.4,Win32,60,,,1,0,340,167,1,339,ratio21_6_9_2.png,,,,,,,,,,,,
,,,,,,,,,,,,Less than half,None,Half,All,Most,Few,Some,More than half,Many,0.039814842,-0.275000023,1,0,0,QQQ6,,,,,,,,English,2020-07-02_10h59.26.244,Experiment_English,3.2.4,Win32,60,,,1,0,340,152,1,339,ratio19_2_20_6.png,,,,,,,,,,,,
,,,,,,,,,,,,Most,All,None,Some,More than half,Many,Few,Less than half,Half,-0.515740701,0.037962921,1,0,0,QQQ8,,,,,,,,English,2020-07-02_10h59.26.244,Experiment_English,3.2.4,Win32,60,,,1,0,340,293,1,339,ratio43_8_14_7.png,,,,,,,,,,,,
,,,,,,,,,,,,Most,Few,More than half,Half,Less than half,All,Many,Some,None,0.486111152,-0.314814839,1,0,0,QQQ3,,,,,,,,English,2020-07-02_10h59.26.244,Experiment_English,3.2.4,Win32,60,,,1,0,340,236,1,339,ratio32_12_20_2.png,,,,,,,,,,,,
,,,,,,,,,,,,Most,Half,Many,Less than half,Some,All,More than half,Few,None,-0.464814802,-0.313888913,1,0,0,QQQ9,,,,,,,,English,2020-07-02_10h59.26.244,Experiment_English,3.2.4,Win32,60,,,1,0,340,75,1,339,ratio0Y_0_16_10.png,,,,,,,,,,,,
,,,,,,,,,,,,Less than half,Many,More than half,Few,Half,All,None,Some,Most,-0.023148066,0.318518513,1,0,0,QQQ4,,,,,,,,English,2020-07-02_10h59.26.244,Experiment_English,3.2.4,Win32,60,,,1,0,340,120,1,339,ratio15_1_6_1.png,,,,,,,,,,,,
,,,,,,,,,,,,None,Many,Half,Most,All,Less than half,Few,More than half,Some,-0.462037024,-0.064814832,1,0,0,QQQ8,,,,,,,,English,2020-07-02_10h59.26.244,Experiment_English,3.2.4,Win32,60,,,1,0,340,233,1,339,ratio32_9_15_9.png,,,,,,,,,,,,
,,,,,,,,,,,,Most,Less than half,Some,Many,All,Few,None,More than half,Half,-0.061111086,-0.30092595,1,0,0,QQQ6,,,,,,,,English,2020-07-02_10h59.26.244,Experiment_English,3.2.4,Win32,60,,,1,0,340,150,1,339,ratio19_2_20_1.png,,,,,,,,,,,,
,,,,,,,,,,,,Many,Half,None,Few,All,Some,Most,More than half,Less than half,-0.024999974,0.210185177,1,0,0,QQQ4,,,,,,,,English,2020-07-02_10h59.26.244,Experiment_English,3.2.4,Win32,60,,,1,0,340,132,1,339,ratio15_2_12_16.png,,,,,,,,,,,,
,,,,,,,,,,,,All,Less than half,Few,Half,Most,Many,None,Some,More than half,0.428703743,0.299999994,1,0,0,QQQ1,,,,,,,,English,2020-07-02_10h59.26.244,Experiment_English,3.2.4,Win32,60,,,1,0,340,57,1,339,ratioX0_18_18_1.png,0.323148184,-0.425000028,1,0,0,continue_button_pause,1,0,1,0,1,0
,,,,,,,,,,,,,,,,,,,,,,,,,,,,,,,,,,English,2020-07-02_10h59.26.244,Experiment_English,3.2.4,Win32,60,,,1,0,340,57,1,339,ratioX0_18_18_1.png,,,,,,,,,,,,
,,,,,,,,,,,,Some,More than half,Many,Most,Half,Less than half,None,All,Few,0.574074118,-0.001851867,1,0,0,QQQ2,,,,,,,,English,2020-07-02_10h59.26.244,Experiment_English,3.2.4,Win32,60,,,1,0,340,283,1,339,ratio43_4_7_8.png,,,,,,,,,,,,
,,,,,,,,,,,,Half,Many,All,More than half,None,Less than half,Some,Most,Few,0.069444473,-0.244444467,1,0,0,QQQ6,,,,,,,,English,2020-07-02_10h59.26.244,Experiment_English,3.2.4,Win32,60,,,1,0,340,240,1,339,ratio34_3_7_4.png,,,,,,,,,,,,
,,,,,,,,,,,,All,More than half,Few,Some,Less than half,None,Most,Half,Many,0.442592632,-0.276851932,1,0,0,QQQ3,,,,,,,,English,2020-07-02_10h59.26.244,Experiment_English,3.2.4,Win32,60,,,1,0,340,156,1,339,ratio19_2_20_14.png,,,,,,,,,,,,
,,,,,,,,,,,,None,More than half,All,Half,Many,Few,Less than half,Most,Some,-0.57962962,0.015740726,1,0,0,QQQ8,,,,,,,,English,2020-07-02_10h59.26.244,Experiment_English,3.2.4,Win32,60,,,1,0,340,305,1,339,ratio51_5_6_14.png,,,,,,,,,,,,
,,,,,,,,,,,,Most,Many,Less than half,Few,All,Some,None,More than half,Half,0.377777816,0.26666666,1,0,0,QQQ1,,,,,,,,English,2020-07-02_10h59.26.244,Experiment_English,3.2.4,Win32,60,,,1,0,340,232,1,339,ratio32_9_15_8.png,,,,,,,,,,,,
,,,,,,,,,,,,Less than half,None,Few,More than half,Most,Half,Some,Many,All,0.57129634,0.399074064,1,0,0,QQQ1,,,,,,,,English,2020-07-02_10h59.26.244,Experiment_English,3.2.4,Win32,60,,,1,0,340,181,1,339,ratio23_2_5_6.png,,,,,,,,,,,,
,,,,,,,,,,,,Some,All,Half,Less than half,More than half,None,Many,Most,Few,0.040740825,-1.4912E-08,1,0,0,QQQ5,,,,,,,,English,2020-07-02_10h59.26.244,Experiment_English,3.2.4,Win32,60,,,1,0,340,164,1,339,ratio21_4_6_6.png,,,,,,,,,,,,
,,,,,,,,,,,,More than half,Few,None,Many,All,Most,Half,Less than half,Some,-0.03518516,-0.388888915,1,0,0,QQQ6,,,,,,,,English,2020-07-02_10h59.26.244,Experiment_English,3.2.4,Win32,60,,,1,0,340,262,1,339,ratio41_4_5_4.png,,,,,,,,,,,,
,,,,,,,,,,,,Half,Most,Many,All,Few,Less than half,More than half,Some,None,-0.039814733,0.25277777,1,0,0,QQQ4,,,,,,,,English,2020-07-02_10h59.26.244,Experiment_English,3.2.4,Win32,60,,,1,0,340,59,1,339,ratioX0_20_20_9.png,,,,,,,,,,,,
,,,,,,,,,,,,Few,Half,Less than half,More than half,Some,Many,All,Most,None,-0.520370359,0.012037022,1,0,0,QQQ8,,,,,,,,English,2020-07-02_10h59.26.244,Experiment_English,3.2.4,Win32,60,,,1,0,340,211,1,339,ratio31_9_12_10.png,,,,,,,,,,,,
,,,,,,,,,,,,All,Less than half,None,Half,Some,Many,Few,Most,More than half,-0.418518476,0.249074067,1,0,0,QQQ7,,,,,,,,English,2020-07-02_10h59.26.244,Experiment_English,3.2.4,Win32,60,,,1,0,340,105,1,339,ratio14_2_10_1.png,,,,,,,,,,,,
,,,,,,,,,,,,Many,Some,Most,Half,Less than half,Few,More than half,None,All,0.409259298,-0.236111133,1,0,0,QQQ3,,,,,,,,English,2020-07-02_10h59.26.244,Experiment_English,3.2.4,Win32,60,,,1,0,340,317,1,339,ratio51_15_18_13.png,,,,,,,,,,,,
,,,,,,,,,,,,Most,Few,Less than half,Some,More than half,All,Half,None,Many,0.059259288,-0.034259275,1,0,0,QQQ5,,,,,,,,English,2020-07-02_10h59.26.244,Experiment_English,3.2.4,Win32,60,,,1,0,340,239,1,339,ratio32_12_20_10.png,,,,,,,,,,,,
,,,,,,,,,,,,All,Half,Most,More than half,Some,Less than half,Many,Few,None,0.035185269,0.372222218,1,0,0,QQQ4,,,,,,,,English,2020-07-02_10h59.26.244,Experiment_English,3.2.4,Win32,60,,,1,0,340,285,1,339,ratio43_4_7_14.png,,,,,,,,,,,,
,,,,,,,,,,,,Some,More than half,Less than half,Many,Half,Most,None,Few,All,-0.456481469,0.011111097,1,0,0,QQQ8,,,,,,,,English,2020-07-02_10h59.26.244,Experiment_English,3.2.4,Win32,60,,,1,0,340,146,1,339,ratio19_1_10_17.png,,,,,,,,,,,,
,,,,,,,,,,,,All,Most,Less than half,Half,None,Few,More than half,Some,Many,0.567592749,0.021296282,1,0,0,QQQ2,,,,,,,,English,2020-07-02_10h59.26.244,Experiment_English,3.2.4,Win32,60,,,1,0,340,325,1,339,ratio91_9_10_8.png,,,,,,,,,,,,
,,,,,,,,,,,,Most,Some,Many,None,Half,More than half,Less than half,Few,All,-0.508333322,0.359259255,1,0,0,QQQ7,,,,,,,,English,2020-07-02_10h59.26.244,Experiment_English,3.2.4,Win32,60,,,1,0,340,187,1,339,ratio23_4_10_5.png,,,,,,,,,,,,
,,,,,,,,,,,,Some,More than half,Most,Half,Less than half,All,Few,None,Many,0.407407446,-0.242592615,1,0,0,QQQ3,,,,,,,,English,2020-07-02_10h59.26.244,Experiment_English,3.2.4,Win32,60,,,1,0,340,260,1,339,ratio41_4_5_2.png,,,,,,,,,,,,
,,,,,,,,,,,,Less than half,More than half,Many,Few,Some,None,All,Half,Most,-0.497222211,-0.318518599,1,0,0,QQQ9,,,,,,,,English,2020-07-02_10h59.26.244,Experiment_English,3.2.4,Win32,60,,,1,0,340,326,1,339,ratio91_9_10_10.png,,,,,,,,,,,,
,,,,,,,,,,,,More than half,Few,Many,All,Most,Less than half,Some,None,Half,0.465740781,0.298148128,1,0,0,QQQ1,,,,,,,,English,2020-07-02_10h59.26.244,Experiment_English,3.2.4,Win32,60,,,1,0,340,39,1,339,ratio11_10_20_6.png,,,,,,,,,,,,
,,,,,,,,,,,,Few,More than half,Some,Less than half,All,Half,None,Most,Many,0.426851891,-0.023148164,1,0,0,QQQ2,,,,,,,,English,2020-07-02_10h59.26.244,Experiment_English,3.2.4,Win32,60,,,1,0,340,179,1,339,ratio21_12_18_8.png,,,,,,,,,,,,
,,,,,,,,,,,,All,Most,More than half,Some,Less than half,Few,Half,Many,None,-0.364814799,-0.221296374,1,0,0,QQQ9,,,,,,,,English,2020-07-02_10h59.26.244,Experiment_English,3.2.4,Win32,60,,,1,0,340,72,1,339,ratio0Y_0_13_4.png,,,,,,,,,,,,
,,,,,,,,,,,,Many,Half,Less than half,Most,Some,More than half,None,All,Few,-0.421296254,-0.302777802,1,0,0,QQQ9,,,,,,,,English,2020-07-02_10h59.26.244,Experiment_English,3.2.4,Win32,60,,,1,0,340,81,1,339,ratio13_1_4_5.png,,,,,,,,,,,,
,,,,,,,,,,,,Some,Half,Many,More than half,Few,Less than half,None,Most,All,-0.5111111,-0.301851932,1,0,0,QQQ9,,,,,,,,English,2020-07-02_10h59.26.244,Experiment_English,3.2.4,Win32,60,,,1,0,340,48,1,339,ratioX0_10_10_1.png,,,,,,,,,,,,
,,,,,,,,,,,,None,Most,Half,Many,Some,All,Less than half,Few,More than half,-0.629629622,-0.292592616,1,0,0,QQQ9,,,,,,,,English,2020-07-02_10h59.26.244,Experiment_English,3.2.4,Win32,60,,,1,0,340,231,1,339,ratio32_9_15_2.png,,,,,,,,,,,,
,,,,,,,,,,,,Few,Less than half,Some,Half,More than half,Many,Most,None,All,0.448148188,-0.065740758,1,0,0,QQQ2,,,,,,,,English,2020-07-02_10h59.26.244,Experiment_English,3.2.4,Win32,60,,,1,0,340,16,1,339,ratio12_5_15_6.png,,,,,,,,,,,,
,,,,,,,,,,,,Half,Some,None,Less than half,More than half,Many,Few,All,Most,0.009259286,-0.015740756,1,0,0,QQQ5,,,,,,,,English,2020-07-02_10h59.26.244,Experiment_English,3.2.4,Win32,60,,,1,0,340,237,1,339,ratio32_12_20_5.png,,,,,,,,,,,,
,,,,,,,,,,,,None,Most,Half,Few,More than half,Some,Many,All,Less than half,0.552777821,-0.374074157,1,0,0,QQQ3,,,,,,,,English,2020-07-02_10h59.26.244,Experiment_English,3.2.4,Win32,60,,,1,0,340,21,1,339,ratio11_2_4_10.png,,,,,,,,,,,,
,,,,,,,,,,,,All,Most,None,More than half,Less than half,Some,Few,Half,Many,0.044444472,-0.042592609,1,0,0,QQQ5,,,,,,,,English,2020-07-02_10h59.26.244,Experiment_English,3.2.4,Win32,60,,,1,0,340,195,1,339,ratio23_8_20_1.png,,,,,,,,,,,,
,,,,,,,,,,,,Half,All,Some,Most,More than half,Many,Less than half,Few,None,-0.055555531,-1.4912E-08,1,0,0,QQQ5,,,,,,,,English,2020-07-02_10h59.26.244,Experiment_English,3.2.4,Win32,60,,,1,0,340,284,1,339,ratio43_4_7_11.png,,,,,,,,,,,,
,,,,,,,,,,,,None,Most,Some,Many,More than half,All,Few,Less than half,Half,-0.344444428,0.034259245,1,0,0,QQQ8,,,,,,,,English,2020-07-02_10h59.26.244,Experiment_English,3.2.4,Win32,60,,,1,0,340,8,1,339,ratio12_3_9_4.png,,,,,,,,,,,,
,,,,,,,,,,,,Few,Less than half,None,More than half,Some,Half,All,Most,Many,0.573148305,0.31018518,1,0,0,QQQ1,,,,,,,,English,2020-07-02_10h59.26.244,Experiment_English,3.2.4,Win32,60,,,1,0,340,80,1,339,ratio13_1_4_3.png,,,,,,,,,,,,
,,,,,,,,,,,,Half,Most,Many,All,Few,Less than half,More than half,None,Some,0.447222262,-0.003703719,1,0,0,QQQ2,,,,,,,,English,2020-07-02_10h59.26.244,Experiment_English,3.2.4,Win32,60,,,1,0,340,332,1,339,ratio91_18_20_4.png,,,,,,,,,,,,
,,,,,,,,,,,,Less than half,Most,Few,Many,All,Some,Half,None,More than half,0.44537041,-0.360185267,1,0,0,QQQ3,,,,,,,,English,2020-07-02_10h59.26.244,Experiment_English,3.2.4,Win32,60,,,1,0,340,162,1,339,ratio21_2_3_9.png,0.429629669,-0.375925952,1,0,0,continue_button_pause,1,0,1,0,1,0
,,,,,,,,,,,,,,,,,,,,,,,,,,,,,,,,,,English,2020-07-02_10h59.26.244,Experiment_English,3.2.4,Win32,60,,,1,0,340,162,1,339,ratio21_2_3_9.png,,,,,,,,,,,,
,,,,,,,,,,,,Few,Some,Less than half,Half,All,More than half,Most,Many,None,0.437037077,-0.387037063,1,0,0,QQQ3,,,,,,,,English,2020-07-02_10h59.26.244,Experiment_English,3.2.4,Win32,60,,,1,0,340,190,1,339,ratio23_6_15_3.png,,,,,,,,,,,,
,,,,,,,,,,,,All,More than half,None,Half,Many,Few,Some,Less than half,Most,-0.405555541,-0.028703719,1,0,0,QQQ8,,,,,,,,English,2020-07-02_10h59.26.244,Experiment_English,3.2.4,Win32,60,,,1,0,340,199,1,339,ratio23_8_20_8.png,,,,,,,,,,,,
,,,,,,,,,,,,More than half,Most,None,All,Less than half,Many,Few,Some,Half,-0.489814803,0.328703699,1,0,0,QQQ7,,,,,,,,English,2020-07-02_10h59.26.244,Experiment_English,3.2.4,Win32,60,,,1,0,340,143,1,339,ratio19_1_10_9.png,,,,,,,,,,,,
,,,,,,,,,,,,Less than half,Some,More than half,Few,None,All,Half,Most,Many,-0.487962923,0.293518512,1,0,0,QQQ7,,,,,,,,English,2020-07-02_10h59.26.244,Experiment_English,3.2.4,Win32,60,,,1,0,340,250,1,339,ratio34_6_14_1.png,,,,,,,,,,,,
,,,,,,,,,,,,More than half,Most,Many,Few,None,All,Half,Less than half,Some,0.00833336,0.332407402,1,0,0,QQQ4,,,,,,,,English,2020-07-02_10h59.26.244,Experiment_English,3.2.4,Win32,60,,,1,0,340,124,1,339,ratio15_1_6_16.png,,,,,,,,,,,,
,,,,,,,,,,,,Most,All,Some,Few,More than half,Many,Half,None,Less than half,-0.02129627,0.005555541,1,0,0,QQQ5,,,,,,,,English,2020-07-02_10h59.26.244,Experiment_English,3.2.4,Win32,60,,,1,0,340,220,1,339,ratio32_3_5_1.png,,,,,,,,,,,,
,,,,,,,,,,,,Half,Less than half,Some,Most,Many,All,Few,More than half,None,-0.493518478,0.282407401,1,0,0,QQQ7,,,,,,,,English,2020-07-02_10h59.26.244,Experiment_English,3.2.4,Win32,60,,,1,0,340,142,1,339,ratio19_1_10_6.png,,,,,,,,,,,,
,,,,,,,,,,,,All,None,Most,Half,Less than half,Few,More than half,Many,Some,-0.417592579,0.241666659,1,0,0,QQQ7,,,,,,,,English,2020-07-02_10h59.26.244,Experiment_English,3.2.4,Win32,60,,,1,0,340,170,1,339,ratio21_6_9_8.png,,,,,,,,,,,,
,,,,,,,,,,,,Many,Half,Some,Few,None,All,More than half,Less than half,Most,0.122222252,-0.351851934,1,0,0,QQQ6,,,,,,,,English,2020-07-02_10h59.26.244,Experiment_English,3.2.4,Win32,60,,,1,0,340,56,1,339,ratioX0_17_17_10.png,,,,,,,,,,,,
,,,,,,,,,,,,All,Most,Some,None,Less than half,Half,More than half,Few,Many,-0.512962924,0.061111098,1,0,0,QQQ8,,,,,,,,English,2020-07-02_10h59.26.244,Experiment_English,3.2.4,Win32,60,,,1,0,340,114,1,339,ratio14_3_15_10.png,,,,,,,,,,,,
,,,,,,,,,,,,All,Half,Some,Less than half,None,More than half,Most,Many,Few,-0.489814803,-0.328703728,1,0,0,QQQ9,,,,,,,,English,2020-07-02_10h59.26.244,Experiment_English,3.2.4,Win32,60,,,1,0,340,122,1,339,ratio15_1_6_7.png,,,,,,,,,,,,
,,,,,,,,,,,,Most,Many,Some,All,More than half,Less than half,None,Half,Few,-0.451851811,-0.30092595,1,0,0,QQQ9,,,,,,,,English,2020-07-02_10h59.26.244,Experiment_English,3.2.4,Win32,60,,,1,0,340,130,1,339,ratio15_2_12_12.png,,,,,,,,,,,,
,,,,,,,,,,,,Many,More than half,Less than half,Some,None,Most,Half,Few,All,0.559259415,-0.307407488,1,0,0,QQQ3,,,,,,,,English,2020-07-02_10h59.26.244,Experiment_English,3.2.4,Win32,60,,,1,0,340,17,1,339,ratio12_6_18_5.png,,,,,,,,,,,,
,,,,,,,,,,,,Some,More than half,Half,Less than half,Many,Most,None,Few,All,0.535185228,-0.267592615,1,0,0,QQQ3,,,,,,,,English,2020-07-02_10h59.26.244,Experiment_English,3.2.4,Win32,60,,,1,0,340,29,1,339,ratio11_6_12_1.png,,,,,,,,,,,,
,,,,,,,,,,,,None,Half,Most,More than half,Less than half,All,Few,Some,Many,-0.091666643,-0.290740821,1,0,0,QQQ6,,,,,,,,English,2020-07-02_10h59.26.244,Experiment_English,3.2.4,Win32,60,,,1,0,340,58,1,339,ratioX0_19_19_4.png,,,,,,,,,,,,
,,,,,,,,,,,,Most,Some,Less than half,None,Few,All,Half,More than half,Many,0.436111151,-0.239814837,1,0,0,QQQ3,,,,,,,,English,2020-07-02_10h59.26.244,Experiment_English,3.2.4,Win32,60,,,1,0,340,11,1,339,ratio12_4_12_7.png,,,,,,,,,,,,
,,,,,,,,,,,,All,Some,Many,Less than half,Half,More than half,None,Few,Most,0.028703731,0.316666661,1,0,0,QQQ4,,,,,,,,English,2020-07-02_10h59.26.244,Experiment_English,3.2.4,Win32,60,,,1,0,340,191,1,339,ratio23_6_15_7.png,,,,,,,,,,,,
,,,,,,,,,,,,None,Many,Some,Most,Half,All,Few,Less than half,More than half,-0.354629614,-0.235185264,1,0,0,QQQ9,,,,,,,,English,2020-07-02_10h59.26.244,Experiment_English,3.2.4,Win32,60,,,1,0,340,166,1,339,ratio21_6_9_1.png,,,,,,,,,,,,
,,,,,,,,,,,,Few,All,Half,Some,None,Many,Most,Less than half,More than half,0.587037194,-0.054629646,1,0,0,QQQ2,,,,,,,,English,2020-07-02_10h59.26.244,Experiment_English,3.2.4,Win32,60,,,1,0,340,320,1,339,ratio91_9_10_1.png,,,,,,,,,,,,
,,,,,,,,,,,,Half,Most,All,Less than half,Some,Many,None,More than half,Few,-0.427777764,-0.065740758,1,0,0,QQQ8,,,,,,,,English,2020-07-02_10h59.26.244,Experiment_English,3.2.4,Win32,60,,,1,0,340,229,1,339,ratio32_6_10_9.png,,,,,,,,,,,,
,,,,,,,,,,,,Many,Few,Some,Most,More than half,None,Less than half,All,Half,0.045370398,0.248148141,1,0,0,QQQ4,,,,,,,,English,2020-07-02_10h59.26.244,Experiment_English,3.2.4,Win32,60,,,1,0,340,270,1,339,ratio41_12_15_3.png,,,,,,,,,,,,
,,,,,,,,,,,,More than half,Many,None,Less than half,Some,All,Half,Few,Most,-0.140740718,0.331481476,1,0,0,QQQ4,,,,,,,,English,2020-07-02_10h59.26.244,Experiment_English,3.2.4,Win32,60,,,1,0,340,185,1,339,ratio23_4_10_1.png,,,,,,,,,,,,
,,,,,,,,,,,,Half,All,None,More than half,Less than half,Most,Few,Many,Some,-0.484259247,0.34444444,1,0,0,QQQ7,,,,,,,,English,2020-07-02_10h59.26.244,Experiment_English,3.2.4,Win32,60,,,1,0,340,125,1,339,ratio15_1_6_19.png,,,,,,,,,,,,
,,,,,,,,,,,,Most,All,Some,Less than half,More than half,None,Half,Many,Few,-0.50462959,-0.225925948,1,0,0,QQQ9,,,,,,,,English,2020-07-02_10h59.26.244,Experiment_English,3.2.4,Win32,60,,,1,0,340,148,1,339,ratio19_1_10_19.png,,,,,,,,,,,,
,,,,,,,,,,,,Few,None,Less than half,Most,Some,Half,All,Many,More than half,0.393518557,-0.360185267,1,0,0,QQQ3,,,,,,,,English,2020-07-02_10h59.26.244,Experiment_English,3.2.4,Win32,60,,,1,0,340,9,1,339,ratio12_3_9_5.png,,,,,,,,,,,,
,,,,,,,,,,,,None,Many,Half,More than half,All,Some,Few,Less than half,Most,-0.577777769,-0.045370387,1,0,0,QQQ8,,,,,,,,English,2020-07-02_10h59.26.244,Experiment_English,3.2.4,Win32,60,,,1,0,340,15,1,339,ratio12_5_15_5.png,,,,,,,,,,,,
,,,,,,,,,,,,Some,Most,Less than half,More than half,Half,All,None,Few,Many,0.475000041,0.05370369,1,0,0,QQQ2,,,,,,,,English,2020-07-02_10h59.26.244,Experiment_English,3.2.4,Win32,60,,,1,0,340,279,1,339,ratio41_16_20_10.png,,,,,,,,,,,,
,,,,,,,,,,,,Some,All,Half,None,Few,Most,Many,More than half,Less than half,0.092592622,-0.22314817,1,0,0,QQQ6,,,,,,,,English,2020-07-02_10h59.26.244,Experiment_English,3.2.4,Win32,60,,,1,0,340,175,1,339,ratio21_10_15_2.png,,,,,,,,,,,,
,,,,,,,,,,,,Some,Half,Few,None,All,Less than half,Most,Many,More than half,0.577777821,-0.289814838,1,0,0,QQQ3,,,,,,,,English,2020-07-02_10h59.26.244,Experiment_English,3.2.4,Win32,60,,,1,0,340,127,1,339,ratio15_2_12_2.png,,,,,,,,,,,,
,,,,,,,,,,,,Many,Few,More than half,Half,Most,None,Some,Less than half,All,0.511111153,-0.09259261,1,0,0,QQQ2,,,,,,,,English,2020-07-02_10h59.26.244,Experiment_English,3.2.4,Win32,60,,,1,0,340,91,1,339,ratio13_3_12_10.png,,,,,,,,,,,,
,,,,,,,,,,,,Half,Few,Many,More than half,None,Less than half,All,Some,Most,0.461111151,0.283333327,1,0,0,QQQ1,,,,,,,,English,2020-07-02_10h59.26.244,Experiment_English,3.2.4,Win32,60,,,1,0,340,224,1,339,ratio32_3_5_10.png,,,,,,,,,,,,
,,,,,,,,,,,,Few,All,Some,None,Less than half,Half,Many,Most,More than half,0.378703741,0.376851848,1,0,0,QQQ1,,,,,,,,English,2020-07-02_10h59.26.244,Experiment_English,3.2.4,Win32,60,,,1,0,340,111,1,339,ratio14_3_15_3.png,,,,,,,,,,,,
,,,,,,,,,,,,Less than half,More than half,None,Few,All,Some,Half,Many,Most,0.437037077,-0.235185264,1,0,0,QQQ3,,,,,,,,English,2020-07-02_10h59.26.244,Experiment_English,3.2.4,Win32,60,,,1,0,340,65,1,339,ratio0Y_0_8_4.png,,,,,,,,,,,,
,,,,,,,,,,,,None,Most,Less than half,More than half,All,Few,Half,Many,Some,0.02129638,0.222222214,1,0,0,QQQ4,,,,,,,,English,2020-07-02_10h59.26.244,Experiment_English,3.2.4,Win32,60,,,1,0,340,173,1,339,ratio21_8_12_9.png,,,,,,,,,,,,
