continue_mouse.x,continue_mouse.y,continue_mouse.leftButton,continue_mouse.midButton,continue_mouse.rightButton,continue_mouse.clicked_name,continue_mouse_2.x,continue_mouse_2.y,continue_mouse_2.leftButton,continue_mouse_2.midButton,continue_mouse_2.rightButton,continue_mouse_2.clicked_name,Q1,Q2,Q3,Q4,Q5,Q6,Q7,Q8,Q9,select_answer.x,select_answer.y,select_answer.leftButton,select_answer.midButton,select_answer.rightButton,select_answer.clicked_name,trial.thisRepN,trial.thisTrialN,trial.thisN,trial.thisIndex,trial.ran,trial.order,trials,Native tongue*,date,expName,psychopyVersion,OS,frameRate,key_resp.keys,key_resp.rt,Actual_Experiment.thisRepN,Actual_Experiment.thisTrialN,Actual_Experiment.thisN,Actual_Experiment.thisIndex,Actual_Experiment.ran,Actual_Experiment.order,Pic,mouse_pause.x,mouse_pause.y,mouse_pause.leftButton,mouse_pause.midButton,mouse_pause.rightButton,mouse_pause.clicked_name,pause.thisRepN,pause.thisTrialN,pause.thisN,pause.thisIndex,pause.ran,pause.order
0.324444444,-0.438888889,1,0,0,continue_button,0.324444444,-0.438888889,1,0,0,continue_button_2,More than half,None,Most,All,Less than half,Some,Few,Many,Half,-0.508888889,-0.286666667,1,0,0,QQQ9,1,0,16,2,1,15,ratio43_8_14_19.png,English ,2020-07-02_11h00.16.824,Experiment_English,3.2.4,MacIntel,60,,,,,,,,,,,,,,,,,,,,,
,,,,,,,,,,,,More than half,None,All,Few,Some,Less than half,Many,Most,Half,-0.476666667,-0.038888889,1,0,0,QQQ8,1,0,16,3,1,15,ratio41_8_10_8.png,English ,2020-07-02_11h00.16.824,Experiment_English,3.2.4,MacIntel,60,,,,,,,,,,,,,,,,,,,,,
,,,,,,,,,,,,All,Many,Less than half,None,Some,More than half,Few,Half,Most,-0.396666667,-0.28,1,0,0,QQQ9,1,0,16,12,1,15,ratio13_3_12_3.png,English ,2020-07-02_11h00.16.824,Experiment_English,3.2.4,MacIntel,60,,,,,,,,,,,,,,,,,,,,,
,,,,,,,,,,,,None,Some,Few,Many,Most,Less than half,Half,All,More than half,0.106666667,-0.323333333,1,0,0,QQQ6,1,0,16,7,1,15,ratio23_2_5_8.png,English ,2020-07-02_11h00.16.824,Experiment_English,3.2.4,MacIntel,60,,,,,,,,,,,,,,,,,,,,,
,,,,,,,,,,,,Few,More than half,Many,Half,Some,All,Less than half,None,Most,0.383333333,-0.022222222,1,0,0,QQQ2,1,0,16,0,1,15,ratio91_9_10_19.png,English ,2020-07-02_11h00.16.824,Experiment_English,3.2.4,MacIntel,60,,,,,,,,,,,,,,,,,,,,,
,,,,,,,,,,,,Most,Half,None,Many,Less than half,All,More than half,Few,Some,-0.548888889,0.028888889,1,0,0,QQQ8,,,,,,,,English ,2020-07-02_11h00.16.824,Experiment_English,3.2.4,MacIntel,60,b,26.37399983,1,0,340,188,1,339,ratio23_4_10_6.png,,,,,,,,,,,,
,,,,,,,,,,,,Some,More than half,Half,Most,Less than half,Few,All,None,Many,0.03,-0.276666667,1,0,0,QQQ6,,,,,,,,English ,2020-07-02_11h00.16.824,Experiment_English,3.2.4,MacIntel,60,,,1,0,340,131,1,339,ratio15_2_12_14.png,,,,,,,,,,,,
,,,,,,,,,,,,None,Few,More than half,Many,Less than half,Most,Half,All,Some,0.012222222,-0.04,1,0,0,QQQ5,,,,,,,,English ,2020-07-02_11h00.16.824,Experiment_English,3.2.4,MacIntel,60,,,1,0,340,156,1,339,ratio19_2_20_14.png,,,,,,,,,,,,
,,,,,,,,,,,,All,Many,None,Some,Less than half,More than half,Half,Few,Most,-0.45,0.352222222,1,0,0,QQQ7,,,,,,,,English ,2020-07-02_11h00.16.824,Experiment_English,3.2.4,MacIntel,60,,,1,0,340,257,1,339,ratio34_6_14_12.png,,,,,,,,,,,,
,,,,,,,,,,,,Many,Some,None,Few,Most,Less than half,Half,All,More than half,-0.062222222,0.233333333,1,0,0,QQQ4,,,,,,,,English ,2020-07-02_11h00.16.824,Experiment_English,3.2.4,MacIntel,60,,,1,0,340,125,1,339,ratio15_1_6_19.png,,,,,,,,,,,,
,,,,,,,,,,,,More than half,Some,Few,None,All,Less than half,Half,Most,Many,0.421111111,0.296666667,1,0,0,QQQ1,,,,,,,,English ,2020-07-02_11h00.16.824,Experiment_English,3.2.4,MacIntel,60,,,1,0,340,319,1,339,ratio51_15_18_20.png,,,,,,,,,,,,
,,,,,,,,,,,,Half,Few,More than half,Less than half,Most,None,All,Many,Some,0.104444444,-0.04,1,0,0,QQQ5,,,,,,,,English ,2020-07-02_11h00.16.824,Experiment_English,3.2.4,MacIntel,60,,,1,0,340,41,1,339,ratioX0_4_4_9.png,,,,,,,,,,,,
,,,,,,,,,,,,None,Half,All,Most,Less than half,Some,Many,More than half,Few,0.061111111,0.01,1,0,0,QQQ5,,,,,,,,English ,2020-07-02_11h00.16.824,Experiment_English,3.2.4,MacIntel,60,,,1,0,340,336,1,339,ratio91_18_20_12.png,,,,,,,,,,,,
,,,,,,,,,,,,Some,More than half,Few,All,Half,Many,Most,None,Less than half,0.404444444,-0.047777778,1,0,0,QQQ2,,,,,,,,English ,2020-07-02_11h00.16.824,Experiment_English,3.2.4,MacIntel,60,,,1,0,340,270,1,339,ratio41_12_15_3.png,,,,,,,,,,,,
,,,,,,,,,,,,Few,Most,Some,All,Half,Many,More than half,Less than half,None,-0.443333333,-0.276666667,1,0,0,QQQ9,,,,,,,,English ,2020-07-02_11h00.16.824,Experiment_English,3.2.4,MacIntel,60,,,1,0,340,66,1,339,ratio0Y_0_9_8.png,,,,,,,,,,,,
,,,,,,,,,,,,Less than half,Half,Some,Few,Many,Most,None,All,More than half,0.104444444,-0.364444444,1,0,0,QQQ6,,,,,,,,English ,2020-07-02_11h00.16.824,Experiment_English,3.2.4,MacIntel,60,,,1,0,340,338,1,339,ratio91_18_20_18.png,,,,,,,,,,,,
,,,,,,,,,,,,None,Most,More than half,Half,All,Less than half,Some,Many,Few,-0.076666667,0.261111111,1,0,0,QQQ4,,,,,,,,English ,2020-07-02_11h00.16.824,Experiment_English,3.2.4,MacIntel,60,,,1,0,340,284,1,339,ratio43_4_7_11.png,,,,,,,,,,,,
,,,,,,,,,,,,None,Some,Half,Few,Less than half,More than half,All,Many,Most,0.111111111,-0.065555556,1,0,0,QQQ5,,,,,,,,English ,2020-07-02_11h00.16.824,Experiment_English,3.2.4,MacIntel,60,,,1,0,340,195,1,339,ratio23_8_20_1.png,,,,,,,,,,,,
,,,,,,,,,,,,Many,More than half,None,Most,Half,Few,Less than half,All,Some,0.46,-0.263333333,1,0,0,QQQ3,,,,,,,,English ,2020-07-02_11h00.16.824,Experiment_English,3.2.4,MacIntel,60,,,1,0,340,77,1,339,ratio0Y_0_18_3.png,,,,,,,,,,,,
,,,,,,,,,,,,Half,Few,Most,All,More than half,Less than half,None,Some,Many,-0.394444444,0.217777778,1,0,0,QQQ7,,,,,,,,English ,2020-07-02_11h00.16.824,Experiment_English,3.2.4,MacIntel,60,,,1,0,340,323,1,339,ratio91_9_10_5.png,,,,,,,,,,,,
,,,,,,,,,,,,None,More than half,Less than half,Half,Most,Many,All,Few,Some,0.108888889,-0.014444444,1,0,0,QQQ5,,,,,,,,English ,2020-07-02_11h00.16.824,Experiment_English,3.2.4,MacIntel,60,,,1,0,340,51,1,339,ratioX0_12_12_9.png,,,,,,,,,,,,
,,,,,,,,,,,,More than half,Most,Few,Half,Less than half,None,Many,All,Some,0.002222222,-0.058888889,1,0,0,QQQ5,,,,,,,,English ,2020-07-02_11h00.16.824,Experiment_English,3.2.4,MacIntel,60,,,1,0,340,128,1,339,ratio15_2_12_8.png,,,,,,,,,,,,
,,,,,,,,,,,,Most,None,Many,More than half,Less than half,Half,Some,All,Few,-0.42,-0.273333333,1,0,0,QQQ9,,,,,,,,English ,2020-07-02_11h00.16.824,Experiment_English,3.2.4,MacIntel,60,,,1,0,340,102,1,339,ratio14_1_5_8.png,,,,,,,,,,,,
,,,,,,,,,,,,More than half,Some,Less than half,None,All,Half,Many,Most,Few,-0.42,-0.273333333,1,0,0,QQQ9,,,,,,,,English ,2020-07-02_11h00.16.824,Experiment_English,3.2.4,MacIntel,60,,,1,0,340,147,1,339,ratio19_1_10_18.png,,,,,,,,,,,,
,,,,,,,,,,,,Less than half,Many,None,Half,More than half,Few,Most,All,Some,-0.42,-0.273333333,1,0,0,QQQ9,,,,,,,,English ,2020-07-02_11h00.16.824,Experiment_English,3.2.4,MacIntel,60,,,1,0,340,91,1,339,ratio13_3_12_10.png,,,,,,,,,,,,
,,,,,,,,,,,,Half,Few,Most,Less than half,Some,All,More than half,Many,None,-0.367777778,0.214444444,1,0,0,QQQ7,,,,,,,,English ,2020-07-02_11h00.16.824,Experiment_English,3.2.4,MacIntel,60,,,1,0,340,331,1,339,ratio91_18_20_3.png,,,,,,,,,,,,
,,,,,,,,,,,,More than half,Most,Many,All,Some,Few,Less than half,Half,None,-0.488888889,-0.247777778,1,0,0,QQQ9,,,,,,,,English ,2020-07-02_11h00.16.824,Experiment_English,3.2.4,MacIntel,60,,,1,0,340,75,1,339,ratio0Y_0_16_10.png,,,,,,,,,,,,
,,,,,,,,,,,,Most,All,Few,Less than half,None,Half,Many,Some,More than half,0.393333333,-0.256666667,1,0,0,QQQ3,,,,,,,,English ,2020-07-02_11h00.16.824,Experiment_English,3.2.4,MacIntel,60,,,1,0,340,87,1,339,ratio13_2_8_8.png,,,,,,,,,,,,
,,,,,,,,,,,,Half,None,Less than half,Most,Few,All,More than half,Many,Some,0.356666667,0.083333333,1,0,0,QQQ2,,,,,,,,English ,2020-07-02_11h00.16.824,Experiment_English,3.2.4,MacIntel,60,,,1,0,340,103,1,339,ratio14_1_5_9.png,,,,,,,,,,,,
,,,,,,,,,,,,All,Few,Half,Most,Many,Less than half,More than half,None,Some,-0.544444444,-0.373333333,1,0,0,QQQ9,,,,,,,,English ,2020-07-02_11h00.16.824,Experiment_English,3.2.4,MacIntel,60,,,1,0,340,96,1,339,ratio13_5_20_1.png,,,,,,,,,,,,
,,,,,,,,,,,,More than half,Few,Half,None,Less than half,Some,Many,Most,All,-0.488888889,0.014444444,1,0,0,QQQ8,,,,,,,,English ,2020-07-02_11h00.16.824,Experiment_English,3.2.4,MacIntel,60,,,1,0,340,329,1,339,ratio91_9_10_20.png,,,,,,,,,,,,
,,,,,,,,,,,,All,Few,None,Half,Many,Less than half,Most,Some,More than half,-0.402222222,-0.006666667,1,0,0,QQQ8,,,,,,,,English ,2020-07-02_11h00.16.824,Experiment_English,3.2.4,MacIntel,60,,,1,0,340,86,1,339,ratio13_2_8_6.png,,,,,,,,,,,,
,,,,,,,,,,,,Some,Half,Less than half,More than half,Most,None,All,Many,Few,-0.438888889,0.244444444,1,0,0,QQQ7,,,,,,,,English ,2020-07-02_11h00.16.824,Experiment_English,3.2.4,MacIntel,60,,,1,0,340,160,1,339,ratio21_2_3_2.png,,,,,,,,,,,,
,,,,,,,,,,,,Many,Some,Half,More than half,All,Most,Few,None,Less than half,0.026666667,0.238888889,1,0,0,QQQ4,,,,,,,,English ,2020-07-02_11h00.16.824,Experiment_English,3.2.4,MacIntel,60,,,1,0,340,38,1,339,ratio11_10_20_5.png,,,,,,,,,,,,
,,,,,,,,,,,,Less than half,All,Many,None,Few,More than half,Half,Some,Most,-0.473333333,0.281111111,1,0,0,QQQ7,,,,,,,,English ,2020-07-02_11h00.16.824,Experiment_English,3.2.4,MacIntel,60,,,1,0,340,32,1,339,ratio11_7_14_5.png,,,,,,,,,,,,
,,,,,,,,,,,,None,Half,Most,All,More than half,Less than half,Few,Many,Some,-0.048888889,0.241111111,1,0,0,QQQ4,,,,,,,,English ,2020-07-02_11h00.16.824,Experiment_English,3.2.4,MacIntel,60,,,1,0,340,55,1,339,ratioX0_16_16_3.png,,,,,,,,,,,,
,,,,,,,,,,,,Most,More than half,Some,Half,All,Many,Few,None,Less than half,-0.412222222,0.253333333,1,0,0,QQQ7,,,,,,,,English ,2020-07-02_11h00.16.824,Experiment_English,3.2.4,MacIntel,60,,,1,0,340,246,1,339,ratio34_3_7_11.png,,,,,,,,,,,,
,,,,,,,,,,,,More than half,Few,Some,Most,Many,Less than half,Half,None,All,0.346666667,-0.068888889,1,0,0,QQQ2,,,,,,,,English ,2020-07-02_11h00.16.824,Experiment_English,3.2.4,MacIntel,60,,,1,0,340,189,1,339,ratio23_4_10_8.png,,,,,,,,,,,,
,,,,,,,,,,,,Half,Few,All,Most,Some,More than half,Less than half,Many,None,0.046666667,-0.285555556,1,0,0,QQQ6,,,,,,,,English ,2020-07-02_11h00.16.824,Experiment_English,3.2.4,MacIntel,60,,,1,0,340,335,1,339,ratio91_18_20_11.png,0.215555556,-0.381111111,1,0,0,continue_button_pause,1,0,1,0,1,0
,,,,,,,,,,,,,,,,,,,,,,,,,,,,,,,,,,English ,2020-07-02_11h00.16.824,Experiment_English,3.2.4,MacIntel,60,,,1,0,340,335,1,339,ratio91_18_20_11.png,,,,,,,,,,,,
,,,,,,,,,,,,Few,Some,Less than half,Half,All,None,Many,Most,More than half,0.63,0.295555556,1,0,0,QQQ1,,,,,,,,English ,2020-07-02_11h00.16.824,Experiment_English,3.2.4,MacIntel,60,,,1,0,340,115,1,339,ratio14_4_20_1.png,,,,,,,,,,,,
,,,,,,,,,,,,All,Less than half,Half,More than half,Most,Many,Some,Few,None,-0.578888889,-0.278888889,1,0,0,QQQ9,,,,,,,,English ,2020-07-02_11h00.16.824,Experiment_English,3.2.4,MacIntel,60,,,1,0,340,142,1,339,ratio19_1_10_6.png,,,,,,,,,,,,
,,,,,,,,,,,,Many,Most,Few,Less than half,Half,Some,None,All,More than half,0.573333333,-0.278888889,1,0,0,QQQ3,,,,,,,,English ,2020-07-02_11h00.16.824,Experiment_English,3.2.4,MacIntel,60,,,1,0,340,10,1,339,ratio12_4_12_4.png,,,,,,,,,,,,
,,,,,,,,,,,,Less than half,Many,Half,None,All,Some,More than half,Most,Few,-0.452222222,-0.3,1,0,0,QQQ9,,,,,,,,English ,2020-07-02_11h00.16.824,Experiment_English,3.2.4,MacIntel,60,,,1,0,340,146,1,339,ratio19_1_10_17.png,,,,,,,,,,,,
,,,,,,,,,,,,Many,More than half,Few,All,Less than half,Some,Half,Most,None,-0.448888889,0.252222222,1,0,0,QQQ7,,,,,,,,English ,2020-07-02_11h00.16.824,Experiment_English,3.2.4,MacIntel,60,,,1,0,340,16,1,339,ratio12_5_15_6.png,,,,,,,,,,,,
,,,,,,,,,,,,None,More than half,Many,Less than half,Few,Half,Some,Most,All,0.052222222,-0.007777778,1,0,0,QQQ5,,,,,,,,English ,2020-07-02_11h00.16.824,Experiment_English,3.2.4,MacIntel,60,,,1,0,340,145,1,339,ratio19_1_10_15.png,,,,,,,,,,,,
,,,,,,,,,,,,Some,Less than half,Few,All,Most,More than half,Half,Many,None,-0.513333333,-0.337777778,1,0,0,QQQ9,,,,,,,,English ,2020-07-02_11h00.16.824,Experiment_English,3.2.4,MacIntel,60,,,1,0,340,144,1,339,ratio19_1_10_11.png,,,,,,,,,,,,
,,,,,,,,,,,,Some,Many,None,Half,Few,More than half,Most,All,Less than half,0.052222222,-0.038888889,1,0,0,QQQ5,,,,,,,,English ,2020-07-02_11h00.16.824,Experiment_English,3.2.4,MacIntel,60,,,1,0,340,48,1,339,ratioX0_10_10_1.png,,,,,,,,,,,,
,,,,,,,,,,,,None,All,Few,Less than half,Some,Most,Many,Half,More than half,0.42,0.267777778,1,0,0,QQQ1,,,,,,,,English ,2020-07-02_11h00.16.824,Experiment_English,3.2.4,MacIntel,60,,,1,0,340,192,1,339,ratio23_6_15_8.png,,,,,,,,,,,,
,,,,,,,,,,,,None,All,Few,More than half,Half,Less than half,Some,Many,Most,0.386666667,-0.268888889,1,0,0,QQQ3,,,,,,,,English ,2020-07-02_11h00.16.824,Experiment_English,3.2.4,MacIntel,60,,,1,0,340,134,1,339,ratio15_3_18_5.png,,,,,,,,,,,,
,,,,,,,,,,,,Few,Most,Many,Half,Less than half,None,Some,All,More than half,0.006666667,-0.336666667,1,0,0,QQQ6,,,,,,,,English ,2020-07-02_11h00.16.824,Experiment_English,3.2.4,MacIntel,60,,,1,0,340,302,1,339,ratio51_5_6_5.png,,,,,,,,,,,,
,,,,,,,,,,,,More than half,None,All,Most,Some,Many,Less than half,Few,Half,0.415555556,-0.022222222,1,0,0,QQQ2,,,,,,,,English ,2020-07-02_11h00.16.824,Experiment_English,3.2.4,MacIntel,60,,,1,0,340,208,1,339,ratio31_9_12_3.png,,,,,,,,,,,,
,,,,,,,,,,,,Half,Most,Less than half,None,Some,Few,All,Many,More than half,-0.595555556,-0.321111111,1,0,0,QQQ9,,,,,,,,English ,2020-07-02_11h00.16.824,Experiment_English,3.2.4,MacIntel,60,,,1,0,340,312,1,339,ratio51_10_12_16.png,,,,,,,,,,,,
,,,,,,,,,,,,Few,Some,Many,Half,Most,None,Less than half,All,More than half,-0.004444444,0.288888889,1,0,0,QQQ4,,,,,,,,English ,2020-07-02_11h00.16.824,Experiment_English,3.2.4,MacIntel,60,,,1,0,340,30,1,339,ratio11_6_12_6.png,,,,,,,,,,,,
,,,,,,,,,,,,Most,More than half,Less than half,Few,Many,Some,None,All,Half,0.462222222,0.314444444,1,0,0,QQQ1,,,,,,,,English ,2020-07-02_11h00.16.824,Experiment_English,3.2.4,MacIntel,60,,,1,0,340,201,1,339,ratio31_3_4_7.png,,,,,,,,,,,,
,,,,,,,,,,,,More than half,Most,Less than half,Some,Few,All,Many,None,Half,-0.361111111,-0.284444444,1,0,0,QQQ9,,,,,,,,English ,2020-07-02_11h00.16.824,Experiment_English,3.2.4,MacIntel,60,,,1,0,340,31,1,339,ratio11_6_12_9.png,,,,,,,,,,,,
,,,,,,,,,,,,Few,Some,More than half,None,Half,Most,All,Many,Less than half,0.098888889,-0.326666667,1,0,0,QQQ6,,,,,,,,English ,2020-07-02_11h00.16.824,Experiment_English,3.2.4,MacIntel,60,,,1,0,340,313,1,339,ratio51_15_18_2.png,,,,,,,,,,,,
,,,,,,,,,,,,Many,More than half,Less than half,Few,Most,None,Some,Half,All,0.002222222,-0.061111111,1,0,0,QQQ5,,,,,,,,English ,2020-07-02_11h00.16.824,Experiment_English,3.2.4,MacIntel,60,,,1,0,340,300,1,339,ratio51_5_6_1.png,,,,,,,,,,,,
,,,,,,,,,,,,Few,Half,Many,None,More than half,All,Some,Most,Less than half,0.435555556,0.323333333,1,0,0,QQQ1,,,,,,,,English ,2020-07-02_11h00.16.824,Experiment_English,3.2.4,MacIntel,60,,,1,0,340,8,1,339,ratio12_3_9_4.png,,,,,,,,,,,,
,,,,,,,,,,,,Less than half,Some,Most,Few,All,Half,None,Many,More than half,-0.023333333,0.253333333,1,0,0,QQQ4,,,,,,,,English ,2020-07-02_11h00.16.824,Experiment_English,3.2.4,MacIntel,60,,,1,0,340,159,1,339,ratio19_2_20_20.png,,,,,,,,,,,,
,,,,,,,,,,,,More than half,All,None,Some,Most,Less than half,Few,Many,Half,-0.453333333,0.246666667,1,0,0,QQQ7,,,,,,,,English ,2020-07-02_11h00.16.824,Experiment_English,3.2.4,MacIntel,60,,,1,0,340,294,1,339,ratio43_8_14_9.png,,,,,,,,,,,,
,,,,,,,,,,,,Most,Some,Many,Less than half,More than half,None,Few,All,Half,-0.354444444,-0.307777778,1,0,0,QQQ9,,,,,,,,English ,2020-07-02_11h00.16.824,Experiment_English,3.2.4,MacIntel,60,,,1,0,340,185,1,339,ratio23_4_10_1.png,,,,,,,,,,,,
,,,,,,,,,,,,Many,All,Some,Half,More than half,Few,Most,None,Less than half,-0.101111111,-0.371111111,1,0,0,QQQ6,,,,,,,,English ,2020-07-02_11h00.16.824,Experiment_English,3.2.4,MacIntel,60,,,1,0,340,155,1,339,ratio19_2_20_13.png,,,,,,,,,,,,
,,,,,,,,,,,,Some,Most,More than half,Half,All,None,Less than half,Many,Few,-0.44,-0.276666667,1,0,0,QQQ9,,,,,,,,English ,2020-07-02_11h00.16.824,Experiment_English,3.2.4,MacIntel,60,,,1,0,340,214,1,339,ratio31_12_16_5.png,,,,,,,,,,,,
,,,,,,,,,,,,Half,More than half,Less than half,Some,All,None,Most,Many,Few,-0.382222222,-0.24,1,0,0,QQQ9,,,,,,,,English ,2020-07-02_11h00.16.824,Experiment_English,3.2.4,MacIntel,60,,,1,0,340,205,1,339,ratio31_6_8_2.png,,,,,,,,,,,,
,,,,,,,,,,,,Many,More than half,Few,Most,Less than half,None,Half,All,Some,0.451111111,-0.242222222,1,0,0,QQQ3,,,,,,,,English ,2020-07-02_11h00.16.824,Experiment_English,3.2.4,MacIntel,60,,,1,0,340,168,1,339,ratio21_6_9_3.png,,,,,,,,,,,,
,,,,,,,,,,,,More than half,Most,Many,Few,Less than half,None,All,Half,Some,-0.025555556,0.288888889,1,0,0,QQQ4,,,,,,,,English ,2020-07-02_11h00.16.824,Experiment_English,3.2.4,MacIntel,60,,,1,0,340,245,1,339,ratio34_3_7_10.png,,,,,,,,,,,,
,,,,,,,,,,,,Most,None,Few,Some,Many,Less than half,Half,All,More than half,0.471111111,-0.213333333,1,0,0,QQQ3,,,,,,,,English ,2020-07-02_11h00.16.824,Experiment_English,3.2.4,MacIntel,60,,,1,0,340,254,1,339,ratio34_6_14_9.png,,,,,,,,,,,,
,,,,,,,,,,,,None,Less than half,Many,More than half,Some,All,Few,Most,Half,0.018888889,0.274444444,1,0,0,QQQ4,,,,,,,,English ,2020-07-02_11h00.16.824,Experiment_English,3.2.4,MacIntel,60,,,1,0,340,291,1,339,ratio43_8_14_5.png,,,,,,,,,,,,
,,,,,,,,,,,,All,Less than half,Few,Most,Half,None,Many,Some,More than half,0.018888889,0.274444444,1,0,0,QQQ4,,,,,,,,English ,2020-07-02_11h00.16.824,Experiment_English,3.2.4,MacIntel,60,,,1,0,340,207,1,339,ratio31_6_8_9.png,,,,,,,,,,,,
,,,,,,,,,,,,Some,Less than half,More than half,Half,Many,Few,All,Most,None,-0.04,-0.23,1,0,0,QQQ6,,,,,,,,English ,2020-07-02_11h00.16.824,Experiment_English,3.2.4,MacIntel,60,,,1,0,340,162,1,339,ratio21_2_3_9.png,,,,,,,,,,,,
,,,,,,,,,,,,All,More than half,Many,Half,Few,Most,Some,Less than half,None,0.457777778,-0.024444444,1,0,0,QQQ2,,,,,,,,English ,2020-07-02_11h00.16.824,Experiment_English,3.2.4,MacIntel,60,,,1,0,340,197,1,339,ratio23_8_20_6.png,,,,,,,,,,,,
,,,,,,,,,,,,None,All,More than half,Half,Less than half,Some,Few,Many,Most,-0.463333333,0.237777778,1,0,0,QQQ7,,,,,,,,English ,2020-07-02_11h00.16.824,Experiment_English,3.2.4,MacIntel,60,,,1,0,340,7,1,339,ratio12_3_9_2.png,,,,,,,,,,,,
,,,,,,,,,,,,Many,More than half,Half,Few,None,Less than half,Most,Some,All,0.461111111,0.024444444,1,0,0,QQQ2,,,,,,,,English ,2020-07-02_11h00.16.824,Experiment_English,3.2.4,MacIntel,60,,,1,0,340,218,1,339,ratio31_15_20_7.png,0.4,-0.437777778,1,0,0,continue_button_pause,1,0,1,0,1,0
,,,,,,,,,,,,,,,,,,,,,,,,,,,,,,,,,,English ,2020-07-02_11h00.16.824,Experiment_English,3.2.4,MacIntel,60,,,1,0,340,218,1,339,ratio31_15_20_7.png,,,,,,,,,,,,
,,,,,,,,,,,,All,Half,None,Some,Most,More than half,Many,Few,Less than half,0.475555556,-0.282222222,1,0,0,QQQ3,,,,,,,,English ,2020-07-02_11h00.16.824,Experiment_English,3.2.4,MacIntel,60,,,1,0,340,172,1,339,ratio21_8_12_6.png,,,,,,,,,,,,
,,,,,,,,,,,,Most,Half,More than half,All,Less than half,Many,Some,None,Few,-0.396666667,-0.266666667,1,0,0,QQQ9,,,,,,,,English ,2020-07-02_11h00.16.824,Experiment_English,3.2.4,MacIntel,60,,,1,0,340,21,1,339,ratio11_2_4_10.png,,,,,,,,,,,,
,,,,,,,,,,,,More than half,Less than half,Some,Many,Few,None,Half,All,Most,-0.42,0.356666667,1,0,0,QQQ7,,,,,,,,English ,2020-07-02_11h00.16.824,Experiment_English,3.2.4,MacIntel,60,,,1,0,340,36,1,339,ratio11_9_18_1.png,,,,,,,,,,,,
,,,,,,,,,,,,Few,Most,All,None,More than half,Many,Less than half,Some,Half,-0.402222222,-0.055555556,1,0,0,QQQ8,,,,,,,,English ,2020-07-02_11h00.16.824,Experiment_English,3.2.4,MacIntel,60,,,1,0,340,193,1,339,ratio23_6_15_9.png,,,,,,,,,,,,
,,,,,,,,,,,,Half,More than half,All,Few,Most,None,Some,Less than half,Many,0.107777778,-0.002222222,1,0,0,QQQ5,,,,,,,,English ,2020-07-02_11h00.16.824,Experiment_English,3.2.4,MacIntel,60,,,1,0,340,273,1,339,ratio41_12_15_8.png,,,,,,,,,,,,
,,,,,,,,,,,,Many,Half,Less than half,None,Most,Some,Few,More than half,All,0.107777778,-0.002222222,1,0,0,QQQ5,,,,,,,,English ,2020-07-02_11h00.16.824,Experiment_English,3.2.4,MacIntel,60,,,1,0,340,169,1,339,ratio21_6_9_7.png,,,,,,,,,,,,
,,,,,,,,,,,,All,Few,Some,None,Half,Most,Many,More than half,Less than half,0.064444444,-0.333333333,1,0,0,QQQ6,,,,,,,,English ,2020-07-02_11h00.16.824,Experiment_English,3.2.4,MacIntel,60,,,1,0,340,316,1,339,ratio51_15_18_11.png,,,,,,,,,,,,
,,,,,,,,,,,,Less than half,Many,Some,Few,Most,More than half,Half,None,All,-0.521111111,0.021111111,1,0,0,QQQ8,,,,,,,,English ,2020-07-02_11h00.16.824,Experiment_English,3.2.4,MacIntel,60,,,1,0,340,240,1,339,ratio34_3_7_4.png,,,,,,,,,,,,
,,,,,,,,,,,,Many,Most,Half,All,None,Less than half,Some,Few,More than half,0.403333333,0.313333333,1,0,0,QQQ1,,,,,,,,English ,2020-07-02_11h00.16.824,Experiment_English,3.2.4,MacIntel,60,,,1,0,340,305,1,339,ratio51_5_6_14.png,,,,,,,,,,,,
,,,,,,,,,,,,None,All,Most,Some,Many,More than half,Half,Few,Less than half,0.495555556,0.344444444,1,0,0,QQQ1,,,,,,,,English ,2020-07-02_11h00.16.824,Experiment_English,3.2.4,MacIntel,60,,,1,0,340,265,1,339,ratio41_8_10_1.png,,,,,,,,,,,,
,,,,,,,,,,,,Many,Some,Most,Half,All,Less than half,Few,None,More than half,-0.561111111,-0.031111111,1,0,0,QQQ8,,,,,,,,English ,2020-07-02_11h00.16.824,Experiment_English,3.2.4,MacIntel,60,,,1,0,340,118,1,339,ratio14_4_20_8.png,,,,,,,,,,,,
,,,,,,,,,,,,Many,Few,Some,More than half,Half,All,Most,Less than half,None,-0.432222222,0.218888889,1,0,0,QQQ7,,,,,,,,English ,2020-07-02_11h00.16.824,Experiment_English,3.2.4,MacIntel,60,,,1,0,340,178,1,339,ratio21_12_18_2.png,,,,,,,,,,,,
,,,,,,,,,,,,Most,Some,Few,All,Half,More than half,Many,Less than half,None,0.098888889,-0.001111111,1,0,0,QQQ5,,,,,,,,English ,2020-07-02_11h00.16.824,Experiment_English,3.2.4,MacIntel,60,,,1,0,340,231,1,339,ratio32_9_15_2.png,,,,,,,,,,,,
,,,,,,,,,,,,All,More than half,Half,Less than half,None,Few,Some,Most,Many,0.414444444,0.035555556,1,0,0,QQQ2,,,,,,,,English ,2020-07-02_11h00.16.824,Experiment_English,3.2.4,MacIntel,60,,,1,0,340,204,1,339,ratio31_6_8_1.png,,,,,,,,,,,,
,,,,,,,,,,,,More than half,Most,All,Less than half,Many,None,Some,Few,Half,0.05,0.267777778,1,0,0,QQQ4,,,,,,,,English ,2020-07-02_11h00.16.824,Experiment_English,3.2.4,MacIntel,60,,,1,0,340,35,1,339,ratio11_8_16_10.png,,,,,,,,,,,,
,,,,,,,,,,,,Half,More than half,Few,None,Less than half,All,Some,Many,Most,-0.402222222,-0.34,1,0,0,QQQ9,,,,,,,,English ,2020-07-02_11h00.16.824,Experiment_English,3.2.4,MacIntel,60,,,1,0,340,332,1,339,ratio91_18_20_4.png,,,,,,,,,,,,
,,,,,,,,,,,,Most,All,None,Half,Few,Less than half,Many,Some,More than half,0.432222222,0.295555556,1,0,0,QQQ1,,,,,,,,English ,2020-07-02_11h00.16.824,Experiment_English,3.2.4,MacIntel,60,,,1,0,340,337,1,339,ratio91_18_20_16.png,,,,,,,,,,,,
,,,,,,,,,,,,All,Few,More than half,Some,Half,Less than half,Most,Many,None,-0.464444444,-0.24,1,0,0,QQQ9,,,,,,,,English ,2020-07-02_11h00.16.824,Experiment_English,3.2.4,MacIntel,60,,,1,0,340,95,1,339,ratio13_4_16_10.png,,,,,,,,,,,,
,,,,,,,,,,,,Some,All,Less than half,Few,Many,More than half,Half,Most,None,-0.561111111,-0.074444444,1,0,0,QQQ8,,,,,,,,English ,2020-07-02_11h00.16.824,Experiment_English,3.2.4,MacIntel,60,,,1,0,340,266,1,339,ratio41_8_10_2.png,,,,,,,,,,,,
,,,,,,,,,,,,Half,Most,None,All,More than half,Many,Few,Some,Less than half,0.442222222,-0.322222222,1,0,0,QQQ3,,,,,,,,English ,2020-07-02_11h00.16.824,Experiment_English,3.2.4,MacIntel,60,,,1,0,340,76,1,339,ratio0Y_0_17_10.png,,,,,,,,,,,,
,,,,,,,,,,,,More than half,Less than half,Half,All,None,Some,Few,Many,Most,-0.002222222,-0.062222222,1,0,0,QQQ5,,,,,,,,English ,2020-07-02_11h00.16.824,Experiment_English,3.2.4,MacIntel,60,,,1,0,340,171,1,339,ratio21_8_12_4.png,,,,,,,,,,,,
,,,,,,,,,,,,More than half,Less than half,None,Few,Many,All,Most,Some,Half,-0.008888889,0.256666667,1,0,0,QQQ4,,,,,,,,English ,2020-07-02_11h00.16.824,Experiment_English,3.2.4,MacIntel,60,,,1,0,340,182,1,339,ratio23_2_5_7.png,,,,,,,,,,,,
,,,,,,,,,,,,Most,None,Few,Less than half,Half,All,Many,Some,More than half,0.367777778,-0.233333333,1,0,0,QQQ3,,,,,,,,English ,2020-07-02_11h00.16.824,Experiment_English,3.2.4,MacIntel,60,,,1,0,340,9,1,339,ratio12_3_9_5.png,,,,,,,,,,,,
,,,,,,,,,,,,Most,More than half,Many,All,Few,Less than half,Some,Half,None,0.033333333,-0.075555556,1,0,0,QQQ5,,,,,,,,English ,2020-07-02_11h00.16.824,Experiment_English,3.2.4,MacIntel,60,,,1,0,340,27,1,339,ratio11_5_10_7.png,,,,,,,,,,,,
,,,,,,,,,,,,Many,Some,Few,Less than half,None,Most,More than half,Half,All,0.043333333,-0.286666667,1,0,0,QQQ6,,,,,,,,English ,2020-07-02_11h00.16.824,Experiment_English,3.2.4,MacIntel,60,,,1,0,340,304,1,339,ratio51_5_6_13.png,,,,,,,,,,,,
,,,,,,,,,,,,Less than half,Many,Most,Few,More than half,None,All,Half,Some,0.407777778,-0.312222222,1,0,0,QQQ3,,,,,,,,English ,2020-07-02_11h00.16.824,Experiment_English,3.2.4,MacIntel,60,,,1,0,340,272,1,339,ratio41_12_15_7.png,,,,,,,,,,,,
,,,,,,,,,,,,Most,None,More than half,Few,Half,Some,Less than half,Many,All,0.416666667,-0.09,1,0,0,QQQ2,,,,,,,,English ,2020-07-02_11h00.16.824,Experiment_English,3.2.4,MacIntel,60,,,1,0,340,39,1,339,ratio11_10_20_6.png,,,,,,,,,,,,
,,,,,,,,,,,,Few,More than half,Many,Most,Some,All,None,Less than half,Half,-0.527777778,0.228888889,1,0,0,QQQ7,,,,,,,,English ,2020-07-02_11h00.16.824,Experiment_English,3.2.4,MacIntel,60,,,1,0,340,282,1,339,ratio43_4_7_7.png,,,,,,,,,,,,
,,,,,,,,,,,,All,Some,Many,More than half,Most,Half,None,Few,Less than half,-0.127777778,-0.005555556,1,0,0,QQQ5,,,,,,,,English ,2020-07-02_11h00.16.824,Experiment_English,3.2.4,MacIntel,60,,,1,0,340,327,1,339,ratio91_9_10_11.png,,,,,,,,,,,,
,,,,,,,,,,,,All,Few,Half,None,Most,Some,Many,More than half,Less than half,0.35,0.048888889,1,0,0,QQQ2,,,,,,,,English ,2020-07-02_11h00.16.824,Experiment_English,3.2.4,MacIntel,60,,,1,0,340,127,1,339,ratio15_2_12_2.png,,,,,,,,,,,,
,,,,,,,,,,,,None,Some,Few,More than half,All,Most,Many,Less than half,Half,-0.062222222,-0.328888889,1,0,0,QQQ6,,,,,,,,English ,2020-07-02_11h00.16.824,Experiment_English,3.2.4,MacIntel,60,,,1,0,340,228,1,339,ratio32_6_10_7.png,,,,,,,,,,,,
,,,,,,,,,,,,None,Most,Some,Many,More than half,Less than half,All,Half,Few,0.555555556,0.266666667,1,0,0,QQQ1,,,,,,,,English ,2020-07-02_11h00.16.824,Experiment_English,3.2.4,MacIntel,60,,,1,0,340,153,1,339,ratio19_2_20_8.png,,,,,,,,,,,,
,,,,,,,,,,,,All,Half,More than half,None,Few,Some,Less than half,Most,Many,0.12,-0.043333333,1,0,0,QQQ5,,,,,,,,English ,2020-07-02_11h00.16.824,Experiment_English,3.2.4,MacIntel,60,,,1,0,340,116,1,339,ratio14_4_20_3.png,,,,,,,,,,,,
,,,,,,,,,,,,None,Some,Few,Less than half,Half,Most,More than half,All,Many,0.525555556,-0.298888889,1,0,0,QQQ3,,,,,,,,English ,2020-07-02_11h00.16.824,Experiment_English,3.2.4,MacIntel,60,,,1,0,340,4,1,339,ratio12_2_6_5.png,0.413333333,-0.416666667,1,0,0,continue_button_pause,1,0,1,0,1,0
,,,,,,,,,,,,,,,,,,,,,,,,,,,,,,,,,,English ,2020-07-02_11h00.16.824,Experiment_English,3.2.4,MacIntel,60,,,1,0,340,4,1,339,ratio12_2_6_5.png,,,,,,,,,,,,
,,,,,,,,,,,,Some,More than half,Half,Most,Few,Many,All,None,Less than half,0.488888889,-0.272222222,1,0,0,QQQ3,,,,,,,,English ,2020-07-02_11h00.16.824,Experiment_English,3.2.4,MacIntel,60,,,1,0,340,290,1,339,ratio43_8_14_3.png,,,,,,,,,,,,
,,,,,,,,,,,,Many,All,Few,Half,More than half,None,Some,Most,Less than half,0.075555556,0.325555556,1,0,0,QQQ4,,,,,,,,English ,2020-07-02_11h00.16.824,Experiment_English,3.2.4,MacIntel,60,,,1,0,340,237,1,339,ratio32_12_20_5.png,,,,,,,,,,,,
,,,,,,,,,,,,Some,Less than half,Few,Many,More than half,Half,Most,None,All,-0.39,-0.038888889,1,0,0,QQQ8,,,,,,,,English ,2020-07-02_11h00.16.824,Experiment_English,3.2.4,MacIntel,60,,,1,0,340,68,1,339,ratio0Y_0_11_3.png,,,,,,,,,,,,
,,,,,,,,,,,,Few,None,Half,More than half,Many,Some,All,Most,Less than half,-0.476666667,0.034444444,1,0,0,QQQ8,,,,,,,,English ,2020-07-02_11h00.16.824,Experiment_English,3.2.4,MacIntel,60,,,1,0,340,293,1,339,ratio43_8_14_7.png,,,,,,,,,,,,
,,,,,,,,,,,,Half,Less than half,More than half,Few,Many,Most,All,None,Some,-0.437777778,-0.003333333,1,0,0,QQQ8,,,,,,,,English ,2020-07-02_11h00.16.824,Experiment_English,3.2.4,MacIntel,60,,,1,0,340,252,1,339,ratio34_6_14_3.png,,,,,,,,,,,,
,,,,,,,,,,,,None,More than half,Few,Less than half,Many,Some,All,Half,Most,0.575555556,0.231111111,1,0,0,QQQ1,,,,,,,,English ,2020-07-02_11h00.16.824,Experiment_English,3.2.4,MacIntel,60,,,1,0,340,187,1,339,ratio23_4_10_5.png,,,,,,,,,,,,
,,,,,,,,,,,,Few,Half,Some,Most,Less than half,None,All,More than half,Many,0.078888889,-0.393333333,1,0,0,QQQ6,,,,,,,,English ,2020-07-02_11h00.16.824,Experiment_English,3.2.4,MacIntel,60,,,1,0,340,71,1,339,ratio0Y_0_12_10.png,,,,,,,,,,,,
,,,,,,,,,,,,Few,All,Some,More than half,Half,Less than half,Many,Most,None,-0.45,-0.318888889,1,0,0,QQQ9,,,,,,,,English ,2020-07-02_11h00.16.824,Experiment_English,3.2.4,MacIntel,60,,,1,0,340,202,1,339,ratio31_3_4_8.png,,,,,,,,,,,,
,,,,,,,,,,,,Many,Some,All,None,More than half,Half,Less than half,Most,Few,-0.407777778,-0.305555556,1,0,0,QQQ9,,,,,,,,English ,2020-07-02_11h00.16.824,Experiment_English,3.2.4,MacIntel,60,,,1,0,340,141,1,339,ratio19_1_10_2.png,,,,,,,,,,,,
,,,,,,,,,,,,None,Half,Many,More than half,Few,Some,All,Less than half,Most,-0.413333333,0.224444444,1,0,0,QQQ7,,,,,,,,English ,2020-07-02_11h00.16.824,Experiment_English,3.2.4,MacIntel,60,,,1,0,340,44,1,339,ratioX0_7_7_5.png,,,,,,,,,,,,
,,,,,,,,,,,,More than half,Half,All,Less than half,Most,Some,None,Many,Few,-0.441111111,0.238888889,1,0,0,QQQ7,,,,,,,,English ,2020-07-02_11h00.16.824,Experiment_English,3.2.4,MacIntel,60,,,1,0,340,79,1,339,ratio0Y_0_20_4.png,,,,,,,,,,,,
,,,,,,,,,,,,More than half,None,Some,Half,Few,Less than half,Many,All,Most,0.484444444,-0.035555556,1,0,0,QQQ2,,,,,,,,English ,2020-07-02_11h00.16.824,Experiment_English,3.2.4,MacIntel,60,,,1,0,340,67,1,339,ratio0Y_0_10_10.png,,,,,,,,,,,,
,,,,,,,,,,,,Most,Many,Some,More than half,Half,None,All,Few,Less than half,0.09,-0.243333333,1,0,0,QQQ6,,,,,,,,English ,2020-07-02_11h00.16.824,Experiment_English,3.2.4,MacIntel,60,,,1,0,340,133,1,339,ratio15_3_18_3.png,,,,,,,,,,,,
,,,,,,,,,,,,Few,Many,Some,Less than half,Most,Half,More than half,None,All,0.006666667,-0.093333333,1,0,0,QQQ5,,,,,,,,English ,2020-07-02_11h00.16.824,Experiment_English,3.2.4,MacIntel,60,,,1,0,340,213,1,339,ratio31_12_16_2.png,,,,,,,,,,,,
,,,,,,,,,,,,Some,More than half,Half,Many,All,Most,Few,Less than half,None,0.121111111,-0.265555556,1,0,0,QQQ6,,,,,,,,English ,2020-07-02_11h00.16.824,Experiment_English,3.2.4,MacIntel,60,,,1,0,340,226,1,339,ratio32_6_10_5.png,,,,,,,,,,,,
,,,,,,,,,,,,Many,None,Half,Less than half,More than half,Most,Few,All,Some,0.451111111,-0.051111111,1,0,0,QQQ2,,,,,,,,English ,2020-07-02_11h00.16.824,Experiment_English,3.2.4,MacIntel,60,,,1,0,340,210,1,339,ratio31_9_12_9.png,,,,,,,,,,,,
,,,,,,,,,,,,Less than half,All,Half,More than half,None,Some,Few,Many,Most,-0.514444444,-0.322222222,1,0,0,QQQ9,,,,,,,,English ,2020-07-02_11h00.16.824,Experiment_English,3.2.4,MacIntel,60,,,1,0,340,339,1,339,ratio91_18_20_19.png,,,,,,,,,,,,
,,,,,,,,,,,,Half,Few,All,Less than half,None,Some,Many,More than half,Most,0.025555556,-0.272222222,1,0,0,QQQ6,,,,,,,,English ,2020-07-02_11h00.16.824,Experiment_English,3.2.4,MacIntel,60,,,1,0,340,170,1,339,ratio21_6_9_8.png,,,,,,,,,,,,
,,,,,,,,,,,,Less than half,Half,More than half,Most,All,Few,Many,None,Some,0.033333333,0.271111111,1,0,0,QQQ4,,,,,,,,English ,2020-07-02_11h00.16.824,Experiment_English,3.2.4,MacIntel,60,,,1,0,340,209,1,339,ratio31_9_12_6.png,,,,,,,,,,,,
,,,,,,,,,,,,Few,Half,More than half,Less than half,All,Most,Many,None,Some,0.035555556,-0.371111111,1,0,0,QQQ6,,,,,,,,English ,2020-07-02_11h00.16.824,Experiment_English,3.2.4,MacIntel,60,,,1,0,340,326,1,339,ratio91_9_10_10.png,,,,,,,,,,,,
,,,,,,,,,,,,Few,Some,Many,Less than half,More than half,None,All,Most,Half,-0.472222222,-0.282222222,1,0,0,QQQ9,,,,,,,,English ,2020-07-02_11h00.16.824,Experiment_English,3.2.4,MacIntel,60,,,1,0,340,296,1,339,ratio43_8_14_12.png,,,,,,,,,,,,
,,,,,,,,,,,,Some,Many,Most,Few,None,More than half,Less than half,Half,All,0.011111111,-0.291111111,1,0,0,QQQ6,,,,,,,,English ,2020-07-02_11h00.16.824,Experiment_English,3.2.4,MacIntel,60,,,1,0,340,212,1,339,ratio31_12_16_1.png,,,,,,,,,,,,
,,,,,,,,,,,,None,All,Few,More than half,Many,Less than half,Most,Half,Some,0.464444444,0.326666667,1,0,0,QQQ1,,,,,,,,English ,2020-07-02_11h00.16.824,Experiment_English,3.2.4,MacIntel,60,,,1,0,340,180,1,339,ratio23_2_5_4.png,,,,,,,,,,,,
,,,,,,,,,,,,Some,Few,Less than half,More than half,Most,Many,None,Half,All,0.427777778,-0.015555556,1,0,0,QQQ2,,,,,,,,English ,2020-07-02_11h00.16.824,Experiment_English,3.2.4,MacIntel,60,,,1,0,340,157,1,339,ratio19_2_20_16.png,,,,,,,,,,,,
,,,,,,,,,,,,Many,Half,Most,More than half,Less than half,Some,None,All,Few,0.374444444,-0.022222222,1,0,0,QQQ2,,,,,,,,English ,2020-07-02_11h00.16.824,Experiment_English,3.2.4,MacIntel,60,,,1,0,340,194,1,339,ratio23_6_15_10.png,,,,,,,,,,,,
,,,,,,,,,,,,None,More than half,Some,Less than half,Many,Few,All,Most,Half,-0.076666667,-0.237777778,1,0,0,QQQ6,,,,,,,,English ,2020-07-02_11h00.16.824,Experiment_English,3.2.4,MacIntel,60,,,1,0,340,140,1,339,ratio19_1_10_1.png,,,,,,,,,,,,
,,,,,,,,,,,,Some,Many,None,Less than half,More than half,All,Few,Most,Half,-0.482222222,0.226666667,1,0,0,QQQ7,,,,,,,,English ,2020-07-02_11h00.16.824,Experiment_English,3.2.4,MacIntel,60,,,1,0,340,82,1,339,ratio13_1_4_7.png,,,,,,,,,,,,
,,,,,,,,,,,,None,Many,Some,Few,Less than half,Half,Most,More than half,All,0.035555556,0.264444444,1,0,0,QQQ4,,,,,,,,English ,2020-07-02_11h00.16.824,Experiment_English,3.2.4,MacIntel,60,,,1,0,340,83,1,339,ratio13_1_4_10.png,,,,,,,,,,,,
,,,,,,,,,,,,Less than half,Some,None,Most,Many,Half,More than half,Few,All,-0.001111111,0.268888889,1,0,0,QQQ4,,,,,,,,English ,2020-07-02_11h00.16.824,Experiment_English,3.2.4,MacIntel,60,,,1,0,340,167,1,339,ratio21_6_9_2.png,,,,,,,,,,,,
,,,,,,,,,,,,Less than half,None,All,Half,Most,Many,Some,Few,More than half,-0.034444444,0.046666667,1,0,0,QQQ5,,,,,,,,English ,2020-07-02_11h00.16.824,Experiment_English,3.2.4,MacIntel,60,,,1,0,340,328,1,339,ratio91_9_10_15.png,,,,,,,,,,,,
,,,,,,,,,,,,Less than half,Many,All,Most,Few,None,Some,Half,More than half,-0.075555556,0.245555556,1,0,0,QQQ4,,,,,,,,English ,2020-07-02_11h00.16.824,Experiment_English,3.2.4,MacIntel,60,,,1,0,340,235,1,339,ratio32_12_20_1.png,,,,,,,,,,,,
,,,,,,,,,,,,Half,Most,Many,Few,Less than half,All,More than half,Some,None,0.367777778,-0.051111111,1,0,0,QQQ2,,,,,,,,English ,2020-07-02_11h00.16.824,Experiment_English,3.2.4,MacIntel,60,,,1,0,340,174,1,339,ratio21_10_15_1.png,,,,,,,,,,,,
,,,,,,,,,,,,Half,Most,Few,None,More than half,Some,Many,All,Less than half,0.367777778,-0.051111111,1,0,0,QQQ2,,,,,,,,English ,2020-07-02_11h00.16.824,Experiment_English,3.2.4,MacIntel,60,,,1,0,340,268,1,339,ratio41_8_10_5.png,,,,,,,,,,,,
,,,,,,,,,,,,Many,Some,Most,Less than half,None,Few,Half,More than half,All,0.48,-0.344444444,1,0,0,QQQ3,,,,,,,,English ,2020-07-02_11h00.16.824,Experiment_English,3.2.4,MacIntel,60,,,1,0,340,211,1,339,ratio31_9_12_10.png,0.447777778,-0.372222222,1,0,0,continue_button_pause,1,0,1,0,1,0
,,,,,,,,,,,,,,,,,,,,,,,,,,,,,,,,,,English ,2020-07-02_11h00.16.824,Experiment_English,3.2.4,MacIntel,60,,,1,0,340,211,1,339,ratio31_9_12_10.png,,,,,,,,,,,,
,,,,,,,,,,,,Many,Some,All,Half,Most,Few,Less than half,More than half,None,0.013333333,-0.318888889,1,0,0,QQQ6,,,,,,,,English ,2020-07-02_11h00.16.824,Experiment_English,3.2.4,MacIntel,60,,,1,0,340,93,1,339,ratio13_4_16_7.png,,,,,,,,,,,,
,,,,,,,,,,,,Less than half,All,Most,More than half,Many,Half,Some,None,Few,-0.344444444,-0.233333333,1,0,0,QQQ9,,,,,,,,English ,2020-07-02_11h00.16.824,Experiment_English,3.2.4,MacIntel,60,,,1,0,340,109,1,339,ratio14_2_10_9.png,,,,,,,,,,,,
,,,,,,,,,,,,Some,Half,More than half,Most,Less than half,None,Many,All,Few,0.113333333,0.246666667,1,0,0,QQQ4,,,,,,,,English ,2020-07-02_11h00.16.824,Experiment_English,3.2.4,MacIntel,60,,,1,0,340,306,1,339,ratio51_5_6_18.png,,,,,,,,,,,,
,,,,,,,,,,,,More than half,Few,All,Most,Less than half,None,Half,Many,Some,0.078888889,-0.272222222,1,0,0,QQQ6,,,,,,,,English ,2020-07-02_11h00.16.824,Experiment_English,3.2.4,MacIntel,60,,,1,0,340,2,1,339,ratio12_1_3_10.png,,,,,,,,,,,,
,,,,,,,,,,,,Less than half,Half,Most,Few,All,Many,More than half,Some,None,-0.476666667,-0.246666667,1,0,0,QQQ9,,,,,,,,English ,2020-07-02_11h00.16.824,Experiment_English,3.2.4,MacIntel,60,,,1,0,340,322,1,339,ratio91_9_10_3.png,,,,,,,,,,,,
,,,,,,,,,,,,Half,More than half,Many,Some,Few,None,All,Most,Less than half,0.361111111,0.055555556,1,0,0,QQQ2,,,,,,,,English ,2020-07-02_11h00.16.824,Experiment_English,3.2.4,MacIntel,60,,,1,0,340,236,1,339,ratio32_12_20_2.png,,,,,,,,,,,,
,,,,,,,,,,,,Some,None,Less than half,Few,All,More than half,Half,Most,Many,0.035555556,0.227777778,1,0,0,QQQ4,,,,,,,,English ,2020-07-02_11h00.16.824,Experiment_English,3.2.4,MacIntel,60,,,1,0,340,1,1,339,ratio12_1_3_7.png,,,,,,,,,,,,
,,,,,,,,,,,,Many,Few,None,More than half,Some,Less than half,All,Most,Half,-0.433333333,-0.338888889,1,0,0,QQQ9,,,,,,,,English ,2020-07-02_11h00.16.824,Experiment_English,3.2.4,MacIntel,60,,,1,0,340,239,1,339,ratio32_12_20_10.png,,,,,,,,,,,,
,,,,,,,,,,,,More than half,Half,Some,Few,Many,Less than half,None,All,Most,-0.386666667,0.216666667,1,0,0,QQQ7,,,,,,,,English ,2020-07-02_11h00.16.824,Experiment_English,3.2.4,MacIntel,60,,,1,0,340,56,1,339,ratioX0_17_17_10.png,,,,,,,,,,,,
,,,,,,,,,,,,Few,Less than half,Some,More than half,All,None,Many,Half,Most,0.413333333,0.256666667,1,0,0,QQQ1,,,,,,,,English ,2020-07-02_11h00.16.824,Experiment_English,3.2.4,MacIntel,60,,,1,0,340,289,1,339,ratio43_4_7_20.png,,,,,,,,,,,,
,,,,,,,,,,,,Half,Many,All,Few,More than half,Some,Most,None,Less than half,-0.361111111,0.247777778,1,0,0,QQQ7,,,,,,,,English ,2020-07-02_11h00.16.824,Experiment_English,3.2.4,MacIntel,60,,,1,0,340,179,1,339,ratio21_12_18_8.png,,,,,,,,,,,,
,,,,,,,,,,,,Many,Most,Few,None,All,Less than half,More than half,Half,Some,-0.365555556,0.065555556,1,0,0,QQQ8,,,,,,,,English ,2020-07-02_11h00.16.824,Experiment_English,3.2.4,MacIntel,60,,,1,0,340,164,1,339,ratio21_4_6_6.png,,,,,,,,,,,,
,,,,,,,,,,,,All,None,Some,Most,Few,Less than half,More than half,Half,Many,0.351111111,-0.032222222,1,0,0,QQQ2,,,,,,,,English ,2020-07-02_11h00.16.824,Experiment_English,3.2.4,MacIntel,60,,,1,0,340,110,1,339,ratio14_3_15_2.png,,,,,,,,,,,,
,,,,,,,,,,,,More than half,Some,Half,Most,None,Few,All,Less than half,Many,0.022222222,-0.257777778,1,0,0,QQQ6,,,,,,,,English ,2020-07-02_11h00.16.824,Experiment_English,3.2.4,MacIntel,60,,,1,0,340,151,1,339,ratio19_2_20_4.png,,,,,,,,,,,,
,,,,,,,,,,,,None,Some,Most,Many,All,Few,More than half,Less than half,Half,0.113333333,0.305555556,1,0,0,QQQ4,,,,,,,,English ,2020-07-02_11h00.16.824,Experiment_English,3.2.4,MacIntel,60,,,1,0,340,259,1,339,ratio34_6_14_19.png,,,,,,,,,,,,
,,,,,,,,,,,,All,Some,More than half,Less than half,None,Half,Few,Most,Many,-0.424444444,-0.024444444,1,0,0,QQQ8,,,,,,,,English ,2020-07-02_11h00.16.824,Experiment_English,3.2.4,MacIntel,60,,,1,0,340,292,1,339,ratio43_8_14_6.png,,,,,,,,,,,,
,,,,,,,,,,,,Most,More than half,None,Few,All,Half,Less than half,Many,Some,0.374444444,0.236666667,1,0,0,QQQ1,,,,,,,,English ,2020-07-02_11h00.16.824,Experiment_English,3.2.4,MacIntel,60,,,1,0,340,303,1,339,ratio51_5_6_6.png,,,,,,,,,,,,
,,,,,,,,,,,,Half,Some,Many,All,Less than half,None,Few,More than half,Most,-0.443333333,0.324444444,1,0,0,QQQ7,,,,,,,,English ,2020-07-02_11h00.16.824,Experiment_English,3.2.4,MacIntel,60,,,1,0,340,183,1,339,ratio23_2_5_9.png,,,,,,,,,,,,
,,,,,,,,,,,,Few,Most,Half,Less than half,Some,More than half,All,None,Many,0.043333333,-0.255555556,1,0,0,QQQ6,,,,,,,,English ,2020-07-02_11h00.16.824,Experiment_English,3.2.4,MacIntel,60,,,1,0,340,220,1,339,ratio32_3_5_1.png,,,,,,,,,,,,
,,,,,,,,,,,,Less than half,Few,None,Many,All,Half,Some,More than half,Most,0.385555556,-0.014444444,1,0,0,QQQ2,,,,,,,,English ,2020-07-02_11h00.16.824,Experiment_English,3.2.4,MacIntel,60,,,1,0,340,81,1,339,ratio13_1_4_5.png,,,,,,,,,,,,
,,,,,,,,,,,,All,Few,Most,Less than half,Some,Half,Many,More than half,None,-0.097777778,-0.286666667,1,0,0,QQQ6,,,,,,,,English ,2020-07-02_11h00.16.824,Experiment_English,3.2.4,MacIntel,60,,,1,0,340,198,1,339,ratio23_8_20_7.png,,,,,,,,,,,,
,,,,,,,,,,,,Few,More than half,Less than half,Half,None,All,Most,Some,Many,0.443333333,0.366666667,1,0,0,QQQ1,,,,,,,,English ,2020-07-02_11h00.16.824,Experiment_English,3.2.4,MacIntel,60,,,1,0,340,89,1,339,ratio13_3_12_6.png,,,,,,,,,,,,
,,,,,,,,,,,,Some,Many,Less than half,More than half,All,Half,Most,None,Few,-0.407777778,-0.243333333,1,0,0,QQQ9,,,,,,,,English ,2020-07-02_11h00.16.824,Experiment_English,3.2.4,MacIntel,60,,,1,0,340,278,1,339,ratio41_16_20_9.png,,,,,,,,,,,,
,,,,,,,,,,,,Half,Few,Most,More than half,None,Many,All,Some,Less than half,-0.1,0.006666667,1,0,0,QQQ5,,,,,,,,English ,2020-07-02_11h00.16.824,Experiment_English,3.2.4,MacIntel,60,,,1,0,340,61,1,339,ratio0Y_0_4_7.png,,,,,,,,,,,,
,,,,,,,,,,,,More than half,All,Some,Less than half,Half,Few,None,Many,Most,0.475555556,0.292222222,1,0,0,QQQ1,,,,,,,,English ,2020-07-02_11h00.16.824,Experiment_English,3.2.4,MacIntel,60,,,1,0,340,166,1,339,ratio21_6_9_1.png,,,,,,,,,,,,
,,,,,,,,,,,,Most,Few,All,Less than half,More than half,Many,Some,None,Half,0.135555556,0.292222222,1,0,0,QQQ4,,,,,,,,English ,2020-07-02_11h00.16.824,Experiment_English,3.2.4,MacIntel,60,,,1,0,340,244,1,339,ratio34_3_7_9.png,,,,,,,,,,,,
,,,,,,,,,,,,More than half,Less than half,Few,Most,All,Some,Many,Half,None,-0.07,0.361111111,1,0,0,QQQ4,,,,,,,,English ,2020-07-02_11h00.16.824,Experiment_English,3.2.4,MacIntel,60,,,1,0,340,311,1,339,ratio51_10_12_14.png,,,,,,,,,,,,
,,,,,,,,,,,,Some,Less than half,All,Few,More than half,Many,Most,None,Half,-0.385555556,-0.298888889,1,0,0,QQQ9,,,,,,,,English ,2020-07-02_11h00.16.824,Experiment_English,3.2.4,MacIntel,60,,,1,0,340,22,1,339,ratio11_3_6_6.png,,,,,,,,,,,,
,,,,,,,,,,,,Most,All,None,Many,More than half,Some,Half,Few,Less than half,-0.431111111,-0.284444444,1,0,0,QQQ9,,,,,,,,English ,2020-07-02_11h00.16.824,Experiment_English,3.2.4,MacIntel,60,,,1,0,340,255,1,339,ratio34_6_14_10.png,,,,,,,,,,,,
,,,,,,,,,,,,None,Less than half,Many,Half,Most,Few,Some,All,More than half,-0.111111111,0.233333333,1,0,0,QQQ4,,,,,,,,English ,2020-07-02_11h00.16.824,Experiment_English,3.2.4,MacIntel,60,,,1,0,340,230,1,339,ratio32_9_15_1.png,,,,,,,,,,,,
,,,,,,,,,,,,Less than half,Some,Few,More than half,Most,Half,None,All,Many,-0.051111111,0.01,1,0,0,QQQ5,,,,,,,,English ,2020-07-02_11h00.16.824,Experiment_English,3.2.4,MacIntel,60,,,1,0,340,33,1,339,ratio11_7_14_8.png,,,,,,,,,,,,
,,,,,,,,,,,,Less than half,Many,Some,Half,More than half,Most,All,None,Few,-0.435555556,-0.052222222,1,0,0,QQQ8,,,,,,,,English ,2020-07-02_11h00.16.824,Experiment_English,3.2.4,MacIntel,60,,,1,0,340,43,1,339,ratioX0_6_6_9.png,,,,,,,,,,,,
,,,,,,,,,,,,Less than half,Half,More than half,Few,All,Some,Most,None,Many,-0.008888889,0.2,1,0,0,QQQ4,,,,,,,,English ,2020-07-02_11h00.16.824,Experiment_English,3.2.4,MacIntel,60,,,1,0,340,15,1,339,ratio12_5_15_5.png,,,,,,,,,,,,
,,,,,,,,,,,,Half,More than half,Few,All,Some,Many,Most,Less than half,None,0.398888889,-0.3,1,0,0,QQQ3,,,,,,,,English ,2020-07-02_11h00.16.824,Experiment_English,3.2.4,MacIntel,60,,,1,0,340,100,1,339,ratio14_1_5_3.png,0.353333333,-0.387777778,1,0,0,continue_button_pause,1,0,1,0,1,0
,,,,,,,,,,,,,,,,,,,,,,,,,,,,,,,,,,English ,2020-07-02_11h00.16.824,Experiment_English,3.2.4,MacIntel,60,,,1,0,340,100,1,339,ratio14_1_5_3.png,,,,,,,,,,,,
,,,,,,,,,,,,Most,None,Some,Few,Less than half,More than half,Half,Many,All,0.42,-0.093333333,1,0,0,QQQ2,,,,,,,,English ,2020-07-02_11h00.16.824,Experiment_English,3.2.4,MacIntel,60,,,1,0,340,161,1,339,ratio21_2_3_8.png,,,,,,,,,,,,
,,,,,,,,,,,,Half,Many,Some,None,Few,Less than half,Most,All,More than half,-0.017777778,0.271111111,1,0,0,QQQ4,,,,,,,,English ,2020-07-02_11h00.16.824,Experiment_English,3.2.4,MacIntel,60,,,1,0,340,320,1,339,ratio91_9_10_1.png,,,,,,,,,,,,
,,,,,,,,,,,,Many,More than half,None,All,Less than half,Half,Most,Some,Few,-0.417777778,0.344444444,1,0,0,QQQ7,,,,,,,,English ,2020-07-02_11h00.16.824,Experiment_English,3.2.4,MacIntel,60,,,1,0,340,279,1,339,ratio41_16_20_10.png,,,,,,,,,,,,
,,,,,,,,,,,,More than half,Less than half,Some,Few,Half,None,Many,Most,All,-0.017777778,0.298888889,1,0,0,QQQ4,,,,,,,,English ,2020-07-02_11h00.16.824,Experiment_English,3.2.4,MacIntel,60,,,1,0,340,126,1,339,ratio15_2_12_1.png,,,,,,,,,,,,
,,,,,,,,,,,,Half,None,Most,More than half,Less than half,Few,Many,Some,All,0.428888889,0.023333333,1,0,0,QQQ2,,,,,,,,English ,2020-07-02_11h00.16.824,Experiment_English,3.2.4,MacIntel,60,,,1,0,340,78,1,339,ratio0Y_0_19_1.png,,,,,,,,,,,,
,,,,,,,,,,,,Half,Few,None,Some,Many,Most,All,More than half,Less than half,0.428888889,0.024444444,1,0,0,QQQ2,,,,,,,,English ,2020-07-02_11h00.16.824,Experiment_English,3.2.4,MacIntel,60,,,1,0,340,200,1,339,ratio31_3_4_4.png,,,,,,,,,,,,
,,,,,,,,,,,,More than half,All,Less than half,Many,Most,Half,None,Few,Some,-0.461111111,0.062222222,1,0,0,QQQ8,,,,,,,,English ,2020-07-02_11h00.16.824,Experiment_English,3.2.4,MacIntel,60,,,1,0,340,130,1,339,ratio15_2_12_12.png,,,,,,,,,,,,
,,,,,,,,,,,,Most,All,Some,More than half,Few,Half,Many,None,Less than half,0.041111111,-0.255555556,1,0,0,QQQ6,,,,,,,,English ,2020-07-02_11h00.16.824,Experiment_English,3.2.4,MacIntel,60,,,1,0,340,20,1,339,ratio11_2_4_3.png,,,,,,,,,,,,
,,,,,,,,,,,,More than half,Few,All,Less than half,Half,None,Many,Most,Some,0.501111111,-0.038888889,1,0,0,QQQ2,,,,,,,,English ,2020-07-02_11h00.16.824,Experiment_English,3.2.4,MacIntel,60,,,1,0,340,117,1,339,ratio14_4_20_6.png,,,,,,,,,,,,
,,,,,,,,,,,,Few,Most,Some,Half,Many,More than half,None,Less than half,All,0.377777778,0.353333333,1,0,0,QQQ1,,,,,,,,English ,2020-07-02_11h00.16.824,Experiment_English,3.2.4,MacIntel,60,,,1,0,340,191,1,339,ratio23_6_15_7.png,,,,,,,,,,,,
,,,,,,,,,,,,None,All,Few,Some,Half,Most,More than half,Less than half,Many,0.467777778,-0.224444444,1,0,0,QQQ3,,,,,,,,English ,2020-07-02_11h00.16.824,Experiment_English,3.2.4,MacIntel,60,,,1,0,340,12,1,339,ratio12_4_12_10.png,,,,,,,,,,,,
,,,,,,,,,,,,All,Most,Many,Half,None,Few,Some,More than half,Less than half,0.451111111,0.016666667,1,0,0,QQQ2,,,,,,,,English ,2020-07-02_11h00.16.824,Experiment_English,3.2.4,MacIntel,60,,,1,0,340,262,1,339,ratio41_4_5_4.png,,,,,,,,,,,,
,,,,,,,,,,,,None,More than half,Half,Many,Less than half,Few,All,Some,Most,0.453333333,0.335555556,1,0,0,QQQ1,,,,,,,,English ,2020-07-02_11h00.16.824,Experiment_English,3.2.4,MacIntel,60,,,1,0,340,251,1,339,ratio34_6_14_2.png,,,,,,,,,,,,
,,,,,,,,,,,,Most,Many,All,More than half,Half,None,Less than half,Few,Some,0.082222222,0.028888889,1,0,0,QQQ5,,,,,,,,English ,2020-07-02_11h00.16.824,Experiment_English,3.2.4,MacIntel,60,,,1,0,340,288,1,339,ratio43_4_7_18.png,,,,,,,,,,,,
,,,,,,,,,,,,Some,Most,None,All,Few,More than half,Half,Many,Less than half,0.143333333,0.001111111,1,0,0,QQQ5,,,,,,,,English ,2020-07-02_11h00.16.824,Experiment_English,3.2.4,MacIntel,60,,,1,0,340,0,1,339,ratio12_1_3_3.png,,,,,,,,,,,,
,,,,,,,,,,,,Some,All,More than half,None,Many,Less than half,Half,Most,Few,-0.388888889,-0.03,1,0,0,QQQ8,,,,,,,,English ,2020-07-02_11h00.16.824,Experiment_English,3.2.4,MacIntel,60,,,1,0,340,333,1,339,ratio91_18_20_6.png,,,,,,,,,,,,
,,,,,,,,,,,,Some,All,Less than half,More than half,Few,Most,Half,Many,None,-0.088888889,-0.017777778,1,0,0,QQQ5,,,,,,,,English ,2020-07-02_11h00.16.824,Experiment_English,3.2.4,MacIntel,60,,,1,0,340,84,1,339,ratio13_2_8_1.png,,,,,,,,,,,,
,,,,,,,,,,,,More than half,Half,All,Many,Few,Some,Most,None,Less than half,-0.088888889,-0.017777778,1,0,0,QQQ5,,,,,,,,English ,2020-07-02_11h00.16.824,Experiment_English,3.2.4,MacIntel,60,,,1,0,340,154,1,339,ratio19_2_20_11.png,,,,,,,,,,,,
,,,,,,,,,,,,All,Many,Few,None,Less than half,Half,Most,More than half,Some,0.451111111,-0.312222222,1,0,0,QQQ3,,,,,,,,English ,2020-07-02_11h00.16.824,Experiment_English,3.2.4,MacIntel,60,,,1,0,340,143,1,339,ratio19_1_10_9.png,,,,,,,,,,,,
,,,,,,,,,,,,Few,Many,Some,Half,All,Most,More than half,None,Less than half,0.422222222,0.22,1,0,0,QQQ1,,,,,,,,English ,2020-07-02_11h00.16.824,Experiment_English,3.2.4,MacIntel,60,,,1,0,340,299,1,339,ratio43_8_14_17.png,,,,,,,,,,,,
,,,,,,,,,,,,Few,Many,Most,None,All,More than half,Half,Some,Less than half,0.371111111,0.336666667,1,0,0,QQQ1,,,,,,,,English ,2020-07-02_11h00.16.824,Experiment_English,3.2.4,MacIntel,60,,,1,0,340,253,1,339,ratio34_6_14_5.png,,,,,,,,,,,,
,,,,,,,,,,,,All,None,Half,Most,Many,Less than half,Some,More than half,Few,0.403333333,0.027777778,1,0,0,QQQ2,,,,,,,,English ,2020-07-02_11h00.16.824,Experiment_English,3.2.4,MacIntel,60,,,1,0,340,113,1,339,ratio14_3_15_8.png,,,,,,,,,,,,
,,,,,,,,,,,,Less than half,Half,Many,Some,Most,All,Few,None,More than half,0.121111111,0,1,0,0,QQQ5,,,,,,,,English ,2020-07-02_11h00.16.824,Experiment_English,3.2.4,MacIntel,60,,,1,0,340,258,1,339,ratio34_6_14_14.png,,,,,,,,,,,,
,,,,,,,,,,,,Few,All,None,Half,Most,Many,Less than half,More than half,Some,0.12,0.006666667,1,0,0,QQQ5,,,,,,,,English ,2020-07-02_11h00.16.824,Experiment_English,3.2.4,MacIntel,60,,,1,0,340,229,1,339,ratio32_6_10_9.png,,,,,,,,,,,,
,,,,,,,,,,,,Many,All,Less than half,Some,None,More than half,Most,Few,Half,0.12,0.006666667,1,0,0,QQQ5,,,,,,,,English ,2020-07-02_11h00.16.824,Experiment_English,3.2.4,MacIntel,60,,,1,0,340,73,1,339,ratio0Y_0_14_7.png,,,,,,,,,,,,
,,,,,,,,,,,,Some,More than half,Few,None,Most,Many,Half,Less than half,All,-0.022222222,0.22,1,0,0,QQQ4,,,,,,,,English ,2020-07-02_11h00.16.824,Experiment_English,3.2.4,MacIntel,60,,,1,0,340,57,1,339,ratioX0_18_18_1.png,,,,,,,,,,,,
,,,,,,,,,,,,More than half,Some,Half,Less than half,Many,Most,Few,All,None,-0.496666667,0.271111111,1,0,0,QQQ7,,,,,,,,English ,2020-07-02_11h00.16.824,Experiment_English,3.2.4,MacIntel,60,,,1,0,340,99,1,339,ratio13_5_20_4.png,,,,,,,,,,,,
,,,,,,,,,,,,Less than half,More than half,None,Some,Half,All,Many,Few,Most,0.088888889,-0.09,1,0,0,QQQ5,,,,,,,,English ,2020-07-02_11h00.16.824,Experiment_English,3.2.4,MacIntel,60,,,1,0,340,298,1,339,ratio43_8_14_14.png,,,,,,,,,,,,
,,,,,,,,,,,,Most,None,Less than half,More than half,Few,Many,Half,Some,All,0.088888889,-0.09,1,0,0,QQQ5,,,,,,,,English ,2020-07-02_11h00.16.824,Experiment_English,3.2.4,MacIntel,60,,,1,0,340,139,1,339,ratio15_3_18_20.png,,,,,,,,,,,,
,,,,,,,,,,,,Most,Many,Less than half,Few,More than half,Half,None,Some,All,-0.051111111,-0.212222222,1,0,0,QQQ6,,,,,,,,English ,2020-07-02_11h00.16.824,Experiment_English,3.2.4,MacIntel,60,,,1,0,340,286,1,339,ratio43_4_7_15.png,,,,,,,,,,,,
,,,,,,,,,,,,Some,More than half,Many,Half,Few,Most,Less than half,None,All,-0.412222222,-0.007777778,1,0,0,QQQ8,,,,,,,,English ,2020-07-02_11h00.16.824,Experiment_English,3.2.4,MacIntel,60,,,1,0,340,74,1,339,ratio0Y_0_15_10.png,,,,,,,,,,,,
,,,,,,,,,,,,Half,All,Less than half,None,Most,Few,Some,More than half,Many,0.041111111,-0.29,1,0,0,QQQ6,,,,,,,,English ,2020-07-02_11h00.16.824,Experiment_English,3.2.4,MacIntel,60,,,1,0,340,124,1,339,ratio15_1_6_16.png,,,,,,,,,,,,
,,,,,,,,,,,,Some,All,Few,Many,None,Most,More than half,Half,Less than half,0.437777778,-0.308888889,1,0,0,QQQ3,,,,,,,,English ,2020-07-02_11h00.16.824,Experiment_English,3.2.4,MacIntel,60,,,1,0,340,88,1,339,ratio13_3_12_5.png,,,,,,,,,,,,
,,,,,,,,,,,,Few,Half,None,Some,Most,Many,More than half,All,Less than half,0.474444444,0.365555556,1,0,0,QQQ1,,,,,,,,English ,2020-07-02_11h00.16.824,Experiment_English,3.2.4,MacIntel,60,,,1,0,340,90,1,339,ratio13_3_12_7.png,0.296666667,-0.433333333,1,0,0,continue_button_pause,1,0,1,0,1,0
,,,,,,,,,,,,,,,,,,,,,,,,,,,,,,,,,,English ,2020-07-02_11h00.16.824,Experiment_English,3.2.4,MacIntel,60,,,1,0,340,90,1,339,ratio13_3_12_7.png,,,,,,,,,,,,
,,,,,,,,,,,,Many,Most,Some,Less than half,None,Few,Half,More than half,All,0.001111111,-0.018888889,1,0,0,QQQ5,,,,,,,,English ,2020-07-02_11h00.16.824,Experiment_English,3.2.4,MacIntel,60,,,1,0,340,72,1,339,ratio0Y_0_13_4.png,,,,,,,,,,,,
,,,,,,,,,,,,All,Most,Half,Many,More than half,None,Less than half,Some,Few,0.396666667,-0.035555556,1,0,0,QQQ2,,,,,,,,English ,2020-07-02_11h00.16.824,Experiment_English,3.2.4,MacIntel,60,,,1,0,340,277,1,339,ratio41_16_20_8.png,,,,,,,,,,,,
,,,,,,,,,,,,None,Half,Few,Some,More than half,Many,Less than half,All,Most,-0.371111111,0.06,1,0,0,QQQ8,,,,,,,,English ,2020-07-02_11h00.16.824,Experiment_English,3.2.4,MacIntel,60,,,1,0,340,45,1,339,ratioX0_8_8_3.png,,,,,,,,,,,,
,,,,,,,,,,,,Most,All,None,Few,Many,Half,Some,More than half,Less than half,0.076666667,0.235555556,1,0,0,QQQ4,,,,,,,,English ,2020-07-02_11h00.16.824,Experiment_English,3.2.4,MacIntel,60,,,1,0,340,6,1,339,ratio12_3_9_1.png,,,,,,,,,,,,
,,,,,,,,,,,,All,More than half,None,Few,Less than half,Half,Most,Some,Many,0.076666667,0.235555556,1,0,0,QQQ4,,,,,,,,English ,2020-07-02_11h00.16.824,Experiment_English,3.2.4,MacIntel,60,,,1,0,340,186,1,339,ratio23_4_10_2.png,,,,,,,,,,,,
,,,,,,,,,,,,More than half,All,Less than half,None,Some,Most,Few,Many,Half,-0.352222222,0.318888889,1,0,0,QQQ7,,,,,,,,English ,2020-07-02_11h00.16.824,Experiment_English,3.2.4,MacIntel,60,,,1,0,340,287,1,339,ratio43_4_7_17.png,,,,,,,,,,,,
,,,,,,,,,,,,Some,Many,Few,More than half,Less than half,All,Half,Most,None,0.36,-0.217777778,1,0,0,QQQ3,,,,,,,,English ,2020-07-02_11h00.16.824,Experiment_English,3.2.4,MacIntel,60,,,1,0,340,275,1,339,ratio41_16_20_2.png,,,,,,,,,,,,
,,,,,,,,,,,,None,Many,Less than half,Some,More than half,All,Few,Half,Most,0.055555556,0.035555556,1,0,0,QQQ5,,,,,,,,English ,2020-07-02_11h00.16.824,Experiment_English,3.2.4,MacIntel,60,,,1,0,340,283,1,339,ratio43_4_7_8.png,,,,,,,,,,,,
,,,,,,,,,,,,More than half,Few,None,Some,All,Most,Many,Less than half,Half,-0.36,-0.027777778,1,0,0,QQQ8,,,,,,,,English ,2020-07-02_11h00.16.824,Experiment_English,3.2.4,MacIntel,60,,,1,0,340,242,1,339,ratio34_3_7_6.png,,,,,,,,,,,,
,,,,,,,,,,,,Few,Many,None,Half,All,Less than half,Most,More than half,Some,0.383333333,0.267777778,1,0,0,QQQ1,,,,,,,,English ,2020-07-02_11h00.16.824,Experiment_English,3.2.4,MacIntel,60,,,1,0,340,114,1,339,ratio14_3_15_10.png,,,,,,,,,,,,
,,,,,,,,,,,,More than half,None,Most,Few,Less than half,Many,All,Half,Some,0.131111111,0.012222222,1,0,0,QQQ5,,,,,,,,English ,2020-07-02_11h00.16.824,Experiment_English,3.2.4,MacIntel,60,,,1,0,340,196,1,339,ratio23_8_20_5.png,,,,,,,,,,,,
,,,,,,,,,,,,Few,Many,All,Half,None,More than half,Some,Less than half,Most,0.387777778,0.281111111,1,0,0,QQQ1,,,,,,,,English ,2020-07-02_11h00.16.824,Experiment_English,3.2.4,MacIntel,60,,,1,0,340,295,1,339,ratio43_8_14_11.png,,,,,,,,,,,,
,,,,,,,,,,,,None,Some,Less than half,Few,Many,Most,Half,More than half,All,-0.101111111,-0.252222222,1,0,0,QQQ6,,,,,,,,English ,2020-07-02_11h00.16.824,Experiment_English,3.2.4,MacIntel,60,,,1,0,340,217,1,339,ratio31_15_20_5.png,,,,,,,,,,,,
,,,,,,,,,,,,Half,Less than half,Some,None,Many,Few,More than half,All,Most,-0.058888889,0.208888889,1,0,0,QQQ4,,,,,,,,English ,2020-07-02_11h00.16.824,Experiment_English,3.2.4,MacIntel,60,,,1,0,340,64,1,339,ratio0Y_0_7_1.png,,,,,,,,,,,,
,,,,,,,,,,,,All,Many,Some,More than half,None,Less than half,Half,Most,Few,-0.378888889,-0.255555556,1,0,0,QQQ9,,,,,,,,English ,2020-07-02_11h00.16.824,Experiment_English,3.2.4,MacIntel,60,,,1,0,340,112,1,339,ratio14_3_15_4.png,,,,,,,,,,,,
,,,,,,,,,,,,All,Less than half,None,Few,Some,Most,Many,Half,More than half,-0.082222222,0.242222222,1,0,0,QQQ4,,,,,,,,English ,2020-07-02_11h00.16.824,Experiment_English,3.2.4,MacIntel,60,,,1,0,340,104,1,339,ratio14_1_5_10.png,,,,,,,,,,,,
,,,,,,,,,,,,Most,Less than half,All,Few,Some,More than half,Half,None,Many,0.443333333,-0.282222222,1,0,0,QQQ3,,,,,,,,English ,2020-07-02_11h00.16.824,Experiment_English,3.2.4,MacIntel,60,,,1,0,340,53,1,339,ratioX0_14_14_8.png,,,,,,,,,,,,
,,,,,,,,,,,,Some,None,Most,Few,Half,More than half,Less than half,Many,All,0.093333333,0.224444444,1,0,0,QQQ4,,,,,,,,English ,2020-07-02_11h00.16.824,Experiment_English,3.2.4,MacIntel,60,,,1,0,340,281,1,339,ratio43_4_7_4.png,,,,,,,,,,,,
,,,,,,,,,,,,All,More than half,Some,None,Less than half,Half,Many,Few,Most,-0.424444444,-0.08,1,0,0,QQQ8,,,,,,,,English ,2020-07-02_11h00.16.824,Experiment_English,3.2.4,MacIntel,60,,,1,0,340,181,1,339,ratio23_2_5_6.png,,,,,,,,,,,,
,,,,,,,,,,,,All,Less than half,Some,More than half,Many,Most,Half,Few,None,-0.544444444,0.04,1,0,0,QQQ8,,,,,,,,English ,2020-07-02_11h00.16.824,Experiment_English,3.2.4,MacIntel,60,,,1,0,340,249,1,339,ratio34_3_7_20.png,,,,,,,,,,,,
,,,,,,,,,,,,Few,Some,None,Half,All,Less than half,Many,More than half,Most,-0.531111111,-0.242222222,1,0,0,QQQ9,,,,,,,,English ,2020-07-02_11h00.16.824,Experiment_English,3.2.4,MacIntel,60,,,1,0,340,219,1,339,ratio31_15_20_10.png,,,,,,,,,,,,
,,,,,,,,,,,,Less than half,Few,Some,Many,All,None,Most,Half,More than half,-0.452222222,0.277777778,1,0,0,QQQ7,,,,,,,,English ,2020-07-02_11h00.16.824,Experiment_English,3.2.4,MacIntel,60,,,1,0,340,241,1,339,ratio34_3_7_5.png,,,,,,,,,,,,
,,,,,,,,,,,,Less than half,Some,More than half,All,Few,Most,Many,Half,None,-0.486666667,-0.32,1,0,0,QQQ9,,,,,,,,English ,2020-07-02_11h00.16.824,Experiment_English,3.2.4,MacIntel,60,,,1,0,340,65,1,339,ratio0Y_0_8_4.png,,,,,,,,,,,,
,,,,,,,,,,,,Some,None,All,Half,Most,Less than half,Few,Many,More than half,-0.088888889,-0.011111111,1,0,0,QQQ5,,,,,,,,English ,2020-07-02_11h00.16.824,Experiment_English,3.2.4,MacIntel,60,,,1,0,340,317,1,339,ratio51_15_18_13.png,,,,,,,,,,,,
,,,,,,,,,,,,Less than half,Many,Some,Half,All,More than half,Most,Few,None,-0.088888889,-0.011111111,1,0,0,QQQ5,,,,,,,,English ,2020-07-02_11h00.16.824,Experiment_English,3.2.4,MacIntel,60,,,1,0,340,176,1,339,ratio21_10_15_3.png,,,,,,,,,,,,
,,,,,,,,,,,,Half,Few,Less than half,All,None,Many,Most,More than half,Some,-0.393333333,0.221111111,1,0,0,QQQ7,,,,,,,,English ,2020-07-02_11h00.16.824,Experiment_English,3.2.4,MacIntel,60,,,1,0,340,330,1,339,ratio91_18_20_2.png,,,,,,,,,,,,
,,,,,,,,,,,,Some,Few,Half,Most,Less than half,All,None,More than half,Many,-0.085555556,0.221111111,1,0,0,QQQ4,,,,,,,,English ,2020-07-02_11h00.16.824,Experiment_English,3.2.4,MacIntel,60,,,1,0,340,232,1,339,ratio32_9_15_8.png,,,,,,,,,,,,
,,,,,,,,,,,,Many,None,Some,Half,Most,All,Few,More than half,Less than half,-0.377777778,-0.035555556,1,0,0,QQQ8,,,,,,,,English ,2020-07-02_11h00.16.824,Experiment_English,3.2.4,MacIntel,60,,,1,0,340,165,1,339,ratio21_4_6_10.png,,,,,,,,,,,,
,,,,,,,,,,,,Many,More than half,Half,Most,Less than half,All,Some,Few,None,-0.428888889,-0.211111111,1,0,0,QQQ9,,,,,,,,English ,2020-07-02_11h00.16.824,Experiment_English,3.2.4,MacIntel,60,,,1,0,340,123,1,339,ratio15_1_6_12.png,,,,,,,,,,,,
,,,,,,,,,,,,None,Most,Some,Less than half,Few,Half,More than half,All,Many,-0.114444444,-0.067777778,1,0,0,QQQ5,,,,,,,,English ,2020-07-02_11h00.16.824,Experiment_English,3.2.4,MacIntel,60,,,1,0,340,280,1,339,ratio43_4_7_2.png,,,,,,,,,,,,
,,,,,,,,,,,,Some,Less than half,Few,Half,Many,None,Most,More than half,All,-0.014444444,0.291111111,1,0,0,QQQ4,,,,,,,,English ,2020-07-02_11h00.16.824,Experiment_English,3.2.4,MacIntel,60,,,1,0,340,26,1,339,ratio11_5_10_4.png,,,,,,,,,,,,
,,,,,,,,,,,,Some,Less than half,Half,Few,None,Many,Most,More than half,All,-0.434444444,0.275555556,1,0,0,QQQ7,,,,,,,,English ,2020-07-02_11h00.16.824,Experiment_English,3.2.4,MacIntel,60,,,1,0,340,177,1,339,ratio21_12_18_1.png,,,,,,,,,,,,
,,,,,,,,,,,,Few,Half,Many,Less than half,All,Most,None,Some,More than half,-0.432222222,0.262222222,1,0,0,QQQ7,,,,,,,,English ,2020-07-02_11h00.16.824,Experiment_English,3.2.4,MacIntel,60,,,1,0,340,70,1,339,ratio0Y_0_12_5.png,,,,,,,,,,,,
,,,,,,,,,,,,Most,All,More than half,Less than half,Some,Many,Half,None,Few,0.383333333,-0.22,1,0,0,QQQ3,,,,,,,,English ,2020-07-02_11h00.16.824,Experiment_English,3.2.4,MacIntel,60,,,1,0,340,321,1,339,ratio91_9_10_2.png,0.388888889,-0.374444444,1,0,0,continue_button_pause,1,0,1,0,1,0
,,,,,,,,,,,,,,,,,,,,,,,,,,,,,,,,,,English ,2020-07-02_11h00.16.824,Experiment_English,3.2.4,MacIntel,60,,,1,0,340,321,1,339,ratio91_9_10_2.png,,,,,,,,,,,,
,,,,,,,,,,,,None,Few,More than half,Many,Less than half,Half,Most,All,Some,0.395555556,-0.032222222,1,0,0,QQQ2,,,,,,,,English ,2020-07-02_11h00.16.824,Experiment_English,3.2.4,MacIntel,60,,,1,0,340,256,1,339,ratio34_6_14_11.png,,,,,,,,,,,,
,,,,,,,,,,,,Most,Few,Less than half,None,Many,All,More than half,Some,Half,0.081111111,-0.001111111,1,0,0,QQQ5,,,,,,,,English ,2020-07-02_11h00.16.824,Experiment_English,3.2.4,MacIntel,60,,,1,0,340,301,1,339,ratio51_5_6_4.png,,,,,,,,,,,,
,,,,,,,,,,,,All,Most,None,Many,Less than half,Some,More than half,Few,Half,-0.123333333,-0.273333333,1,0,0,QQQ6,,,,,,,,English ,2020-07-02_11h00.16.824,Experiment_English,3.2.4,MacIntel,60,,,1,0,340,132,1,339,ratio15_2_12_16.png,,,,,,,,,,,,
,,,,,,,,,,,,None,Less than half,Few,All,Half,Some,More than half,Most,Many,-0.062222222,-0.292222222,1,0,0,QQQ6,,,,,,,,English ,2020-07-02_11h00.16.824,Experiment_English,3.2.4,MacIntel,60,,,1,0,340,119,1,339,ratio14_4_20_10.png,,,,,,,,,,,,
,,,,,,,,,,,,Less than half,None,Few,All,Many,More than half,Half,Most,Some,0.393333333,-0.037777778,1,0,0,QQQ2,,,,,,,,English ,2020-07-02_11h00.16.824,Experiment_English,3.2.4,MacIntel,60,,,1,0,340,24,1,339,ratio11_4_8_3.png,,,,,,,,,,,,
,,,,,,,,,,,,More than half,Half,None,All,Most,Less than half,Many,Some,Few,0.082222222,-0.007777778,1,0,0,QQQ5,,,,,,,,English ,2020-07-02_11h00.16.824,Experiment_English,3.2.4,MacIntel,60,,,1,0,340,247,1,339,ratio34_3_7_12.png,,,,,,,,,,,,
,,,,,,,,,,,,Few,Most,Some,Many,None,Half,More than half,Less than half,All,-0.026666667,-0.048888889,1,0,0,QQQ5,,,,,,,,English ,2020-07-02_11h00.16.824,Experiment_English,3.2.4,MacIntel,60,,,1,0,340,309,1,339,ratio51_10_12_10.png,,,,,,,,,,,,
,,,,,,,,,,,,Most,Some,None,Less than half,More than half,All,Many,Few,Half,-0.487777778,-0.02,1,0,0,QQQ8,,,,,,,,English ,2020-07-02_11h00.16.824,Experiment_English,3.2.4,MacIntel,60,,,1,0,340,42,1,339,ratioX0_5_5_5.png,,,,,,,,,,,,
,,,,,,,,,,,,Some,Less than half,More than half,None,Most,Few,All,Half,Many,-0.127777778,0.394444444,1,0,0,QQQ4,,,,,,,,English ,2020-07-02_11h00.16.824,Experiment_English,3.2.4,MacIntel,60,,,1,0,340,324,1,339,ratio91_9_10_7.png,,,,,,,,,,,,
,,,,,,,,,,,,Half,Few,Less than half,More than half,Most,Many,Some,All,None,-0.43,0.034444444,1,0,0,QQQ8,,,,,,,,English ,2020-07-02_11h00.16.824,Experiment_English,3.2.4,MacIntel,60,,,1,0,340,46,1,339,ratioX0_9_9_3.png,,,,,,,,,,,,
,,,,,,,,,,,,Most,All,Few,Half,Less than half,None,More than half,Many,Some,0.084444444,-0.263333333,1,0,0,QQQ6,,,,,,,,English ,2020-07-02_11h00.16.824,Experiment_English,3.2.4,MacIntel,60,,,1,0,340,60,1,339,ratio0Y_0_3_5.png,,,,,,,,,,,,
,,,,,,,,,,,,Less than half,Most,Many,Some,None,More than half,Few,Half,All,-0.438888889,0.224444444,1,0,0,QQQ7,,,,,,,,English ,2020-07-02_11h00.16.824,Experiment_English,3.2.4,MacIntel,60,,,1,0,340,269,1,339,ratio41_8_10_6.png,,,,,,,,,,,,
,,,,,,,,,,,,Few,Less than half,All,Many,None,More than half,Some,Half,Most,-0.467777778,0.061111111,1,0,0,QQQ8,,,,,,,,English ,2020-07-02_11h00.16.824,Experiment_English,3.2.4,MacIntel,60,,,1,0,340,28,1,339,ratio11_5_10_9.png,,,,,,,,,,,,
,,,,,,,,,,,,Some,More than half,Less than half,All,Most,Many,Few,Half,None,-0.442222222,0.037777778,1,0,0,QQQ8,,,,,,,,English ,2020-07-02_11h00.16.824,Experiment_English,3.2.4,MacIntel,60,,,1,0,340,13,1,339,ratio12_5_15_3.png,,,,,,,,,,,,
,,,,,,,,,,,,All,Some,Half,Few,Less than half,More than half,Most,Many,None,0.41,0.25,1,0,0,QQQ1,,,,,,,,English ,2020-07-02_11h00.16.824,Experiment_English,3.2.4,MacIntel,60,,,1,0,340,50,1,339,ratioX0_12_12_3.png,,,,,,,,,,,,
,,,,,,,,,,,,Less than half,Half,Some,All,Few,None,More than half,Most,Many,-0.467777778,-0.038888889,1,0,0,QQQ8,,,,,,,,English ,2020-07-02_11h00.16.824,Experiment_English,3.2.4,MacIntel,60,,,1,0,340,216,1,339,ratio31_15_20_3.png,,,,,,,,,,,,
,,,,,,,,,,,,Less than half,Many,Half,Most,Few,Some,More than half,All,None,-0.118888889,-0.022222222,1,0,0,QQQ5,,,,,,,,English ,2020-07-02_11h00.16.824,Experiment_English,3.2.4,MacIntel,60,,,1,0,340,80,1,339,ratio13_1_4_3.png,,,,,,,,,,,,
,,,,,,,,,,,,All,None,Less than half,More than half,Some,Half,Most,Few,Many,0.388888889,0.056666667,1,0,0,QQQ2,,,,,,,,English ,2020-07-02_11h00.16.824,Experiment_English,3.2.4,MacIntel,60,,,1,0,340,49,1,339,ratioX0_11_11_2.png,,,,,,,,,,,,
,,,,,,,,,,,,Less than half,All,More than half,Half,Some,Most,Few,Many,None,-0.505555556,0.266666667,1,0,0,QQQ7,,,,,,,,English ,2020-07-02_11h00.16.824,Experiment_English,3.2.4,MacIntel,60,,,1,0,340,308,1,339,ratio51_10_12_9.png,,,,,,,,,,,,
,,,,,,,,,,,,More than half,Most,Less than half,Many,Half,All,Some,None,Few,-0.364444444,0.012222222,1,0,0,QQQ8,,,,,,,,English ,2020-07-02_11h00.16.824,Experiment_English,3.2.4,MacIntel,60,,,1,0,340,111,1,339,ratio14_3_15_3.png,,,,,,,,,,,,
,,,,,,,,,,,,Most,Few,None,Some,Less than half,All,Many,Half,More than half,0.467777778,-0.236666667,1,0,0,QQQ3,,,,,,,,English ,2020-07-02_11h00.16.824,Experiment_English,3.2.4,MacIntel,60,,,1,0,340,62,1,339,ratio0Y_0_5_4.png,,,,,,,,,,,,
,,,,,,,,,,,,None,Less than half,Many,More than half,Half,All,Most,Some,Few,-0.441111111,-0.3,1,0,0,QQQ9,,,,,,,,English ,2020-07-02_11h00.16.824,Experiment_English,3.2.4,MacIntel,60,,,1,0,340,152,1,339,ratio19_2_20_6.png,,,,,,,,,,,,
,,,,,,,,,,,,Most,More than half,Less than half,Half,Many,Some,Few,All,None,0.017777778,-0.037777778,1,0,0,QQQ5,,,,,,,,English ,2020-07-02_11h00.16.824,Experiment_English,3.2.4,MacIntel,60,,,1,0,340,233,1,339,ratio32_9_15_9.png,,,,,,,,,,,,
,,,,,,,,,,,,Some,Less than half,All,Many,More than half,None,Half,Most,Few,-0.441111111,-0.264444444,1,0,0,QQQ9,,,,,,,,English ,2020-07-02_11h00.16.824,Experiment_English,3.2.4,MacIntel,60,,,1,0,340,106,1,339,ratio14_2_10_2.png,,,,,,,,,,,,
,,,,,,,,,,,,None,Many,Half,All,More than half,Less than half,Some,Few,Most,-0.397777778,0.013333333,1,0,0,QQQ8,,,,,,,,English ,2020-07-02_11h00.16.824,Experiment_English,3.2.4,MacIntel,60,,,1,0,340,250,1,339,ratio34_6_14_1.png,,,,,,,,,,,,
,,,,,,,,,,,,Many,None,Less than half,Half,More than half,Some,Few,Most,All,-0.406666667,0.268888889,1,0,0,QQQ7,,,,,,,,English ,2020-07-02_11h00.16.824,Experiment_English,3.2.4,MacIntel,60,,,1,0,340,150,1,339,ratio19_2_20_1.png,,,,,,,,,,,,
,,,,,,,,,,,,Some,None,Less than half,Most,More than half,Half,All,Few,Many,-0.407777778,-0.038888889,1,0,0,QQQ8,,,,,,,,English ,2020-07-02_11h00.16.824,Experiment_English,3.2.4,MacIntel,60,,,1,0,340,5,1,339,ratio12_2_6_9.png,,,,,,,,,,,,
,,,,,,,,,,,,Less than half,Some,Half,More than half,Few,Many,None,All,Most,0.42,-0.007777778,1,0,0,QQQ2,,,,,,,,English ,2020-07-02_11h00.16.824,Experiment_English,3.2.4,MacIntel,60,,,1,0,340,163,1,339,ratio21_4_6_1.png,,,,,,,,,,,,
,,,,,,,,,,,,Most,More than half,Few,None,Half,Less than half,Many,All,Some,-0.562222222,0.037777778,1,0,0,QQQ8,,,,,,,,English ,2020-07-02_11h00.16.824,Experiment_English,3.2.4,MacIntel,60,,,1,0,340,58,1,339,ratioX0_19_19_4.png,,,,,,,,,,,,
,,,,,,,,,,,,Some,Half,Most,Few,None,Many,More than half,Less than half,All,-0.133333333,-0.046666667,1,0,0,QQQ5,,,,,,,,English ,2020-07-02_11h00.16.824,Experiment_English,3.2.4,MacIntel,60,,,1,0,340,227,1,339,ratio32_6_10_6.png,,,,,,,,,,,,
,,,,,,,,,,,,Few,Some,More than half,All,Half,Many,Most,None,Less than half,-0.117777778,0.072222222,1,0,0,QQQ5,,,,,,,,English ,2020-07-02_11h00.16.824,Experiment_English,3.2.4,MacIntel,60,,,1,0,340,11,1,339,ratio12_4_12_7.png,,,,,,,,,,,,
,,,,,,,,,,,,Half,Few,Most,All,Some,Less than half,More than half,Many,None,0.452222222,0.318888889,1,0,0,QQQ1,,,,,,,,English ,2020-07-02_11h00.16.824,Experiment_English,3.2.4,MacIntel,60,,,1,0,340,190,1,339,ratio23_6_15_3.png,,,,,,,,,,,,
,,,,,,,,,,,,None,Some,Most,More than half,Less than half,All,Few,Half,Many,-0.46,0.248888889,1,0,0,QQQ7,,,,,,,,English ,2020-07-02_11h00.16.824,Experiment_English,3.2.4,MacIntel,60,,,1,0,340,129,1,339,ratio15_2_12_9.png,,,,,,,,,,,,
,,,,,,,,,,,,Some,Less than half,None,Few,Half,More than half,All,Many,Most,-0.524444444,-0.244444444,1,0,0,QQQ9,,,,,,,,English ,2020-07-02_11h00.16.824,Experiment_English,3.2.4,MacIntel,60,,,1,0,340,307,1,339,ratio51_10_12_1.png,0.225555556,-0.393333333,1,0,0,continue_button_pause,1,0,1,0,1,0
,,,,,,,,,,,,,,,,,,,,,,,,,,,,,,,,,,English ,2020-07-02_11h00.16.824,Experiment_English,3.2.4,MacIntel,60,,,1,0,340,307,1,339,ratio51_10_12_1.png,,,,,,,,,,,,
,,,,,,,,,,,,Few,Less than half,Many,More than half,Half,Some,None,Most,All,-0.015555556,-0.012222222,1,0,0,QQQ5,,,,,,,,English ,2020-07-02_11h00.16.824,Experiment_English,3.2.4,MacIntel,60,,,1,0,340,23,1,339,ratio11_3_6_9.png,,,,,,,,,,,,
,,,,,,,,,,,,None,Few,Half,Some,Less than half,More than half,Most,Many,All,0.444444444,0.225555556,1,0,0,QQQ1,,,,,,,,English ,2020-07-02_11h00.16.824,Experiment_English,3.2.4,MacIntel,60,,,1,0,340,98,1,339,ratio13_5_20_3.png,,,,,,,,,,,,
,,,,,,,,,,,,All,Some,More than half,Few,Less than half,Many,Most,None,Half,-0.441111111,0.225555556,1,0,0,QQQ7,,,,,,,,English ,2020-07-02_11h00.16.824,Experiment_English,3.2.4,MacIntel,60,,,1,0,340,274,1,339,ratio41_12_15_9.png,,,,,,,,,,,,
,,,,,,,,,,,,Most,None,Less than half,Many,Few,Some,All,Half,More than half,0.484444444,0.012222222,1,0,0,QQQ2,,,,,,,,English ,2020-07-02_11h00.16.824,Experiment_English,3.2.4,MacIntel,60,,,1,0,340,17,1,339,ratio12_6_18_5.png,,,,,,,,,,,,
,,,,,,,,,,,,Half,Less than half,Few,None,Most,More than half,Some,All,Many,0.37,-0.24,1,0,0,QQQ3,,,,,,,,English ,2020-07-02_11h00.16.824,Experiment_English,3.2.4,MacIntel,60,,,1,0,340,120,1,339,ratio15_1_6_1.png,,,,,,,,,,,,
,,,,,,,,,,,,Half,Few,Many,Most,All,More than half,None,Less than half,Some,0.358888889,-0.242222222,1,0,0,QQQ3,,,,,,,,English ,2020-07-02_11h00.16.824,Experiment_English,3.2.4,MacIntel,60,,,1,0,340,225,1,339,ratio32_6_10_4.png,,,,,,,,,,,,
,,,,,,,,,,,,Most,Many,None,Few,Less than half,Some,More than half,Half,All,-0.481111111,0.025555556,1,0,0,QQQ8,,,,,,,,English ,2020-07-02_11h00.16.824,Experiment_English,3.2.4,MacIntel,60,,,1,0,340,25,1,339,ratio11_4_8_10.png,,,,,,,,,,,,
,,,,,,,,,,,,More than half,None,Some,Less than half,Few,All,Many,Most,Half,-0.481111111,0.025555556,1,0,0,QQQ8,,,,,,,,English ,2020-07-02_11h00.16.824,Experiment_English,3.2.4,MacIntel,60,,,1,0,340,238,1,339,ratio32_12_20_9.png,,,,,,,,,,,,
,,,,,,,,,,,,Some,More than half,Less than half,Most,Half,Many,All,Few,None,0.148888889,0.302222222,1,0,0,QQQ4,,,,,,,,English ,2020-07-02_11h00.16.824,Experiment_English,3.2.4,MacIntel,60,,,1,0,340,206,1,339,ratio31_6_8_6.png,,,,,,,,,,,,
,,,,,,,,,,,,More than half,None,Some,All,Many,Half,Most,Less than half,Few,-0.424444444,-0.036666667,1,0,0,QQQ8,,,,,,,,English ,2020-07-02_11h00.16.824,Experiment_English,3.2.4,MacIntel,60,,,1,0,340,14,1,339,ratio12_5_15_4.png,,,,,,,,,,,,
,,,,,,,,,,,,Few,Less than half,More than half,None,All,Many,Some,Half,Most,0.065555556,0.017777778,1,0,0,QQQ5,,,,,,,,English ,2020-07-02_11h00.16.824,Experiment_English,3.2.4,MacIntel,60,,,1,0,340,54,1,339,ratioX0_15_15_5.png,,,,,,,,,,,,
,,,,,,,,,,,,None,Some,Many,Few,Less than half,Most,All,Half,More than half,0.007777778,0.284444444,1,0,0,QQQ4,,,,,,,,English ,2020-07-02_11h00.16.824,Experiment_English,3.2.4,MacIntel,60,,,1,0,340,184,1,339,ratio23_2_5_10.png,,,,,,,,,,,,
,,,,,,,,,,,,Few,Some,Half,More than half,None,All,Most,Many,Less than half,-0.368888889,0.214444444,1,0,0,QQQ7,,,,,,,,English ,2020-07-02_11h00.16.824,Experiment_English,3.2.4,MacIntel,60,,,1,0,340,315,1,339,ratio51_15_18_10.png,,,,,,,,,,,,
,,,,,,,,,,,,Half,Some,Few,Most,All,More than half,None,Less than half,Many,-0.447777778,-0.312222222,1,0,0,QQQ9,,,,,,,,English ,2020-07-02_11h00.16.824,Experiment_English,3.2.4,MacIntel,60,,,1,0,340,37,1,339,ratio11_9_18_8.png,,,,,,,,,,,,
,,,,,,,,,,,,Less than half,None,Some,All,Few,Half,Many,More than half,Most,-0.52,-0.233333333,1,0,0,QQQ9,,,,,,,,English ,2020-07-02_11h00.16.824,Experiment_English,3.2.4,MacIntel,60,,,1,0,340,318,1,339,ratio51_15_18_18.png,,,,,,,,,,,,
,,,,,,,,,,,,All,Some,Most,Many,None,Few,More than half,Half,Less than half,0.363333333,-0.273333333,1,0,0,QQQ3,,,,,,,,English ,2020-07-02_11h00.16.824,Experiment_English,3.2.4,MacIntel,60,,,1,0,340,310,1,339,ratio51_10_12_12.png,,,,,,,,,,,,
,,,,,,,,,,,,Few,None,Less than half,Most,All,Many,Some,Half,More than half,0.12,0.315555556,1,0,0,QQQ4,,,,,,,,English ,2020-07-02_11h00.16.824,Experiment_English,3.2.4,MacIntel,60,,,1,0,340,271,1,339,ratio41_12_15_6.png,,,,,,,,,,,,
,,,,,,,,,,,,Most,Half,Few,Some,More than half,Many,Less than half,None,All,0.393333333,-0.361111111,1,0,0,QQQ3,,,,,,,,English ,2020-07-02_11h00.16.824,Experiment_English,3.2.4,MacIntel,60,,,1,0,340,108,1,339,ratio14_2_10_6.png,,,,,,,,,,,,
,,,,,,,,,,,,Less than half,All,Few,Most,None,Many,Some,Half,More than half,0.508888889,0.242222222,1,0,0,QQQ1,,,,,,,,English ,2020-07-02_11h00.16.824,Experiment_English,3.2.4,MacIntel,60,,,1,0,340,243,1,339,ratio34_3_7_8.png,,,,,,,,,,,,
,,,,,,,,,,,,None,Many,More than half,Some,Most,All,Few,Half,Less than half,0.547777778,0.302222222,1,0,0,QQQ1,,,,,,,,English ,2020-07-02_11h00.16.824,Experiment_English,3.2.4,MacIntel,60,,,1,0,340,63,1,339,ratio0Y_0_6_8.png,,,,,,,,,,,,
,,,,,,,,,,,,Some,Less than half,Many,Most,Half,None,All,More than half,Few,-0.444444444,-0.275555556,1,0,0,QQQ9,,,,,,,,English ,2020-07-02_11h00.16.824,Experiment_English,3.2.4,MacIntel,60,,,1,0,340,105,1,339,ratio14_2_10_1.png,,,,,,,,,,,,
,,,,,,,,,,,,Some,Few,None,Most,Less than half,Many,Half,More than half,All,-0.471111111,0.29,1,0,0,QQQ7,,,,,,,,English ,2020-07-02_11h00.16.824,Experiment_English,3.2.4,MacIntel,60,,,1,0,340,222,1,339,ratio32_3_5_4.png,,,,,,,,,,,,
,,,,,,,,,,,,Some,Most,Less than half,More than half,Half,Many,None,All,Few,0.466666667,-0.285555556,1,0,0,QQQ3,,,,,,,,English ,2020-07-02_11h00.16.824,Experiment_English,3.2.4,MacIntel,60,,,1,0,340,92,1,339,ratio13_4_16_3.png,,,,,,,,,,,,
,,,,,,,,,,,,Few,Most,Half,None,All,Less than half,Some,Many,More than half,0.381111111,0.011111111,1,0,0,QQQ2,,,,,,,,English ,2020-07-02_11h00.16.824,Experiment_English,3.2.4,MacIntel,60,,,1,0,340,267,1,339,ratio41_8_10_4.png,,,,,,,,,,,,
,,,,,,,,,,,,Many,More than half,None,Few,Some,Most,All,Half,Less than half,0.014444444,-0.265555556,1,0,0,QQQ6,,,,,,,,English ,2020-07-02_11h00.16.824,Experiment_English,3.2.4,MacIntel,60,,,1,0,340,297,1,339,ratio43_8_14_13.png,,,,,,,,,,,,
,,,,,,,,,,,,More than half,Few,All,Many,Some,Most,Less than half,Half,None,0.43,-0.023333333,1,0,0,QQQ2,,,,,,,,English ,2020-07-02_11h00.16.824,Experiment_English,3.2.4,MacIntel,60,,,1,0,340,148,1,339,ratio19_1_10_19.png,,,,,,,,,,,,
,,,,,,,,,,,,None,Most,More than half,All,Few,Many,Half,Less than half,Some,-0.107777778,-0.018888889,1,0,0,QQQ5,,,,,,,,English ,2020-07-02_11h00.16.824,Experiment_English,3.2.4,MacIntel,60,,,1,0,340,248,1,339,ratio34_3_7_19.png,,,,,,,,,,,,
,,,,,,,,,,,,All,Few,Some,None,Many,Most,Half,More than half,Less than half,-0.107777778,-0.018888889,1,0,0,QQQ5,,,,,,,,English ,2020-07-02_11h00.16.824,Experiment_English,3.2.4,MacIntel,60,,,1,0,340,19,1,339,ratio12_6_18_9.png,,,,,,,,,,,,
,,,,,,,,,,,,Few,None,Many,Some,Less than half,Most,All,Half,More than half,-0.073333333,-0.208888889,1,0,0,QQQ6,,,,,,,,English ,2020-07-02_11h00.16.824,Experiment_English,3.2.4,MacIntel,60,,,1,0,340,261,1,339,ratio41_4_5_3.png,,,,,,,,,,,,
,,,,,,,,,,,,More than half,None,Few,Most,Less than half,Some,All,Half,Many,-0.507777778,0.324444444,1,0,0,QQQ7,,,,,,,,English ,2020-07-02_11h00.16.824,Experiment_English,3.2.4,MacIntel,60,,,1,0,340,52,1,339,ratioX0_13_13_10.png,,,,,,,,,,,,
,,,,,,,,,,,,All,Many,Some,None,Less than half,More than half,Half,Most,Few,-0.514444444,-0.032222222,1,0,0,QQQ8,,,,,,,,English ,2020-07-02_11h00.16.824,Experiment_English,3.2.4,MacIntel,60,,,1,0,340,224,1,339,ratio32_3_5_10.png,,,,,,,,,,,,
,,,,,,,,,,,,Most,Less than half,Few,Many,None,All,Some,Half,More than half,0.376666667,0.302222222,1,0,0,QQQ1,,,,,,,,English ,2020-07-02_11h00.16.824,Experiment_English,3.2.4,MacIntel,60,,,1,0,340,334,1,339,ratio91_18_20_9.png,,,,,,,,,,,,
,,,,,,,,,,,,Half,Few,Most,Some,Less than half,Many,More than half,None,All,-0.42,0.265555556,1,0,0,QQQ7,,,,,,,,English ,2020-07-02_11h00.16.824,Experiment_English,3.2.4,MacIntel,60,,,1,0,340,223,1,339,ratio32_3_5_5.png,,,,,,,,,,,,
,,,,,,,,,,,,More than half,All,Most,Half,Some,None,Less than half,Few,Many,0,-0.028888889,1,0,0,QQQ5,,,,,,,,English ,2020-07-02_11h00.16.824,Experiment_English,3.2.4,MacIntel,60,,,1,0,340,158,1,339,ratio19_2_20_17.png,0.294444444,-0.384444444,1,0,0,continue_button_pause,1,0,1,0,1,0
,,,,,,,,,,,,,,,,,,,,,,,,,,,,,,,,,,English ,2020-07-02_11h00.16.824,Experiment_English,3.2.4,MacIntel,60,,,1,0,340,158,1,339,ratio19_2_20_17.png,,,,,,,,,,,,
,,,,,,,,,,,,None,Half,Many,More than half,Some,Most,Few,Less than half,All,0.066666667,-0.047777778,1,0,0,QQQ5,,,,,,,,English ,2020-07-02_11h00.16.824,Experiment_English,3.2.4,MacIntel,60,,,1,0,340,234,1,339,ratio32_9_15_10.png,,,,,,,,,,,,
,,,,,,,,,,,,Many,None,All,Less than half,More than half,Some,Few,Most,Half,0.38,-0.015555556,1,0,0,QQQ2,,,,,,,,English ,2020-07-02_11h00.16.824,Experiment_English,3.2.4,MacIntel,60,,,1,0,340,3,1,339,ratio12_2_6_3.png,,,,,,,,,,,,
,,,,,,,,,,,,None,Many,Few,All,More than half,Most,Some,Less than half,Half,-0.055555556,0.001111111,1,0,0,QQQ5,,,,,,,,English ,2020-07-02_11h00.16.824,Experiment_English,3.2.4,MacIntel,60,,,1,0,340,136,1,339,ratio15_3_18_8.png,,,,,,,,,,,,
,,,,,,,,,,,,All,More than half,Few,Many,Most,None,Half,Some,Less than half,-0.427777778,-0.021111111,1,0,0,QQQ8,,,,,,,,English ,2020-07-02_11h00.16.824,Experiment_English,3.2.4,MacIntel,60,,,1,0,340,122,1,339,ratio15_1_6_7.png,,,,,,,,,,,,
,,,,,,,,,,,,All,Many,Few,Less than half,More than half,Some,None,Most,Half,0.094444444,-0.344444444,1,0,0,QQQ6,,,,,,,,English ,2020-07-02_11h00.16.824,Experiment_English,3.2.4,MacIntel,60,,,1,0,340,314,1,339,ratio51_15_18_4.png,,,,,,,,,,,,
,,,,,,,,,,,,More than half,Less than half,None,Most,Few,Some,Half,Many,All,0.08,-0.053333333,1,0,0,QQQ5,,,,,,,,English ,2020-07-02_11h00.16.824,Experiment_English,3.2.4,MacIntel,60,,,1,0,340,149,1,339,ratio19_1_10_20.png,,,,,,,,,,,,
,,,,,,,,,,,,Few,None,All,More than half,Most,Many,Half,Less than half,Some,0.078888889,-0.051111111,1,0,0,QQQ5,,,,,,,,English ,2020-07-02_11h00.16.824,Experiment_English,3.2.4,MacIntel,60,,,1,0,340,34,1,339,ratio11_8_16_8.png,,,,,,,,,,,,
,,,,,,,,,,,,Some,Half,None,Few,More than half,All,Less than half,Many,Most,0.002222222,0.242222222,1,0,0,QQQ4,,,,,,,,English ,2020-07-02_11h00.16.824,Experiment_English,3.2.4,MacIntel,60,,,1,0,340,85,1,339,ratio13_2_8_5.png,,,,,,,,,,,,
,,,,,,,,,,,,All,Many,Some,Less than half,Few,None,More than half,Half,Most,0.084444444,-0.285555556,1,0,0,QQQ6,,,,,,,,English ,2020-07-02_11h00.16.824,Experiment_English,3.2.4,MacIntel,60,,,1,0,340,69,1,339,ratio0Y_0_11_6.png,,,,,,,,,,,,
,,,,,,,,,,,,Some,Few,More than half,Half,Many,Most,Less than half,None,All,0,-0.066666667,1,0,0,QQQ5,,,,,,,,English ,2020-07-02_11h00.16.824,Experiment_English,3.2.4,MacIntel,60,,,1,0,340,285,1,339,ratio43_4_7_14.png,,,,,,,,,,,,
,,,,,,,,,,,,Many,None,Some,Less than half,All,More than half,Few,Half,Most,0.065555556,-0.018888889,1,0,0,QQQ5,,,,,,,,English ,2020-07-02_11h00.16.824,Experiment_English,3.2.4,MacIntel,60,,,1,0,340,47,1,339,ratioX0_9_9_4.png,,,,,,,,,,,,
,,,,,,,,,,,,Few,Less than half,None,Half,All,More than half,Some,Most,Many,-0.397777778,-0.288888889,1,0,0,QQQ9,,,,,,,,English ,2020-07-02_11h00.16.824,Experiment_English,3.2.4,MacIntel,60,,,1,0,340,325,1,339,ratio91_9_10_8.png,,,,,,,,,,,,
,,,,,,,,,,,,Many,Half,Some,More than half,Most,None,Less than half,Few,All,-0.473333333,-0.02,1,0,0,QQQ8,,,,,,,,English ,2020-07-02_11h00.16.824,Experiment_English,3.2.4,MacIntel,60,,,1,0,340,199,1,339,ratio23_8_20_8.png,,,,,,,,,,,,
,,,,,,,,,,,,Some,Half,None,Less than half,All,Most,Many,Few,More than half,-0.473333333,-0.02,1,0,0,QQQ8,,,,,,,,English ,2020-07-02_11h00.16.824,Experiment_English,3.2.4,MacIntel,60,,,1,0,340,107,1,339,ratio14_2_10_5.png,,,,,,,,,,,,
,,,,,,,,,,,,Half,None,Some,Most,More than half,All,Many,Less than half,Few,-0.487777778,-0.007777778,1,0,0,QQQ8,,,,,,,,English ,2020-07-02_11h00.16.824,Experiment_English,3.2.4,MacIntel,60,,,1,0,340,221,1,339,ratio32_3_5_3.png,,,,,,,,,,,,
,,,,,,,,,,,,Most,Few,Many,Half,More than half,None,Some,All,Less than half,-0.388888889,-0.013333333,1,0,0,QQQ8,,,,,,,,English ,2020-07-02_11h00.16.824,Experiment_English,3.2.4,MacIntel,60,,,1,0,340,260,1,339,ratio41_4_5_2.png,,,,,,,,,,,,
,,,,,,,,,,,,Less than half,More than half,None,Half,Many,All,Most,Few,Some,-0.418888889,0.007777778,1,0,0,QQQ8,,,,,,,,English ,2020-07-02_11h00.16.824,Experiment_English,3.2.4,MacIntel,60,,,1,0,340,203,1,339,ratio31_3_4_9.png,,,,,,,,,,,,
,,,,,,,,,,,,More than half,All,Few,Most,Some,Half,None,Many,Less than half,-0.421111111,0.008888889,1,0,0,QQQ8,,,,,,,,English ,2020-07-02_11h00.16.824,Experiment_English,3.2.4,MacIntel,60,,,1,0,340,173,1,339,ratio21_8_12_9.png,,,,,,,,,,,,
,,,,,,,,,,,,Some,Few,All,None,Less than half,More than half,Many,Most,Half,-0.001111111,-0.001111111,1,0,0,QQQ5,,,,,,,,English ,2020-07-02_11h00.16.824,Experiment_English,3.2.4,MacIntel,60,,,1,0,340,135,1,339,ratio15_3_18_7.png,,,,,,,,,,,,
,,,,,,,,,,,,Most,Some,More than half,Less than half,None,Few,Many,All,Half,0.531111111,0.257777778,1,0,0,QQQ1,,,,,,,,English ,2020-07-02_11h00.16.824,Experiment_English,3.2.4,MacIntel,60,,,1,0,340,264,1,339,ratio41_4_5_6.png,,,,,,,,,,,,
,,,,,,,,,,,,None,Half,Less than half,More than half,Some,Most,All,Few,Many,-0.388888889,0.345555556,1,0,0,QQQ7,,,,,,,,English ,2020-07-02_11h00.16.824,Experiment_English,3.2.4,MacIntel,60,,,1,0,340,59,1,339,ratioX0_20_20_9.png,,,,,,,,,,,,
,,,,,,,,,,,,Less than half,Many,More than half,All,Few,None,Half,Some,Most,0.058888889,0.318888889,1,0,0,QQQ4,,,,,,,,English ,2020-07-02_11h00.16.824,Experiment_English,3.2.4,MacIntel,60,,,1,0,340,121,1,339,ratio15_1_6_4.png,,,,,,,,,,,,
,,,,,,,,,,,,Many,Few,More than half,Some,Half,None,All,Most,Less than half,-0.531111111,0.066666667,1,0,0,QQQ8,,,,,,,,English ,2020-07-02_11h00.16.824,Experiment_English,3.2.4,MacIntel,60,,,1,0,340,138,1,339,ratio15_3_18_17.png,,,,,,,,,,,,
,,,,,,,,,,,,All,Half,Most,Many,Some,More than half,Less than half,None,Few,0.473333333,0.212222222,1,0,0,QQQ1,,,,,,,,English ,2020-07-02_11h00.16.824,Experiment_English,3.2.4,MacIntel,60,,,1,0,340,40,1,339,ratioX0_3_3_5.png,,,,,,,,,,,,
,,,,,,,,,,,,None,All,Some,Less than half,Few,Most,Many,More than half,Half,0.002222222,-0.031111111,1,0,0,QQQ5,,,,,,,,English ,2020-07-02_11h00.16.824,Experiment_English,3.2.4,MacIntel,60,,,1,0,340,94,1,339,ratio13_4_16_8.png,,,,,,,,,,,,
,,,,,,,,,,,,Few,None,Most,All,Half,Many,More than half,Some,Less than half,0.486666667,-0.236666667,1,0,0,QQQ3,,,,,,,,English ,2020-07-02_11h00.16.824,Experiment_English,3.2.4,MacIntel,60,,,1,0,340,263,1,339,ratio41_4_5_5.png,,,,,,,,,,,,
,,,,,,,,,,,,Half,Many,More than half,Most,Some,Less than half,None,Few,All,0.024444444,0.251111111,1,0,0,QQQ4,,,,,,,,English ,2020-07-02_11h00.16.824,Experiment_English,3.2.4,MacIntel,60,,,1,0,340,97,1,339,ratio13_5_20_2.png,,,,,,,,,,,,
,,,,,,,,,,,,Few,All,Most,Less than half,None,Many,Half,More than half,Some,0.055555556,-0.258888889,1,0,0,QQQ6,,,,,,,,English ,2020-07-02_11h00.16.824,Experiment_English,3.2.4,MacIntel,60,,,1,0,340,175,1,339,ratio21_10_15_2.png,,,,,,,,,,,,
,,,,,,,,,,,,Many,Half,None,Few,Most,All,More than half,Some,Less than half,-0.045555556,0.36,1,0,0,QQQ4,,,,,,,,English ,2020-07-02_11h00.16.824,Experiment_English,3.2.4,MacIntel,60,,,1,0,340,137,1,339,ratio15_3_18_16.png,,,,,,,,,,,,
,,,,,,,,,,,,Some,Most,All,Less than half,None,Half,More than half,Few,Many,-0.464444444,-0.076666667,1,0,0,QQQ8,,,,,,,,English ,2020-07-02_11h00.16.824,Experiment_English,3.2.4,MacIntel,60,,,1,0,340,18,1,339,ratio12_6_18_7.png,,,,,,,,,,,,
,,,,,,,,,,,,Many,Few,More than half,Some,Less than half,Most,Half,All,None,0.526666667,0.04,1,0,0,QQQ2,,,,,,,,English ,2020-07-02_11h00.16.824,Experiment_English,3.2.4,MacIntel,60,,,1,0,340,101,1,339,ratio14_1_5_7.png,,,,,,,,,,,,
,,,,,,,,,,,,Less than half,Half,Most,Few,More than half,All,Some,Many,None,0.513333333,-0.241111111,1,0,0,QQQ3,,,,,,,,English ,2020-07-02_11h00.16.824,Experiment_English,3.2.4,MacIntel,60,,,1,0,340,215,1,339,ratio31_12_16_8.png,,,,,,,,,,,,
,,,,,,,,,,,,Most,Half,Few,Many,Some,Less than half,More than half,None,All,0.473333333,0.027777778,1,0,0,QQQ2,,,,,,,,English ,2020-07-02_11h00.16.824,Experiment_English,3.2.4,MacIntel,60,,,1,0,340,29,1,339,ratio11_6_12_1.png,,,,,,,,,,,,
,,,,,,,,,,,,Some,More than half,Most,Less than half,Few,All,Half,Many,None,0.006666667,-0.028888889,1,0,0,QQQ5,,,,,,,,English ,2020-07-02_11h00.16.824,Experiment_English,3.2.4,MacIntel,60,,,1,0,340,276,1,339,ratio41_16_20_4.png,,,,,,,,,,,,
