continue_mouse.x,continue_mouse.y,continue_mouse.leftButton,continue_mouse.midButton,continue_mouse.rightButton,continue_mouse.clicked_name,continue_mouse_2.x,continue_mouse_2.y,continue_mouse_2.leftButton,continue_mouse_2.midButton,continue_mouse_2.rightButton,continue_mouse_2.clicked_name,Q1,Q2,Q3,Q4,Q5,Q6,Q7,Q8,Q9,select_answer.x,select_answer.y,select_answer.leftButton,select_answer.midButton,select_answer.rightButton,select_answer.clicked_name,trial.thisRepN,trial.thisTrialN,trial.thisN,trial.thisIndex,trial.ran,trial.order,trials,Native tongue*,date,expName,psychopyVersion,OS,frameRate,key_resp.keys,key_resp.rt,trial_2.thisRepN,trial_2.thisTrialN,trial_2.thisN,trial_2.thisIndex,trial_2.ran,trial_2.order,continue_mouse_3.x,continue_mouse_3.y,continue_mouse_3.leftButton,continue_mouse_3.midButton,continue_mouse_3.rightButton,continue_mouse_3.clicked_name,insts.thisRepN,insts.thisTrialN,insts.thisN,insts.thisIndex,insts.ran,insts.order,Actual_Experiment.thisRepN,Actual_Experiment.thisTrialN,Actual_Experiment.thisN,Actual_Experiment.thisIndex,Actual_Experiment.ran,Actual_Experiment.order,Pic,mouse_pause.x,mouse_pause.y,mouse_pause.leftButton,mouse_pause.midButton,mouse_pause.rightButton,mouse_pause.clicked_name,pause.thisRepN,pause.thisTrialN,pause.thisN,pause.thisIndex,pause.ran,pause.order
0.299537072,-0.427314842,1,0,0,continue_button,0.383333371,-0.42222225,1,0,0,continue_button_2,All,Many,None,Less than half,Half,More than half,Most,Few,Some,0.039814842,-0.005092608,1,0,0,QQQ5,1,0,16,15,1,15,ratio0Y_0_14_10.png,English,2020-07-02_11h01.17.787,Experiment_English,3.2.4,Win32,60,,,,,,,,,,,,,,,,,,,,,,,,,,,,,,,,,,,,,,,
,,,,,,,,,,,,Most,None,Few,Some,Half,Many,More than half,All,Less than half,0.057407492,-0.039814831,1,0,0,QQQ5,1,0,16,8,1,15,ratio21_12_18_3.png,English,2020-07-02_11h01.17.787,Experiment_English,3.2.4,Win32,60,,,,,,,,,,,,,,,,,,,,,,,,,,,,,,,,,,,,,,,
,,,,,,,,,,,,More than half,Most,Few,None,Less than half,All,Half,Some,Many,0.081018547,-0.038888905,1,0,0,QQQ5,1,0,16,4,1,15,ratio34_3_7_3.png,English,2020-07-02_11h01.17.787,Experiment_English,3.2.4,Win32,60,,,,,,,,,,,,,,,,,,,,,,,,,,,,,,,,,,,,,,,
,,,,,,,,,,,,Many,Few,None,Half,Less than half,All,Most,More than half,Some,-0.422685143,0.006018504,1,0,0,QQQ8,1,0,16,0,1,15,ratio91_9_10_19.png,English,2020-07-02_11h01.17.787,Experiment_English,3.2.4,Win32,60,,,,,,,,,,,,,,,,,,,,,,,,,,,,,,,,,,,,,,,
,,,,,,,,,,,,Few,Many,Less than half,Some,Most,More than half,All,None,Half,0.041203731,-0.066666684,1,0,0,QQQ5,1,0,16,1,1,15,ratio51_5_6_8.png,English,2020-07-02_11h01.17.787,Experiment_English,3.2.4,Win32,60,,,,,,,,,,,,,,,,,,,,,,,,,,,,,,,,,,,,,,,
,,,,,,,,,,,,More than half,Few,Some,Less than half,None,Many,Most,All,Half,-0.049999975,0.262499993,1,0,0,QQQ4,,,,,,,ratio13_3_12_3.png,English,2020-07-02_11h01.17.787,Experiment_English,3.2.4,Win32,60,a,10.72799993,1,0,16,12,1,15,,,,,,,,,,,,,,,,,,,,,,,,,,,,,,,
,,,,,,,,,,,,Few,Some,None,Less than half,More than half,All,Most,Half,Many,-0.462037024,0.275925905,1,0,0,QQQ7,,,,,,,ratio91_9_10_19.png,English,2020-07-02_11h01.17.787,Experiment_English,3.2.4,Win32,60,,,1,0,16,0,1,15,,,,,,,,,,,,,,,,,,,,,,,,,,,,,,,
,,,,,,,,,,,,Half,Some,None,Less than half,Many,Few,All,Most,More than half,0.000463046,-0.074537054,1,0,0,QQQ5,,,,,,,ratio23_2_5_8.png,English,2020-07-02_11h01.17.787,Experiment_English,3.2.4,Win32,60,,,1,0,16,7,1,15,,,,,,,,,,,,,,,,,,,,,,,,,,,,,,,
,,,,,,,,,,,,All,None,Less than half,Most,More than half,Few,Half,Many,Some,0.51527782,0.019907393,1,0,0,QQQ2,,,,,,,ratio0Y_0_14_10.png,English,2020-07-02_11h01.17.787,Experiment_English,3.2.4,Win32,60,,,1,0,16,15,1,15,,,,,,,,,,,,,,,,,,,,,,,,,,,,,,,
,,,,,,,,,,,,Less than half,Half,All,Few,Most,None,Some,Many,More than half,-0.468981469,-0.290277801,1,0,0,QQQ9,,,,,,,ratio11_5_10_6.png,English,2020-07-02_11h01.17.787,Experiment_English,3.2.4,Win32,60,,,1,0,16,14,1,15,,,,,,,,,,,,,,,,,,,,,,,,,,,,,,,
,,,,,,,,,,,,,,,,,,,,,,,,,,,,,,,,,,English,2020-07-02_11h01.17.787,Experiment_English,3.2.4,Win32,60,,,,,,,,,0.275925961,-0.402777805,1,0,0,continue_button_3,1,0,1,0,1,0,,,,,,,,,,,,,,,,,,,
,,,,,,,,,,,,Some,Many,More than half,None,Few,Half,All,Less than half,Most,-0.54074073,0.372222218,1,0,0,QQQ7,,,,,,,,English,2020-07-02_11h01.17.787,Experiment_English,3.2.4,Win32,60,,,,,,,,,,,,,,,,,,,,,1,0,340,40,1,339,ratioX0_3_3_5.png,,,,,,,,,,,,
,,,,,,,,,,,,Half,Some,None,Many,Few,Less than half,Most,All,More than half,0.493981523,-0.021296312,1,0,0,QQQ2,,,,,,,,English,2020-07-02_11h01.17.787,Experiment_English,3.2.4,Win32,60,,,,,,,,,,,,,,,,,,,,,1,0,340,80,1,339,ratio13_1_4_3.png,,,,,,,,,,,,
,,,,,,,,,,,,Most,Few,Some,Many,More than half,All,Half,None,Less than half,0.606018563,0.281481461,1,0,0,QQQ1,,,,,,,,English,2020-07-02_11h01.17.787,Experiment_English,3.2.4,Win32,60,,,,,,,,,,,,,,,,,,,,,1,0,340,322,1,339,ratio91_9_10_3.png,,,,,,,,,,,,
,,,,,,,,,,,,None,Less than half,Half,Some,All,Most,Many,Few,More than half,-0.513888878,-0.314351933,1,0,0,QQQ9,,,,,,,,English,2020-07-02_11h01.17.787,Experiment_English,3.2.4,Win32,60,,,,,,,,,,,,,,,,,,,,,1,0,340,312,1,339,ratio51_10_12_16.png,,,,,,,,,,,,
,,,,,,,,,,,,Some,Many,Half,More than half,Few,Most,Less than half,All,None,0.031481509,-0.022685201,1,0,0,QQQ5,,,,,,,,English,2020-07-02_11h01.17.787,Experiment_English,3.2.4,Win32,60,,,,,,,,,,,,,,,,,,,,,1,0,340,158,1,339,ratio19_2_20_17.png,,,,,,,,,,,,
,,,,,,,,,,,,Many,Less than half,Few,Some,More than half,All,Most,None,Half,0.494444486,-0.356018601,1,0,0,QQQ3,,,,,,,,English,2020-07-02_11h01.17.787,Experiment_English,3.2.4,Win32,60,,,,,,,,,,,,,,,,,,,,,1,0,340,88,1,339,ratio13_3_12_5.png,,,,,,,,,,,,
,,,,,,,,,,,,Less than half,Most,Half,All,Many,None,More than half,Few,Some,-0.457407366,-0.047222239,1,0,0,QQQ8,,,,,,,,English,2020-07-02_11h01.17.787,Experiment_English,3.2.4,Win32,60,,,,,,,,,,,,,,,,,,,,,1,0,340,84,1,339,ratio13_2_8_1.png,,,,,,,,,,,,
,,,,,,,,,,,,Half,Many,All,Some,More than half,Most,Few,Less than half,None,0.365277815,0.000925911,1,0,0,QQQ2,,,,,,,,English,2020-07-02_11h01.17.787,Experiment_English,3.2.4,Win32,60,,,,,,,,,,,,,,,,,,,,,1,0,340,331,1,339,ratio91_18_20_3.png,,,,,,,,,,,,
,,,,,,,,,,,,Few,Some,Many,All,None,Half,Most,More than half,Less than half,-0.546296286,0.331481476,1,0,0,QQQ7,,,,,,,,English,2020-07-02_11h01.17.787,Experiment_English,3.2.4,Win32,60,,,,,,,,,,,,,,,,,,,,,1,0,340,275,1,339,ratio41_16_20_2.png,,,,,,,,,,,,
,,,,,,,,,,,,Some,Most,Few,More than half,Many,Half,All,Less than half,None,-0.426388875,-0.295833357,1,0,0,QQQ9,,,,,,,,English,2020-07-02_11h01.17.787,Experiment_English,3.2.4,Win32,60,,,,,,,,,,,,,,,,,,,,,1,0,340,61,1,339,ratio0Y_0_4_7.png,,,,,,,,,,,,
,,,,,,,,,,,,Few,Less than half,More than half,Many,Most,Half,All,None,Some,0.473611152,-0.320370395,1,0,0,QQQ3,,,,,,,,English,2020-07-02_11h01.17.787,Experiment_English,3.2.4,Win32,60,,,,,,,,,,,,,,,,,,,,,1,0,340,330,1,339,ratio91_18_20_2.png,,,,,,,,,,,,
,,,,,,,,,,,,More than half,Many,Half,Some,Most,None,Few,Less than half,All,-0.012962937,0.23564814,1,0,0,QQQ4,,,,,,,,English,2020-07-02_11h01.17.787,Experiment_English,3.2.4,Win32,60,,,,,,,,,,,,,,,,,,,,,1,0,340,1,1,339,ratio12_1_3_7.png,,,,,,,,,,,,
,,,,,,,,,,,,Most,Many,All,None,Few,More than half,Some,Less than half,Half,0.512037079,-0.039351868,1,0,0,QQQ2,,,,,,,,English,2020-07-02_11h01.17.787,Experiment_English,3.2.4,Win32,60,,,,,,,,,,,,,,,,,,,,,1,0,340,311,1,339,ratio51_10_12_14.png,,,,,,,,,,,,
,,,,,,,,,,,,Half,Many,None,Most,Some,Less than half,More than half,All,Few,-0.362499984,-0.325463044,1,0,0,QQQ9,,,,,,,,English,2020-07-02_11h01.17.787,Experiment_English,3.2.4,Win32,60,,,,,,,,,,,,,,,,,,,,,1,0,340,108,1,339,ratio14_2_10_6.png,,,,,,,,,,,,
,,,,,,,,,,,,None,Many,More than half,Less than half,Few,Half,Most,All,Some,0.025463047,-0.035185201,1,0,0,QQQ5,,,,,,,,English,2020-07-02_11h01.17.787,Experiment_English,3.2.4,Win32,60,,,,,,,,,,,,,,,,,,,,,1,0,340,182,1,339,ratio23_2_5_7.png,,,,,,,,,,,,
,,,,,,,,,,,,All,Some,More than half,Less than half,Most,None,Many,Few,Half,-0.037036955,-0.04583335,1,0,0,QQQ5,,,,,,,,English,2020-07-02_11h01.17.787,Experiment_English,3.2.4,Win32,60,,,,,,,,,,,,,,,,,,,,,1,0,340,315,1,339,ratio51_15_18_10.png,,,,,,,,,,,,
,,,,,,,,,,,,All,Few,Most,None,More than half,Half,Some,Many,Less than half,-0.468055543,-0.026851868,1,0,0,QQQ8,,,,,,,,English,2020-07-02_11h01.17.787,Experiment_English,3.2.4,Win32,60,,,,,,,,,,,,,,,,,,,,,1,0,340,309,1,339,ratio51_10_12_10.png,,,,,,,,,,,,
,,,,,,,,,,,,Most,Less than half,None,More than half,Some,All,Many,Few,Half,0.349537074,-0.005092608,1,0,0,QQQ2,,,,,,,,English,2020-07-02_11h01.17.787,Experiment_English,3.2.4,Win32,60,,,,,,,,,,,,,,,,,,,,,1,0,340,6,1,339,ratio12_3_9_1.png,,,,,,,,,,,,
,,,,,,,,,,,,More than half,Few,Many,All,None,Most,Half,Some,Less than half,-0.418981467,-0.039351868,1,0,0,QQQ8,,,,,,,,English,2020-07-02_11h01.17.787,Experiment_English,3.2.4,Win32,60,,,,,,,,,,,,,,,,,,,,,1,0,340,197,1,339,ratio23_8_20_6.png,,,,,,,,,,,,
,,,,,,,,,,,,Some,Half,Many,Less than half,More than half,Few,Most,All,None,-0.027314733,-0.244907486,1,0,0,QQQ6,,,,,,,,English,2020-07-02_11h01.17.787,Experiment_English,3.2.4,Win32,60,,,,,,,,,,,,,,,,,,,,,1,0,340,336,1,339,ratio91_18_20_12.png,,,,,,,,,,,,
,,,,,,,,,,,,Half,None,Most,All,Some,Less than half,Few,More than half,Many,-0.535648138,0.332407402,1,0,0,QQQ7,,,,,,,,English,2020-07-02_11h01.17.787,Experiment_English,3.2.4,Win32,60,,,,,,,,,,,,,,,,,,,,,1,0,340,109,1,339,ratio14_2_10_9.png,,,,,,,,,,,,
,,,,,,,,,,,,Most,More than half,None,Less than half,Few,Many,Half,All,Some,0.50601856,-0.269907487,1,0,0,QQQ3,,,,,,,,English,2020-07-02_11h01.17.787,Experiment_English,3.2.4,Win32,60,,,,,,,,,,,,,,,,,,,,,1,0,340,60,1,339,ratio0Y_0_3_5.png,,,,,,,,,,,,
,,,,,,,,,,,,Most,Some,Few,Less than half,Many,More than half,None,Half,All,-0.469907367,-0.224074152,1,0,0,QQQ9,,,,,,,,English,2020-07-02_11h01.17.787,Experiment_English,3.2.4,Win32,60,,,,,,,,,,,,,,,,,,,,,1,0,340,56,1,339,ratioX0_17_17_10.png,,,,,,,,,,,,
,,,,,,,,,,,,None,All,Many,Few,Less than half,Some,Most,Half,More than half,0.062962991,-0.332870395,1,0,0,QQQ6,,,,,,,,English,2020-07-02_11h01.17.787,Experiment_English,3.2.4,Win32,60,,,,,,,,,,,,,,,,,,,,,1,0,340,117,1,339,ratio14_4_20_6.png,,,,,,,,,,,,
,,,,,,,,,,,,Half,Few,All,Some,More than half,Many,Most,Less than half,None,-0.402777763,0.2449074,1,0,0,QQQ7,,,,,,,,English,2020-07-02_11h01.17.787,Experiment_English,3.2.4,Win32,60,,,,,,,,,,,,,,,,,,,,,1,0,340,179,1,339,ratio21_12_18_8.png,,,,,,,,,,,,
,,,,,,,,,,,,More than half,Most,Some,Few,Half,Less than half,Many,None,All,0.60509275,-0.264814838,1,0,0,QQQ3,,,,,,,,English,2020-07-02_11h01.17.787,Experiment_English,3.2.4,Win32,60,,,,,,,,,,,,,,,,,,,,,1,0,340,15,1,339,ratio12_5_15_5.png,,,,,,,,,,,,
,,,,,,,,,,,,All,Half,Most,Less than half,Some,None,Many,Few,More than half,0.479166707,-0.35231484,1,0,0,QQQ3,,,,,,,,English,2020-07-02_11h01.17.787,Experiment_English,3.2.4,Win32,60,,,,,,,,,,,,,,,,,,,,,1,0,340,337,1,339,ratio91_18_20_16.png,,,,,,,,,,,,
,,,,,,,,,,,,Some,More than half,Most,Many,None,All,Less than half,Half,Few,0.502314856,0.313425906,1,0,0,QQQ1,,,,,,,,English,2020-07-02_11h01.17.787,Experiment_English,3.2.4,Win32,60,,,,,,,,,,,,,,,,,,,,,1,0,340,99,1,339,ratio13_5_20_4.png,,,,,,,,,,,,
,,,,,,,,,,,,Few,Half,Less than half,All,None,Some,Most,Many,More than half,-0.469907367,-0.305092617,1,0,0,QQQ9,,,,,,,,English,2020-07-02_11h01.17.787,Experiment_English,3.2.4,Win32,60,,,,,,,,,,,,,,,,,,,,,1,0,340,308,1,339,ratio51_10_12_9.png,,,,,,,,,,,,
,,,,,,,,,,,,Many,Less than half,All,Half,None,Some,Most,More than half,Few,0.037037065,-0.317592617,1,0,0,QQQ6,,,,,,,,English,2020-07-02_11h01.17.787,Experiment_English,3.2.4,Win32,60,,,,,,,,,,,,,,,,,,,,,1,0,340,94,1,339,ratio13_4_16_8.png,,,,,,,,,,,,
,,,,,,,,,,,,Some,More than half,Most,Many,Less than half,All,Few,None,Half,-0.422685143,0.256481474,1,0,0,QQQ7,,,,,,,,English,2020-07-02_11h01.17.787,Experiment_English,3.2.4,Win32,60,,,,,,,,,,,,,,,,,,,,,1,0,340,153,1,339,ratio19_2_20_8.png,,,,,,,,,,,,
,,,,,,,,,,,,Half,Less than half,Many,Few,Some,All,None,More than half,Most,-0.010185159,-0.057407424,1,0,0,QQQ5,,,,,,,,English,2020-07-02_11h01.17.787,Experiment_English,3.2.4,Win32,60,,,,,,,,,,,,,,,,,,,,,1,0,340,285,1,339,ratio43_4_7_14.png,,,,,,,,,,,,
,,,,,,,,,,,,Less than half,Many,Few,More than half,Half,Most,None,All,Some,-0.402777763,-0.349537062,1,0,0,QQQ9,,,,,,,,English,2020-07-02_11h01.17.787,Experiment_English,3.2.4,Win32,60,,,,,,,,,,,,,,,,,,,,,1,0,340,196,1,339,ratio23_8_20_5.png,,,,,,,,,,,,
,,,,,,,,,,,,Less than half,Some,More than half,Half,All,Few,Many,Most,None,-0.021759177,-0.005092608,1,0,0,QQQ5,,,,,,,,English,2020-07-02_11h01.17.787,Experiment_English,3.2.4,Win32,60,,,,,,,,,,,,,,,,,,,,,1,0,340,43,1,339,ratioX0_6_6_9.png,0.396296335,-0.42129638,1,0,0,continue_button_pause,1,0,1,0,1,0
,,,,,,,,,,,,,,,,,,,,,,,,,,,,,,,,,,English,2020-07-02_11h01.17.787,Experiment_English,3.2.4,Win32,60,,,,,,,,,,,,,,,,,,,,,1,0,340,43,1,339,ratioX0_6_6_9.png,,,,,,,,,,,,
,,,,,,,,,,,,Few,Most,Some,None,Less than half,More than half,Many,All,Half,0.533796339,-0.034722238,1,0,0,QQQ2,,,,,,,,English,2020-07-02_11h01.17.787,Experiment_English,3.2.4,Win32,60,,,,,,,,,,,,,,,,,,,,,1,0,340,212,1,339,ratio31_12_16_1.png,,,,,,,,,,,,
,,,,,,,,,,,,More than half,Less than half,Half,Some,Most,All,Few,Many,None,-0.429166653,-0.311111135,1,0,0,QQQ9,,,,,,,,English,2020-07-02_11h01.17.787,Experiment_English,3.2.4,Win32,60,,,,,,,,,,,,,,,,,,,,,1,0,340,77,1,339,ratio0Y_0_18_3.png,,,,,,,,,,,,
,,,,,,,,,,,,None,All,Some,Many,Less than half,More than half,Half,Most,Few,-0.032870288,-0.281481505,1,0,0,QQQ6,,,,,,,,English,2020-07-02_11h01.17.787,Experiment_English,3.2.4,Win32,60,,,,,,,,,,,,,,,,,,,,,1,0,340,324,1,339,ratio91_9_10_7.png,,,,,,,,,,,,
,,,,,,,,,,,,Most,Half,More than half,None,Less than half,Some,Many,All,Few,-0.392129615,-0.267129709,1,0,0,QQQ9,,,,,,,,English,2020-07-02_11h01.17.787,Experiment_English,3.2.4,Win32,60,,,,,,,,,,,,,,,,,,,,,1,0,340,139,1,339,ratio15_3_18_20.png,,,,,,,,,,,,
,,,,,,,,,,,,All,Some,Most,None,Half,Many,Less than half,Few,More than half,-0.471759247,0.01944443,1,0,0,QQQ8,,,,,,,,English,2020-07-02_11h01.17.787,Experiment_English,3.2.4,Win32,60,,,,,,,,,,,,,,,,,,,,,1,0,340,122,1,339,ratio15_1_6_7.png,,,,,,,,,,,,
,,,,,,,,,,,,Some,More than half,None,Less than half,All,Half,Most,Many,Few,0.504629671,0.29629629,1,0,0,QQQ1,,,,,,,,English,2020-07-02_11h01.17.787,Experiment_English,3.2.4,Win32,60,,,,,,,,,,,,,,,,,,,,,1,0,340,189,1,339,ratio23_4_10_8.png,,,,,,,,,,,,
,,,,,,,,,,,,Many,None,More than half,Most,Less than half,Few,Some,Half,All,0.434722262,-0.28703706,1,0,0,QQQ3,,,,,,,,English,2020-07-02_11h01.17.787,Experiment_English,3.2.4,Win32,60,,,,,,,,,,,,,,,,,,,,,1,0,340,222,1,339,ratio32_3_5_4.png,,,,,,,,,,,,
,,,,,,,,,,,,Some,Most,Less than half,Few,More than half,All,Half,Many,None,0.03009262,-0.017129645,1,0,0,QQQ5,,,,,,,,English,2020-07-02_11h01.17.787,Experiment_English,3.2.4,Win32,60,,,,,,,,,,,,,,,,,,,,,1,0,340,168,1,339,ratio21_6_9_3.png,,,,,,,,,,,,
,,,,,,,,,,,,Many,Some,Less than half,Few,None,More than half,Most,All,Half,-0.075462939,0.268055549,1,0,0,QQQ4,,,,,,,,English,2020-07-02_11h01.17.787,Experiment_English,3.2.4,Win32,60,,,,,,,,,,,,,,,,,,,,,1,0,340,115,1,339,ratio14_4_20_1.png,,,,,,,,,,,,
,,,,,,,,,,,,Few,Half,Many,Less than half,All,Most,None,More than half,Some,0.459259299,0.287037017,1,0,0,QQQ1,,,,,,,,English,2020-07-02_11h01.17.787,Experiment_English,3.2.4,Win32,60,,,,,,,,,,,,,,,,,,,,,1,0,340,146,1,339,ratio19_1_10_17.png,,,,,,,,,,,,
,,,,,,,,,,,,Half,Many,None,All,Some,Few,More than half,Less than half,Most,0.398148187,-0.005555571,1,0,0,QQQ2,,,,,,,,English,2020-07-02_11h01.17.787,Experiment_English,3.2.4,Win32,60,,,,,,,,,,,,,,,,,,,,,1,0,340,269,1,339,ratio41_8_10_6.png,,,,,,,,,,,,
,,,,,,,,,,,,Most,More than half,Half,All,None,Some,Few,Many,Less than half,-0.486111099,0.232870362,1,0,0,QQQ7,,,,,,,,English,2020-07-02_11h01.17.787,Experiment_English,3.2.4,Win32,60,,,,,,,,,,,,,,,,,,,,,1,0,340,180,1,339,ratio23_2_5_4.png,,,,,,,,,,,,
,,,,,,,,,,,,Many,Some,Half,More than half,None,Less than half,Few,All,Most,-0.553703694,0.32268518,1,0,0,QQQ7,,,,,,,,English,2020-07-02_11h01.17.787,Experiment_English,3.2.4,Win32,60,,,,,,,,,,,,,,,,,,,,,1,0,340,149,1,339,ratio19_1_10_20.png,,,,,,,,,,,,
,,,,,,,,,,,,Few,Half,More than half,Most,Some,All,None,Less than half,Many,0.413888928,-0.252314837,1,0,0,QQQ3,,,,,,,,English,2020-07-02_11h01.17.787,Experiment_English,3.2.4,Win32,60,,,,,,,,,,,,,,,,,,,,,1,0,340,192,1,339,ratio23_6_15_8.png,,,,,,,,,,,,
,,,,,,,,,,,,Most,More than half,None,Half,Less than half,Some,Few,Many,All,0.414351891,0.248148141,1,0,0,QQQ1,,,,,,,,English,2020-07-02_11h01.17.787,Experiment_English,3.2.4,Win32,60,,,,,,,,,,,,,,,,,,,,,1,0,340,219,1,339,ratio31_15_20_10.png,,,,,,,,,,,,
,,,,,,,,,,,,Most,Half,More than half,None,Less than half,Some,Few,All,Many,-0.490740701,0.277777771,1,0,0,QQQ7,,,,,,,,English,2020-07-02_11h01.17.787,Experiment_English,3.2.4,Win32,60,,,,,,,,,,,,,,,,,,,,,1,0,340,148,1,339,ratio19_1_10_19.png,,,,,,,,,,,,
,,,,,,,,,,,,Less than half,None,Most,Many,Few,More than half,All,Half,Some,-0.549074064,-0.300463043,1,0,0,QQQ9,,,,,,,,English,2020-07-02_11h01.17.787,Experiment_English,3.2.4,Win32,60,,,,,,,,,,,,,,,,,,,,,1,0,340,184,1,339,ratio23_2_5_10.png,,,,,,,,,,,,
,,,,,,,,,,,,Few,Many,Less than half,None,More than half,All,Most,Half,Some,0.59259275,0.263425905,1,0,0,QQQ1,,,,,,,,English,2020-07-02_11h01.17.787,Experiment_English,3.2.4,Win32,60,,,,,,,,,,,,,,,,,,,,,1,0,340,155,1,339,ratio19_2_20_13.png,,,,,,,,,,,,
,,,,,,,,,,,,Some,All,Few,Less than half,None,Most,Half,Many,More than half,-0.42870369,-0.284259283,1,0,0,QQQ9,,,,,,,,English,2020-07-02_11h01.17.787,Experiment_English,3.2.4,Win32,60,,,,,,,,,,,,,,,,,,,,,1,0,340,206,1,339,ratio31_6_8_6.png,,,,,,,,,,,,
,,,,,,,,,,,,Few,None,Some,All,Half,Most,More than half,Many,Less than half,0.427777817,-0.024537053,1,0,0,QQQ2,,,,,,,,English,2020-07-02_11h01.17.787,Experiment_English,3.2.4,Win32,60,,,,,,,,,,,,,,,,,,,,,1,0,340,65,1,339,ratio0Y_0_8_4.png,,,,,,,,,,,,
,,,,,,,,,,,,Few,Half,Most,Many,More than half,Less than half,None,All,Some,-0.458796255,0.269907401,1,0,0,QQQ7,,,,,,,,English,2020-07-02_11h01.17.787,Experiment_English,3.2.4,Win32,60,,,,,,,,,,,,,,,,,,,,,1,0,340,67,1,339,ratio0Y_0_10_10.png,,,,,,,,,,,,
,,,,,,,,,,,,All,More than half,Half,Most,Many,None,Some,Less than half,Few,0.418518557,-0.051851868,1,0,0,QQQ2,,,,,,,,English,2020-07-02_11h01.17.787,Experiment_English,3.2.4,Win32,60,,,,,,,,,,,,,,,,,,,,,1,0,340,25,1,339,ratio11_4_8_10.png,,,,,,,,,,,,
,,,,,,,,,,,,None,Few,Half,Most,Less than half,Some,More than half,All,Many,-0.477777766,-0.059722239,1,0,0,QQQ8,,,,,,,,English,2020-07-02_11h01.17.787,Experiment_English,3.2.4,Win32,60,,,,,,,,,,,,,,,,,,,,,1,0,340,53,1,339,ratioX0_14_14_8.png,,,,,,,,,,,,
,,,,,,,,,,,,Half,Few,More than half,Less than half,Some,None,Many,Most,All,-0.483333321,-0.262963042,1,0,0,QQQ9,,,,,,,,English,2020-07-02_11h01.17.787,Experiment_English,3.2.4,Win32,60,,,,,,,,,,,,,,,,,,,,,1,0,340,49,1,339,ratioX0_11_11_2.png,,,,,,,,,,,,
,,,,,,,,,,,,Many,More than half,None,Half,Few,Most,All,Some,Less than half,-0.401851837,0.012962948,1,0,0,QQQ8,,,,,,,,English,2020-07-02_11h01.17.787,Experiment_English,3.2.4,Win32,60,,,,,,,,,,,,,,,,,,,,,1,0,340,34,1,339,ratio11_8_16_8.png,,,,,,,,,,,,
,,,,,,,,,,,,Less than half,Few,All,Half,Most,Some,More than half,Many,None,-0.023611085,-0.366666692,1,0,0,QQQ6,,,,,,,,English,2020-07-02_11h01.17.787,Experiment_English,3.2.4,Win32,60,,,,,,,,,,,,,,,,,,,,,1,0,340,138,1,339,ratio15_3_18_17.png,,,,,,,,,,,,
,,,,,,,,,,,,Some,Few,More than half,All,Half,Less than half,Most,Many,None,0.425463002,-0.308333357,1,0,0,QQQ3,,,,,,,,English,2020-07-02_11h01.17.787,Experiment_English,3.2.4,Win32,60,,,,,,,,,,,,,,,,,,,,,1,0,340,223,1,339,ratio32_3_5_5.png,,,,,,,,,,,,
,,,,,,,,,,,,All,Some,More than half,Less than half,None,Most,Few,Many,Half,0.416666706,-0.048611127,1,0,0,QQQ2,,,,,,,,English,2020-07-02_11h01.17.787,Experiment_English,3.2.4,Win32,60,,,,,,,,,,,,,,,,,,,,,1,0,340,20,1,339,ratio11_2_4_3.png,,,,,,,,,,,,
,,,,,,,,,,,,More than half,Less than half,Most,None,Some,Many,Half,Few,All,0.093518548,-0.026851868,1,0,0,QQQ5,,,,,,,,English,2020-07-02_11h01.17.787,Experiment_English,3.2.4,Win32,60,,,,,,,,,,,,,,,,,,,,,1,0,340,93,1,339,ratio13_4_16_7.png,,,,,,,,,,,,
,,,,,,,,,,,,Few,Half,None,Some,More than half,Many,All,Most,Less than half,-0.022685159,0.273611104,1,0,0,QQQ4,,,,,,,,English,2020-07-02_11h01.17.787,Experiment_English,3.2.4,Win32,60,,,,,,,,,,,,,,,,,,,,,1,0,340,2,1,339,ratio12_1_3_10.png,,,,,,,,,,,,
,,,,,,,,,,,,All,Half,Less than half,Some,Most,None,Many,Few,More than half,0.503240782,0.018518504,1,0,0,QQQ2,,,,,,,,English,2020-07-02_11h01.17.787,Experiment_English,3.2.4,Win32,60,,,,,,,,,,,,,,,,,,,,,1,0,340,226,1,339,ratio32_6_10_5.png,,,,,,,,,,,,
,,,,,,,,,,,,Less than half,Some,Few,Most,Many,None,All,More than half,Half,0.420370409,0.003240726,1,0,0,QQQ2,,,,,,,,English,2020-07-02_11h01.17.787,Experiment_English,3.2.4,Win32,60,,,,,,,,,,,,,,,,,,,,,1,0,340,111,1,339,ratio14_3_15_3.png,,,,,,,,,,,,
,,,,,,,,,,,,Less than half,Some,None,Most,More than half,Half,Few,Many,All,-0.514814804,0.363888885,1,0,0,QQQ7,,,,,,,,English,2020-07-02_11h01.17.787,Experiment_English,3.2.4,Win32,60,,,,,,,,,,,,,,,,,,,,,1,0,340,104,1,339,ratio14_1_5_10.png,,,,,,,,,,,,
,,,,,,,,,,,,Less than half,Half,Few,Most,None,All,Some,More than half,Many,0.416203743,0.021759245,1,0,0,QQQ2,,,,,,,,English,2020-07-02_11h01.17.787,Experiment_English,3.2.4,Win32,60,,,,,,,,,,,,,,,,,,,,,1,0,340,253,1,339,ratio34_6_14_5.png,0.349537074,-0.395370397,1,0,0,continue_button_pause,1,0,1,0,1,0
,,,,,,,,,,,,,,,,,,,,,,,,,,,,,,,,,,English,2020-07-02_11h01.17.787,Experiment_English,3.2.4,Win32,60,,,,,,,,,,,,,,,,,,,,,1,0,340,253,1,339,ratio34_6_14_5.png,,,,,,,,,,,,
,,,,,,,,,,,,Most,Few,Less than half,Half,Many,More than half,All,Some,None,0.534722265,0.004629615,1,0,0,QQQ2,,,,,,,,English,2020-07-02_11h01.17.787,Experiment_English,3.2.4,Win32,60,,,,,,,,,,,,,,,,,,,,,1,0,340,118,1,339,ratio14_4_20_8.png,,,,,,,,,,,,
,,,,,,,,,,,,None,Many,Half,Less than half,All,Most,Few,More than half,Some,-0.487962923,0.316666661,1,0,0,QQQ7,,,,,,,,English,2020-07-02_11h01.17.787,Experiment_English,3.2.4,Win32,60,,,,,,,,,,,,,,,,,,,,,1,0,340,136,1,339,ratio15_3_18_8.png,,,,,,,,,,,,
,,,,,,,,,,,,Few,Some,All,More than half,Half,Most,Many,None,Less than half,0.493981523,0.259259252,1,0,0,QQQ1,,,,,,,,English,2020-07-02_11h01.17.787,Experiment_English,3.2.4,Win32,60,,,,,,,,,,,,,,,,,,,,,1,0,340,18,1,339,ratio12_6_18_7.png,,,,,,,,,,,,
,,,,,,,,,,,,Most,None,Less than half,Some,All,More than half,Few,Many,Half,-0.477777766,-0.342129711,1,0,0,QQQ9,,,,,,,,English,2020-07-02_11h01.17.787,Experiment_English,3.2.4,Win32,60,,,,,,,,,,,,,,,,,,,,,1,0,340,252,1,339,ratio34_6_14_3.png,,,,,,,,,,,,
,,,,,,,,,,,,Half,None,Less than half,Most,Many,All,Few,Some,More than half,-0.471296256,-0.007870386,1,0,0,QQQ8,,,,,,,,English,2020-07-02_11h01.17.787,Experiment_English,3.2.4,Win32,60,,,,,,,,,,,,,,,,,,,,,1,0,340,4,1,339,ratio12_2_6_5.png,,,,,,,,,,,,
,,,,,,,,,,,,All,Few,Less than half,Some,Half,Many,Most,None,More than half,0.444444484,-0.005555571,1,0,0,QQQ2,,,,,,,,English,2020-07-02_11h01.17.787,Experiment_English,3.2.4,Win32,60,,,,,,,,,,,,,,,,,,,,,1,0,340,92,1,339,ratio13_4_16_3.png,,,,,,,,,,,,
,,,,,,,,,,,,Half,More than half,Many,Less than half,Few,Most,Some,All,None,0.530555598,0.250925919,1,0,0,QQQ1,,,,,,,,English,2020-07-02_11h01.17.787,Experiment_English,3.2.4,Win32,60,,,,,,,,,,,,,,,,,,,,,1,0,340,254,1,339,ratio34_6_14_9.png,,,,,,,,,,,,
,,,,,,,,,,,,Half,Many,More than half,None,Some,All,Less than half,Most,Few,-0.587037028,-0.325463044,1,0,0,QQQ9,,,,,,,,English,2020-07-02_11h01.17.787,Experiment_English,3.2.4,Win32,60,,,,,,,,,,,,,,,,,,,,,1,0,340,240,1,339,ratio34_3_7_4.png,,,,,,,,,,,,
,,,,,,,,,,,,Many,Some,None,Most,Few,Half,All,More than half,Less than half,0.536111154,0.307407402,1,0,0,QQQ1,,,,,,,,English,2020-07-02_11h01.17.787,Experiment_English,3.2.4,Win32,60,,,,,,,,,,,,,,,,,,,,,1,0,340,211,1,339,ratio31_9_12_10.png,,,,,,,,,,,,
,,,,,,,,,,,,None,All,Many,Most,Some,Few,Less than half,Half,More than half,-0.509722211,-0.037037053,1,0,0,QQQ8,,,,,,,,English,2020-07-02_11h01.17.787,Experiment_English,3.2.4,Win32,60,,,,,,,,,,,,,,,,,,,,,1,0,340,284,1,339,ratio43_4_7_11.png,,,,,,,,,,,,
,,,,,,,,,,,,Some,Many,Most,None,More than half,Few,Less than half,All,Half,-0.493055544,-0.271759282,1,0,0,QQQ9,,,,,,,,English,2020-07-02_11h01.17.787,Experiment_English,3.2.4,Win32,60,,,,,,,,,,,,,,,,,,,,,1,0,340,27,1,339,ratio11_5_10_7.png,,,,,,,,,,,,
,,,,,,,,,,,,None,Many,Some,More than half,Less than half,All,Most,Half,Few,0.416666706,-0.30092595,1,0,0,QQQ3,,,,,,,,English,2020-07-02_11h01.17.787,Experiment_English,3.2.4,Win32,60,,,,,,,,,,,,,,,,,,,,,1,0,340,120,1,339,ratio15_1_6_1.png,,,,,,,,,,,,
,,,,,,,,,,,,Few,Many,Some,None,More than half,All,Half,Most,Less than half,0.024537064,0.016203689,1,0,0,QQQ5,,,,,,,,English,2020-07-02_11h01.17.787,Experiment_English,3.2.4,Win32,60,,,,,,,,,,,,,,,,,,,,,1,0,340,306,1,339,ratio51_5_6_18.png,,,,,,,,,,,,
,,,,,,,,,,,,Half,More than half,Few,All,Most,None,Less than half,Some,Many,0.060185213,-0.020370386,1,0,0,QQQ5,,,,,,,,English,2020-07-02_11h01.17.787,Experiment_English,3.2.4,Win32,60,,,,,,,,,,,,,,,,,,,,,1,0,340,328,1,339,ratio91_9_10_15.png,,,,,,,,,,,,
,,,,,,,,,,,,None,Half,All,More than half,Less than half,Most,Some,Few,Many,0.438888928,-0.051388905,1,0,0,QQQ2,,,,,,,,English,2020-07-02_11h01.17.787,Experiment_English,3.2.4,Win32,60,,,,,,,,,,,,,,,,,,,,,1,0,340,255,1,339,ratio34_6_14_10.png,,,,,,,,,,,,
,,,,,,,,,,,,Half,Few,Less than half,None,Most,Many,More than half,All,Some,0.499537078,-0.024537053,1,0,0,QQQ2,,,,,,,,English,2020-07-02_11h01.17.787,Experiment_English,3.2.4,Win32,60,,,,,,,,,,,,,,,,,,,,,1,0,340,95,1,339,ratio13_4_16_10.png,,,,,,,,,,,,
,,,,,,,,,,,,Few,Half,More than half,Some,Most,Less than half,All,None,Many,0.074537066,-0.061111128,1,0,0,QQQ5,,,,,,,,English,2020-07-02_11h01.17.787,Experiment_English,3.2.4,Win32,60,,,,,,,,,,,,,,,,,,,,,1,0,340,290,1,339,ratio43_8_14_3.png,,,,,,,,,,,,
,,,,,,,,,,,,Half,Few,More than half,Some,All,Most,Many,Less than half,None,-0.006944418,0.234722214,1,0,0,QQQ4,,,,,,,,English,2020-07-02_11h01.17.787,Experiment_English,3.2.4,Win32,60,,,,,,,,,,,,,,,,,,,,,1,0,340,11,1,339,ratio12_4_12_7.png,,,,,,,,,,,,
,,,,,,,,,,,,More than half,Many,Half,None,Less than half,Most,Few,All,Some,0.109722252,-0.276388912,1,0,0,QQQ6,,,,,,,,English,2020-07-02_11h01.17.787,Experiment_English,3.2.4,Win32,60,,,,,,,,,,,,,,,,,,,,,1,0,340,320,1,339,ratio91_9_10_1.png,,,,,,,,,,,,
,,,,,,,,,,,,All,None,Less than half,More than half,Some,Half,Few,Most,Many,-0.002314732,-0.350463045,1,0,0,QQQ6,,,,,,,,English,2020-07-02_11h01.17.787,Experiment_English,3.2.4,Win32,60,,,,,,,,,,,,,,,,,,,,,1,0,340,23,1,339,ratio11_3_6_9.png,,,,,,,,,,,,
,,,,,,,,,,,,Some,Half,Few,None,All,Many,More than half,Most,Less than half,0.007870397,-0.033796312,1,0,0,QQQ5,,,,,,,,English,2020-07-02_11h01.17.787,Experiment_English,3.2.4,Win32,60,,,,,,,,,,,,,,,,,,,,,1,0,340,58,1,339,ratioX0_19_19_4.png,,,,,,,,,,,,
,,,,,,,,,,,,Most,All,Half,Few,Less than half,More than half,None,Some,Many,0.431018558,0.253703696,1,0,0,QQQ1,,,,,,,,English,2020-07-02_11h01.17.787,Experiment_English,3.2.4,Win32,60,,,,,,,,,,,,,,,,,,,,,1,0,340,266,1,339,ratio41_8_10_2.png,,,,,,,,,,,,
,,,,,,,,,,,,Most,Half,Few,Some,Many,All,Less than half,More than half,None,0.429629669,0.281481461,1,0,0,QQQ1,,,,,,,,English,2020-07-02_11h01.17.787,Experiment_English,3.2.4,Win32,60,,,,,,,,,,,,,,,,,,,,,1,0,340,264,1,339,ratio41_4_5_6.png,,,,,,,,,,,,
,,,,,,,,,,,,More than half,Some,None,Most,Less than half,Half,Few,All,Many,-0.015277752,-0.035185201,1,0,0,QQQ5,,,,,,,,English,2020-07-02_11h01.17.787,Experiment_English,3.2.4,Win32,60,,,,,,,,,,,,,,,,,,,,,1,0,340,256,1,339,ratio34_6_14_11.png,,,,,,,,,,,,
,,,,,,,,,,,,More than half,Half,None,All,Most,Less than half,Some,Few,Many,0.401388927,-0.087500018,1,0,0,QQQ2,,,,,,,,English,2020-07-02_11h01.17.787,Experiment_English,3.2.4,Win32,60,,,,,,,,,,,,,,,,,,,,,1,0,340,282,1,339,ratio43_4_7_7.png,,,,,,,,,,,,
,,,,,,,,,,,,All,Most,More than half,Half,Some,Less than half,Many,Few,None,-0.549074064,-0.00231483,1,0,0,QQQ8,,,,,,,,English,2020-07-02_11h01.17.787,Experiment_English,3.2.4,Win32,60,,,,,,,,,,,,,,,,,,,,,1,0,340,105,1,339,ratio14_2_10_1.png,,,,,,,,,,,,
,,,,,,,,,,,,Few,Most,Many,None,More than half,Half,All,Less than half,Some,-0.403240726,-0.320833358,1,0,0,QQQ9,,,,,,,,English,2020-07-02_11h01.17.787,Experiment_English,3.2.4,Win32,60,,,,,,,,,,,,,,,,,,,,,1,0,340,133,1,339,ratio15_3_18_3.png,,,,,,,,,,,,
,,,,,,,,,,,,Half,Less than half,All,Many,None,More than half,Few,Most,Some,-0.049999975,-0.277314838,1,0,0,QQQ6,,,,,,,,English,2020-07-02_11h01.17.787,Experiment_English,3.2.4,Win32,60,,,,,,,,,,,,,,,,,,,,,1,0,340,310,1,339,ratio51_10_12_12.png,,,,,,,,,,,,
,,,,,,,,,,,,All,Few,Most,Half,Many,None,Less than half,More than half,Some,-0.556944435,-0.048148164,1,0,0,QQQ8,,,,,,,,English,2020-07-02_11h01.17.787,Experiment_English,3.2.4,Win32,60,,,,,,,,,,,,,,,,,,,,,1,0,340,172,1,339,ratio21_8_12_6.png,,,,,,,,,,,,
,,,,,,,,,,,,Half,Some,Few,Most,More than half,All,Many,None,Less than half,0.490277819,0.250925919,1,0,0,QQQ1,,,,,,,,English,2020-07-02_11h01.17.787,Experiment_English,3.2.4,Win32,60,,,,,,,,,,,,,,,,,,,,,1,0,340,9,1,339,ratio12_3_9_5.png,,,,,,,,,,,,
,,,,,,,,,,,,Half,Few,Most,Some,Many,More than half,Less than half,None,All,0.467592633,0.300925906,1,0,0,QQQ1,,,,,,,,English,2020-07-02_11h01.17.787,Experiment_English,3.2.4,Win32,60,,,,,,,,,,,,,,,,,,,,,1,0,340,39,1,339,ratio11_10_20_6.png,,,,,,,,,,,,
,,,,,,,,,,,,Most,Few,Half,More than half,All,Many,Some,None,Less than half,-0.5236111,0.247222215,1,0,0,QQQ7,,,,,,,,English,2020-07-02_11h01.17.787,Experiment_English,3.2.4,Win32,60,,,,,,,,,,,,,,,,,,,,,1,0,340,98,1,339,ratio13_5_20_3.png,,,,,,,,,,,,
,,,,,,,,,,,,All,Most,Less than half,Some,Few,None,Many,Half,More than half,-0.550925916,-0.058796313,1,0,0,QQQ8,,,,,,,,English,2020-07-02_11h01.17.787,Experiment_English,3.2.4,Win32,60,,,,,,,,,,,,,,,,,,,,,1,0,340,237,1,339,ratio32_12_20_5.png,,,,,,,,,,,,
,,,,,,,,,,,,Half,Many,Most,Some,None,More than half,Less than half,Few,All,0.489351893,-0.319444469,1,0,0,QQQ3,,,,,,,,English,2020-07-02_11h01.17.787,Experiment_English,3.2.4,Win32,60,,,,,,,,,,,,,,,,,,,,,1,0,340,301,1,339,ratio51_5_6_4.png,0.318981517,-0.420833361,1,0,0,continue_button_pause,1,0,1,0,1,0
,,,,,,,,,,,,,,,,,,,,,,,,,,,,,,,,,,English,2020-07-02_11h01.17.787,Experiment_English,3.2.4,Win32,60,,,,,,,,,,,,,,,,,,,,,1,0,340,301,1,339,ratio51_5_6_4.png,,,,,,,,,,,,
,,,,,,,,,,,,Half,None,Most,Some,All,Many,Less than half,More than half,Few,0.529166709,-0.275463043,1,0,0,QQQ3,,,,,,,,English,2020-07-02_11h01.17.787,Experiment_English,3.2.4,Win32,60,,,,,,,,,,,,,,,,,,,,,1,0,340,305,1,339,ratio51_5_6_14.png,,,,,,,,,,,,
,,,,,,,,,,,,All,Less than half,More than half,None,Most,Many,Half,Some,Few,-0.486574034,0.242129622,1,0,0,QQQ7,,,,,,,,English,2020-07-02_11h01.17.787,Experiment_English,3.2.4,Win32,60,,,,,,,,,,,,,,,,,,,,,1,0,340,259,1,339,ratio34_6_14_19.png,,,,,,,,,,,,
,,,,,,,,,,,,All,Some,None,Few,Many,Half,More than half,Most,Less than half,0.440277817,0.007407393,1,0,0,QQQ2,,,,,,,,English,2020-07-02_11h01.17.787,Experiment_English,3.2.4,Win32,60,,,,,,,,,,,,,,,,,,,,,1,0,340,14,1,339,ratio12_5_15_4.png,,,,,,,,,,,,
,,,,,,,,,,,,Half,All,Many,Some,None,More than half,Less than half,Most,Few,-0.446296255,-0.295370394,1,0,0,QQQ9,,,,,,,,English,2020-07-02_11h01.17.787,Experiment_English,3.2.4,Win32,60,,,,,,,,,,,,,,,,,,,,,1,0,340,121,1,339,ratio15_1_6_4.png,,,,,,,,,,,,
,,,,,,,,,,,,Less than half,Half,Most,Many,More than half,None,All,Few,Some,-0.007407381,-0.011111126,1,0,0,QQQ5,,,,,,,,English,2020-07-02_11h01.17.787,Experiment_English,3.2.4,Win32,60,,,,,,,,,,,,,,,,,,,,,1,0,340,163,1,339,ratio21_4_6_1.png,,,,,,,,,,,,
,,,,,,,,,,,,All,Some,Few,Most,Less than half,None,More than half,Many,Half,-0.006944418,-0.005092608,1,0,0,QQQ5,,,,,,,,English,2020-07-02_11h01.17.787,Experiment_English,3.2.4,Win32,60,,,,,,,,,,,,,,,,,,,,,1,0,340,243,1,339,ratio34_3_7_8.png,,,,,,,,,,,,
,,,,,,,,,,,,More than half,All,Many,Half,Some,None,Most,Less than half,Few,-0.494907367,-0.283796376,1,0,0,QQQ9,,,,,,,,English,2020-07-02_11h01.17.787,Experiment_English,3.2.4,Win32,60,,,,,,,,,,,,,,,,,,,,,1,0,340,128,1,339,ratio15_2_12_8.png,,,,,,,,,,,,
,,,,,,,,,,,,All,Many,Most,More than half,Some,Half,None,Few,Less than half,0.055555584,-0.266203727,1,0,0,QQQ6,,,,,,,,English,2020-07-02_11h01.17.787,Experiment_English,3.2.4,Win32,60,,,,,,,,,,,,,,,,,,,,,1,0,340,287,1,339,ratio43_4_7_17.png,,,,,,,,,,,,
,,,,,,,,,,,,None,All,Many,Less than half,Some,Few,Half,Most,More than half,-0.507870359,-0.359259285,1,0,0,QQQ9,,,,,,,,English,2020-07-02_11h01.17.787,Experiment_English,3.2.4,Win32,60,,,,,,,,,,,,,,,,,,,,,1,0,340,302,1,339,ratio51_5_6_5.png,,,,,,,,,,,,
,,,,,,,,,,,,Many,None,Most,More than half,Less than half,Some,Half,Few,All,-0.457407366,0.308333328,1,0,0,QQQ7,,,,,,,,English,2020-07-02_11h01.17.787,Experiment_English,3.2.4,Win32,60,,,,,,,,,,,,,,,,,,,,,1,0,340,26,1,339,ratio11_5_10_4.png,,,,,,,,,,,,
,,,,,,,,,,,,Most,Some,Many,None,Few,Less than half,Half,More than half,All,-0.435648135,-0.020370386,1,0,0,QQQ8,,,,,,,,English,2020-07-02_11h01.17.787,Experiment_English,3.2.4,Win32,60,,,,,,,,,,,,,,,,,,,,,1,0,340,178,1,339,ratio21_12_18_2.png,,,,,,,,,,,,
,,,,,,,,,,,,Some,More than half,All,Many,Most,Half,Few,Less than half,None,-0.429629588,0.266203683,1,0,0,QQQ7,,,,,,,,English,2020-07-02_11h01.17.787,Experiment_English,3.2.4,Win32,60,,,,,,,,,,,,,,,,,,,,,1,0,340,147,1,339,ratio19_1_10_18.png,,,,,,,,,,,,
,,,,,,,,,,,,Few,Less than half,Many,Some,Most,Half,None,More than half,All,-0.03009251,-0.288888912,1,0,0,QQQ6,,,,,,,,English,2020-07-02_11h01.17.787,Experiment_English,3.2.4,Win32,60,,,,,,,,,,,,,,,,,,,,,1,0,340,224,1,339,ratio32_3_5_10.png,,,,,,,,,,,,
,,,,,,,,,,,,All,Most,Few,More than half,Half,None,Many,Less than half,Some,0.557870527,-0.046296313,1,0,0,QQQ2,,,,,,,,English,2020-07-02_11h01.17.787,Experiment_English,3.2.4,Win32,60,,,,,,,,,,,,,,,,,,,,,1,0,340,304,1,339,ratio51_5_6_13.png,,,,,,,,,,,,
,,,,,,,,,,,,None,Most,Less than half,Few,All,Half,More than half,Many,Some,0.447222262,-1.4912E-08,1,0,0,QQQ2,,,,,,,,English,2020-07-02_11h01.17.787,Experiment_English,3.2.4,Win32,60,,,,,,,,,,,,,,,,,,,,,1,0,340,201,1,339,ratio31_3_4_7.png,,,,,,,,,,,,
,,,,,,,,,,,,Most,All,Less than half,None,Half,Few,Many,More than half,Some,0.455092633,-0.362963045,1,0,0,QQQ3,,,,,,,,English,2020-07-02_11h01.17.787,Experiment_English,3.2.4,Win32,60,,,,,,,,,,,,,,,,,,,,,1,0,340,87,1,339,ratio13_2_8_8.png,,,,,,,,,,,,
,,,,,,,,,,,,Few,Less than half,Many,All,Half,Some,None,More than half,Most,-0.431944431,0.021759245,1,0,0,QQQ8,,,,,,,,English,2020-07-02_11h01.17.787,Experiment_English,3.2.4,Win32,60,,,,,,,,,,,,,,,,,,,,,1,0,340,260,1,339,ratio41_4_5_2.png,,,,,,,,,,,,
,,,,,,,,,,,,Few,Less than half,All,More than half,Some,None,Many,Most,Half,0.050925954,0.292592572,1,0,0,QQQ4,,,,,,,,English,2020-07-02_11h01.17.787,Experiment_English,3.2.4,Win32,60,,,,,,,,,,,,,,,,,,,,,1,0,340,208,1,339,ratio31_9_12_3.png,,,,,,,,,,,,
,,,,,,,,,,,,Many,Half,Few,All,More than half,Some,Less than half,None,Most,0.05648151,-0.013888904,1,0,0,QQQ5,,,,,,,,English,2020-07-02_11h01.17.787,Experiment_English,3.2.4,Win32,60,,,,,,,,,,,,,,,,,,,,,1,0,340,238,1,339,ratio32_12_20_9.png,,,,,,,,,,,,
,,,,,,,,,,,,Most,Half,All,Less than half,More than half,None,Many,Few,Some,0.027777805,0.259722215,1,0,0,QQQ4,,,,,,,,English,2020-07-02_11h01.17.787,Experiment_English,3.2.4,Win32,60,,,,,,,,,,,,,,,,,,,,,1,0,340,3,1,339,ratio12_2_6_3.png,,,,,,,,,,,,
,,,,,,,,,,,,Half,Few,Less than half,All,None,More than half,Many,Some,Most,-0.480555543,-0.268055578,1,0,0,QQQ9,,,,,,,,English,2020-07-02_11h01.17.787,Experiment_English,3.2.4,Win32,60,,,,,,,,,,,,,,,,,,,,,1,0,340,229,1,339,ratio32_6_10_9.png,,,,,,,,,,,,
,,,,,,,,,,,,Many,More than half,Less than half,Half,None,All,Some,Few,Most,0.425000039,-0.01944446,1,0,0,QQQ2,,,,,,,,English,2020-07-02_11h01.17.787,Experiment_English,3.2.4,Win32,60,,,,,,,,,,,,,,,,,,,,,1,0,340,176,1,339,ratio21_10_15_3.png,,,,,,,,,,,,
,,,,,,,,,,,,All,Some,Less than half,Many,More than half,None,Most,Half,Few,0.44074078,-0.357407489,1,0,0,QQQ3,,,,,,,,English,2020-07-02_11h01.17.787,Experiment_English,3.2.4,Win32,60,,,,,,,,,,,,,,,,,,,,,1,0,340,113,1,339,ratio14_3_15_8.png,,,,,,,,,,,,
,,,,,,,,,,,,More than half,Less than half,Some,All,Many,Half,Most,None,Few,0.501851893,0.286111105,1,0,0,QQQ1,,,,,,,,English,2020-07-02_11h01.17.787,Experiment_English,3.2.4,Win32,60,,,,,,,,,,,,,,,,,,,,,1,0,340,30,1,339,ratio11_6_12_6.png,,,,,,,,,,,,
,,,,,,,,,,,,None,Less than half,More than half,Few,Many,Half,Some,Most,All,2.6491E-08,0.260185178,1,0,0,QQQ4,,,,,,,,English,2020-07-02_11h01.17.787,Experiment_English,3.2.4,Win32,60,,,,,,,,,,,,,,,,,,,,,1,0,340,103,1,339,ratio14_1_5_9.png,,,,,,,,,,,,
,,,,,,,,,,,,All,None,More than half,Some,Many,Half,Few,Less than half,Most,0.018981509,-0.311574155,1,0,0,QQQ6,,,,,,,,English,2020-07-02_11h01.17.787,Experiment_English,3.2.4,Win32,60,,,,,,,,,,,,,,,,,,,,,1,0,340,245,1,339,ratio34_3_7_10.png,,,,,,,,,,,,
,,,,,,,,,,,,Less than half,None,Half,Some,Few,All,Many,Most,More than half,-0.037036955,0.280555549,1,0,0,QQQ4,,,,,,,,English,2020-07-02_11h01.17.787,Experiment_English,3.2.4,Win32,60,,,,,,,,,,,,,,,,,,,,,1,0,340,187,1,339,ratio23_4_10_5.png,,,,,,,,,,,,
,,,,,,,,,,,,All,Less than half,None,Many,More than half,Some,Few,Half,Most,0.054166695,-0.387963046,1,0,0,QQQ6,,,,,,,,English,2020-07-02_11h01.17.787,Experiment_English,3.2.4,Win32,60,,,,,,,,,,,,,,,,,,,,,1,0,340,7,1,339,ratio12_3_9_2.png,,,,,,,,,,,,
,,,,,,,,,,,,Some,More than half,Few,None,Most,All,Less than half,Half,Many,0.083796325,-0.023611127,1,0,0,QQQ5,,,,,,,,English,2020-07-02_11h01.17.787,Experiment_English,3.2.4,Win32,60,,,,,,,,,,,,,,,,,,,,,1,0,340,267,1,339,ratio41_8_10_4.png,,,,,,,,,,,,
,,,,,,,,,,,,Some,Few,Half,More than half,Many,All,None,Most,Less than half,0.021759286,0.254166659,1,0,0,QQQ4,,,,,,,,English,2020-07-02_11h01.17.787,Experiment_English,3.2.4,Win32,60,,,,,,,,,,,,,,,,,,,,,1,0,340,291,1,339,ratio43_8_14_5.png,,,,,,,,,,,,
,,,,,,,,,,,,More than half,Few,Less than half,Many,Half,All,None,Most,Some,-0.544444434,0.016666652,1,0,0,QQQ8,,,,,,,,English,2020-07-02_11h01.17.787,Experiment_English,3.2.4,Win32,60,,,,,,,,,,,,,,,,,,,,,1,0,340,335,1,339,ratio91_18_20_11.png,,,,,,,,,,,,
,,,,,,,,,,,,Many,More than half,All,None,Less than half,Half,Most,Some,Few,0.504166708,-0.297685265,1,0,0,QQQ3,,,,,,,,English,2020-07-02_11h01.17.787,Experiment_English,3.2.4,Win32,60,,,,,,,,,,,,,,,,,,,,,1,0,340,50,1,339,ratioX0_12_12_3.png,,,,,,,,,,,,
,,,,,,,,,,,,Less than half,None,Few,Most,Half,More than half,Some,All,Many,0.123611141,-0.045370387,1,0,0,QQQ5,,,,,,,,English,2020-07-02_11h01.17.787,Experiment_English,3.2.4,Win32,60,,,,,,,,,,,,,,,,,,,,,1,0,340,247,1,339,ratio34_3_7_12.png,,,,,,,,,,,,
,,,,,,,,,,,,Most,More than half,Few,Less than half,Half,None,All,Some,Many,0.042129714,-0.248611133,1,0,0,QQQ6,,,,,,,,English,2020-07-02_11h01.17.787,Experiment_English,3.2.4,Win32,60,,,,,,,,,,,,,,,,,,,,,1,0,340,79,1,339,ratio0Y_0_20_4.png,0.300000035,-0.407870397,1,0,0,continue_button_pause,1,0,1,0,1,0
,,,,,,,,,,,,,,,,,,,,,,,,,,,,,,,,,,English,2020-07-02_11h01.17.787,Experiment_English,3.2.4,Win32,60,,,,,,,,,,,,,,,,,,,,,1,0,340,79,1,339,ratio0Y_0_20_4.png,,,,,,,,,,,,
,,,,,,,,,,,,Some,Many,Most,All,Few,None,More than half,Less than half,Half,-0.020833307,-0.056944461,1,0,0,QQQ5,,,,,,,,English,2020-07-02_11h01.17.787,Experiment_English,3.2.4,Win32,60,,,,,,,,,,,,,,,,,,,,,1,0,340,96,1,339,ratio13_5_20_1.png,,,,,,,,,,,,
,,,,,,,,,,,,Many,None,All,Few,Most,Less than half,Half,More than half,Some,0.398148187,-0.011111126,1,0,0,QQQ2,,,,,,,,English,2020-07-02_11h01.17.787,Experiment_English,3.2.4,Win32,60,,,,,,,,,,,,,,,,,,,,,1,0,340,36,1,339,ratio11_9_18_1.png,,,,,,,,,,,,
,,,,,,,,,,,,More than half,Few,None,All,Most,Many,Some,Half,Less than half,-0.470370358,-0.021759275,1,0,0,QQQ8,,,,,,,,English,2020-07-02_11h01.17.787,Experiment_English,3.2.4,Win32,60,,,,,,,,,,,,,,,,,,,,,1,0,340,169,1,339,ratio21_6_9_7.png,,,,,,,,,,,,
,,,,,,,,,,,,Half,Many,More than half,Less than half,All,None,Few,Some,Most,0.512037079,-0.29166669,1,0,0,QQQ3,,,,,,,,English,2020-07-02_11h01.17.787,Experiment_English,3.2.4,Win32,60,,,,,,,,,,,,,,,,,,,,,1,0,340,236,1,339,ratio32_12_20_2.png,,,,,,,,,,,,
,,,,,,,,,,,,Less than half,Most,More than half,Some,None,Many,All,Few,Half,0.508333375,0.005555541,1,0,0,QQQ2,,,,,,,,English,2020-07-02_11h01.17.787,Experiment_English,3.2.4,Win32,60,,,,,,,,,,,,,,,,,,,,,1,0,340,277,1,339,ratio41_16_20_8.png,,,,,,,,,,,,
,,,,,,,,,,,,All,More than half,Many,Few,None,Less than half,Half,Some,Most,0.41111115,0.017592578,1,0,0,QQQ2,,,,,,,,English,2020-07-02_11h01.17.787,Experiment_English,3.2.4,Win32,60,,,,,,,,,,,,,,,,,,,,,1,0,340,160,1,339,ratio21_2_3_2.png,,,,,,,,,,,,
,,,,,,,,,,,,All,Few,None,Less than half,Most,Some,Half,More than half,Many,0.021759286,-0.043518535,1,0,0,QQQ5,,,,,,,,English,2020-07-02_11h01.17.787,Experiment_English,3.2.4,Win32,60,,,,,,,,,,,,,,,,,,,,,1,0,340,307,1,339,ratio51_10_12_1.png,,,,,,,,,,,,
,,,,,,,,,,,,Few,Half,All,More than half,Many,Most,Some,Less than half,None,0.523611153,0.245833326,1,0,0,QQQ1,,,,,,,,English,2020-07-02_11h01.17.787,Experiment_English,3.2.4,Win32,60,,,,,,,,,,,,,,,,,,,,,1,0,340,130,1,339,ratio15_2_12_12.png,,,,,,,,,,,,
,,,,,,,,,,,,None,Less than half,Half,More than half,All,Some,Many,Few,Most,0.001851935,0.236111103,1,0,0,QQQ4,,,,,,,,English,2020-07-02_11h01.17.787,Experiment_English,3.2.4,Win32,60,,,,,,,,,,,,,,,,,,,,,1,0,340,281,1,339,ratio43_4_7_4.png,,,,,,,,,,,,
,,,,,,,,,,,,All,Half,None,Less than half,Many,More than half,Most,Some,Few,0.383796334,-0.325000025,1,0,0,QQQ3,,,,,,,,English,2020-07-02_11h01.17.787,Experiment_English,3.2.4,Win32,60,,,,,,,,,,,,,,,,,,,,,1,0,340,71,1,339,ratio0Y_0_12_10.png,,,,,,,,,,,,
,,,,,,,,,,,,More than half,Half,Few,All,Many,Less than half,None,Some,Most,0.009259286,-0.308333357,1,0,0,QQQ6,,,,,,,,English,2020-07-02_11h01.17.787,Experiment_English,3.2.4,Win32,60,,,,,,,,,,,,,,,,,,,,,1,0,340,8,1,339,ratio12_3_9_4.png,,,,,,,,,,,,
,,,,,,,,,,,,Less than half,Half,Most,All,Many,More than half,None,Few,Some,-0.432407366,0.014351837,1,0,0,QQQ8,,,,,,,,English,2020-07-02_11h01.17.787,Experiment_English,3.2.4,Win32,60,,,,,,,,,,,,,,,,,,,,,1,0,340,190,1,339,ratio23_6_15_3.png,,,,,,,,,,,,
,,,,,,,,,,,,All,Most,Some,Less than half,Many,None,Few,More than half,Half,-0.419907365,0.230092585,1,0,0,QQQ7,,,,,,,,English,2020-07-02_11h01.17.787,Experiment_English,3.2.4,Win32,60,,,,,,,,,,,,,,,,,,,,,1,0,340,137,1,339,ratio15_3_18_16.png,,,,,,,,,,,,
,,,,,,,,,,,,Less than half,Few,Half,All,More than half,Many,Some,None,Most,0.4717593,-0.299074154,1,0,0,QQQ3,,,,,,,,English,2020-07-02_11h01.17.787,Experiment_English,3.2.4,Win32,60,,,,,,,,,,,,,,,,,,,,,1,0,340,297,1,339,ratio43_8_14_13.png,,,,,,,,,,,,
,,,,,,,,,,,,Most,Some,Many,More than half,Less than half,All,Half,Few,None,0.007870397,-0.053240757,1,0,0,QQQ5,,,,,,,,English,2020-07-02_11h01.17.787,Experiment_English,3.2.4,Win32,60,,,,,,,,,,,,,,,,,,,,,1,0,340,21,1,339,ratio11_2_4_10.png,,,,,,,,,,,,
,,,,,,,,,,,,Most,Less than half,Few,All,Some,Many,None,More than half,Half,0.534722265,0.277314794,1,0,0,QQQ1,,,,,,,,English,2020-07-02_11h01.17.787,Experiment_English,3.2.4,Win32,60,,,,,,,,,,,,,,,,,,,,,1,0,340,279,1,339,ratio41_16_20_10.png,,,,,,,,,,,,
,,,,,,,,,,,,Most,All,Some,Less than half,Many,Few,More than half,None,Half,-0.449537024,-0.024537053,1,0,0,QQQ8,,,,,,,,English,2020-07-02_11h01.17.787,Experiment_English,3.2.4,Win32,60,,,,,,,,,,,,,,,,,,,,,1,0,340,74,1,339,ratio0Y_0_15_10.png,,,,,,,,,,,,
,,,,,,,,,,,,Most,Less than half,Some,Half,More than half,Few,All,Many,None,-0.051388864,-0.023611127,1,0,0,QQQ5,,,,,,,,English,2020-07-02_11h01.17.787,Experiment_English,3.2.4,Win32,60,,,,,,,,,,,,,,,,,,,,,1,0,340,175,1,339,ratio21_10_15_2.png,,,,,,,,,,,,
,,,,,,,,,,,,Most,More than half,None,Few,Many,Half,All,Some,Less than half,-0.540277767,0.345370366,1,0,0,QQQ7,,,,,,,,English,2020-07-02_11h01.17.787,Experiment_English,3.2.4,Win32,60,,,,,,,,,,,,,,,,,,,,,1,0,340,52,1,339,ratioX0_13_13_10.png,,,,,,,,,,,,
,,,,,,,,,,,,Half,Many,Few,All,Less than half,More than half,Some,Most,None,-0.566666657,-0.035185201,1,0,0,QQQ8,,,,,,,,English,2020-07-02_11h01.17.787,Experiment_English,3.2.4,Win32,60,,,,,,,,,,,,,,,,,,,,,1,0,340,323,1,339,ratio91_9_10_5.png,,,,,,,,,,,,
,,,,,,,,,,,,Less than half,Some,Most,Few,More than half,All,Half,None,Many,0.009259286,0.260185178,1,0,0,QQQ4,,,,,,,,English,2020-07-02_11h01.17.787,Experiment_English,3.2.4,Win32,60,,,,,,,,,,,,,,,,,,,,,1,0,340,152,1,339,ratio19_2_20_6.png,,,,,,,,,,,,
,,,,,,,,,,,,Most,Few,None,All,Less than half,Half,More than half,Some,Many,0.440277817,-0.058796313,1,0,0,QQQ2,,,,,,,,English,2020-07-02_11h01.17.787,Experiment_English,3.2.4,Win32,60,,,,,,,,,,,,,,,,,,,,,1,0,340,131,1,339,ratio15_2_12_14.png,,,,,,,,,,,,
,,,,,,,,,,,,Few,Less than half,Many,None,More than half,Some,Most,All,Half,-0.018981399,-0.012500015,1,0,0,QQQ5,,,,,,,,English,2020-07-02_11h01.17.787,Experiment_English,3.2.4,Win32,60,,,,,,,,,,,,,,,,,,,,,1,0,340,258,1,339,ratio34_6_14_14.png,,,,,,,,,,,,
,,,,,,,,,,,,Some,Less than half,Many,Most,More than half,Few,None,All,Half,0.059259288,-0.016666682,1,0,0,QQQ5,,,,,,,,English,2020-07-02_11h01.17.787,Experiment_English,3.2.4,Win32,60,,,,,,,,,,,,,,,,,,,,,1,0,340,233,1,339,ratio32_9_15_9.png,,,,,,,,,,,,
,,,,,,,,,,,,Many,None,Less than half,Most,Some,Half,Few,More than half,All,-0.424074032,-0.001388904,1,0,0,QQQ8,,,,,,,,English,2020-07-02_11h01.17.787,Experiment_English,3.2.4,Win32,60,,,,,,,,,,,,,,,,,,,,,1,0,340,265,1,339,ratio41_8_10_1.png,,,,,,,,,,,,
,,,,,,,,,,,,None,Half,Less than half,Most,More than half,Some,Few,Many,All,-0.453703691,0.228240733,1,0,0,QQQ7,,,,,,,,English,2020-07-02_11h01.17.787,Experiment_English,3.2.4,Win32,60,,,,,,,,,,,,,,,,,,,,,1,0,340,144,1,339,ratio19_1_10_11.png,,,,,,,,,,,,
,,,,,,,,,,,,Many,Some,Most,Few,Less than half,More than half,All,Half,None,0.471296337,0.232870362,1,0,0,QQQ1,,,,,,,,English,2020-07-02_11h01.17.787,Experiment_English,3.2.4,Win32,60,,,,,,,,,,,,,,,,,,,,,1,0,340,215,1,339,ratio31_12_16_8.png,,,,,,,,,,,,
,,,,,,,,,,,,Some,None,Most,Half,Less than half,More than half,All,Few,Many,-0.010648065,0.040277764,1,0,0,QQQ5,,,,,,,,English,2020-07-02_11h01.17.787,Experiment_English,3.2.4,Win32,60,,,,,,,,,,,,,,,,,,,,,1,0,340,249,1,339,ratio34_3_7_20.png,,,,,,,,,,,,
,,,,,,,,,,,,Many,Most,Less than half,More than half,Some,None,Few,All,Half,-0.431944431,-0.254166689,1,0,0,QQQ9,,,,,,,,English,2020-07-02_11h01.17.787,Experiment_English,3.2.4,Win32,60,,,,,,,,,,,,,,,,,,,,,1,0,340,246,1,339,ratio34_3_7_11.png,,,,,,,,,,,,
,,,,,,,,,,,,Half,All,None,Few,Less than half,Most,More than half,Some,Many,0.435648188,-0.261574153,1,0,0,QQQ3,,,,,,,,English,2020-07-02_11h01.17.787,Experiment_English,3.2.4,Win32,60,,,,,,,,,,,,,,,,,,,,,1,0,340,69,1,339,ratio0Y_0_11_6.png,,,,,,,,,,,,
,,,,,,,,,,,,Most,All,Less than half,Some,Half,None,Few,Many,More than half,0.403240779,0.264814794,1,0,0,QQQ1,,,,,,,,English,2020-07-02_11h01.17.787,Experiment_English,3.2.4,Win32,60,,,,,,,,,,,,,,,,,,,,,1,0,340,278,1,339,ratio41_16_20_9.png,,,,,,,,,,,,
,,,,,,,,,,,,None,Few,Many,More than half,All,Less than half,Some,Most,Half,0.478240781,0.026851809,1,0,0,QQQ2,,,,,,,,English,2020-07-02_11h01.17.787,Experiment_English,3.2.4,Win32,60,,,,,,,,,,,,,,,,,,,,,1,0,340,82,1,339,ratio13_1_4_7.png,,,,,,,,,,,,
,,,,,,,,,,,,None,Few,More than half,Most,Half,Some,All,Less than half,Many,-0.58425925,0.010648134,1,0,0,QQQ8,,,,,,,,English,2020-07-02_11h01.17.787,Experiment_English,3.2.4,Win32,60,,,,,,,,,,,,,,,,,,,,,1,0,340,191,1,339,ratio23_6_15_7.png,,,,,,,,,,,,
,,,,,,,,,,,,Some,Few,Most,Many,All,Less than half,Half,None,More than half,-0.464351811,0.256944437,1,0,0,QQQ7,,,,,,,,English,2020-07-02_11h01.17.787,Experiment_English,3.2.4,Win32,60,,,,,,,,,,,,,,,,,,,,,1,0,340,241,1,339,ratio34_3_7_5.png,0.284722257,-0.407407491,1,0,0,continue_button_pause,1,0,1,0,1,0
,,,,,,,,,,,,,,,,,,,,,,,,,,,,,,,,,,English,2020-07-02_11h01.17.787,Experiment_English,3.2.4,Win32,60,,,,,,,,,,,,,,,,,,,,,1,0,340,241,1,339,ratio34_3_7_5.png,,,,,,,,,,,,
,,,,,,,,,,,,More than half,Many,All,Most,Few,Half,Some,Less than half,None,-0.546759249,-0.303703728,1,0,0,QQQ9,,,,,,,,English,2020-07-02_11h01.17.787,Experiment_English,3.2.4,Win32,60,,,,,,,,,,,,,,,,,,,,,1,0,340,66,1,339,ratio0Y_0_9_8.png,,,,,,,,,,,,
,,,,,,,,,,,,Many,Less than half,Most,Few,Half,None,More than half,Some,All,0.493055597,-0.012500015,1,0,0,QQQ2,,,,,,,,English,2020-07-02_11h01.17.787,Experiment_English,3.2.4,Win32,60,,,,,,,,,,,,,,,,,,,,,1,0,340,242,1,339,ratio34_3_7_6.png,,,,,,,,,,,,
,,,,,,,,,,,,None,Half,Some,More than half,All,Most,Less than half,Many,Few,-0.40694443,-0.295833357,1,0,0,QQQ9,,,,,,,,English,2020-07-02_11h01.17.787,Experiment_English,3.2.4,Win32,60,,,,,,,,,,,,,,,,,,,,,1,0,340,142,1,339,ratio19_1_10_6.png,,,,,,,,,,,,
,,,,,,,,,,,,Most,Some,None,More than half,All,Less than half,Few,Half,Many,0.037963047,0.270370349,1,0,0,QQQ4,,,,,,,,English,2020-07-02_11h01.17.787,Experiment_English,3.2.4,Win32,60,,,,,,,,,,,,,,,,,,,,,1,0,340,332,1,339,ratio91_18_20_4.png,,,,,,,,,,,,
,,,,,,,,,,,,Half,Some,Many,None,Less than half,More than half,Few,All,Most,0.000463046,-0.295833357,1,0,0,QQQ6,,,,,,,,English,2020-07-02_11h01.17.787,Experiment_English,3.2.4,Win32,60,,,,,,,,,,,,,,,,,,,,,1,0,340,32,1,339,ratio11_7_14_5.png,,,,,,,,,,,,
,,,,,,,,,,,,Many,Few,Half,Some,Most,Less than half,All,More than half,None,0.43287041,0.018981467,1,0,0,QQQ2,,,,,,,,English,2020-07-02_11h01.17.787,Experiment_English,3.2.4,Win32,60,,,,,,,,,,,,,,,,,,,,,1,0,340,140,1,339,ratio19_1_10_1.png,,,,,,,,,,,,
,,,,,,,,,,,,More than half,Some,Few,Most,None,Half,Less than half,All,Many,-0.007870288,0.254629622,1,0,0,QQQ4,,,,,,,,English,2020-07-02_11h01.17.787,Experiment_English,3.2.4,Win32,60,,,,,,,,,,,,,,,,,,,,,1,0,340,334,1,339,ratio91_18_20_9.png,,,,,,,,,,,,
,,,,,,,,,,,,More than half,Many,All,None,Most,Half,Less than half,Few,Some,0.014351935,-0.024537053,1,0,0,QQQ5,,,,,,,,English,2020-07-02_11h01.17.787,Experiment_English,3.2.4,Win32,60,,,,,,,,,,,,,,,,,,,,,1,0,340,231,1,339,ratio32_9_15_2.png,,,,,,,,,,,,
,,,,,,,,,,,,Few,Half,Most,None,All,Many,More than half,Some,Less than half,0.464814855,0.275925905,1,0,0,QQQ1,,,,,,,,English,2020-07-02_11h01.17.787,Experiment_English,3.2.4,Win32,60,,,,,,,,,,,,,,,,,,,,,1,0,340,127,1,339,ratio15_2_12_2.png,,,,,,,,,,,,
,,,,,,,,,,,,Many,Less than half,Most,Some,Half,More than half,Few,All,None,0.004629713,-0.038888905,1,0,0,QQQ5,,,,,,,,English,2020-07-02_11h01.17.787,Experiment_English,3.2.4,Win32,60,,,,,,,,,,,,,,,,,,,,,1,0,340,230,1,339,ratio32_9_15_1.png,,,,,,,,,,,,
,,,,,,,,,,,,Many,All,Most,Less than half,Some,Half,Few,None,More than half,-0.012499974,0.319444439,1,0,0,QQQ4,,,,,,,,English,2020-07-02_11h01.17.787,Experiment_English,3.2.4,Win32,60,,,,,,,,,,,,,,,,,,,,,1,0,340,17,1,339,ratio12_6_18_5.png,,,,,,,,,,,,
,,,,,,,,,,,,None,Less than half,Most,All,More than half,Few,Many,Some,Half,0.475463004,-0.296759283,1,0,0,QQQ3,,,,,,,,English,2020-07-02_11h01.17.787,Experiment_English,3.2.4,Win32,60,,,,,,,,,,,,,,,,,,,,,1,0,340,329,1,339,ratio91_9_10_20.png,,,,,,,,,,,,
,,,,,,,,,,,,More than half,Few,Half,Many,Most,All,Some,Less than half,None,0.001388915,0.22314814,1,0,0,QQQ4,,,,,,,,English,2020-07-02_11h01.17.787,Experiment_English,3.2.4,Win32,60,,,,,,,,,,,,,,,,,,,,,1,0,340,173,1,339,ratio21_8_12_9.png,,,,,,,,,,,,
,,,,,,,,,,,,More than half,Many,All,Less than half,Some,Few,None,Half,Most,0.425925965,0.250925919,1,0,0,QQQ1,,,,,,,,English,2020-07-02_11h01.17.787,Experiment_English,3.2.4,Win32,60,,,,,,,,,,,,,,,,,,,,,1,0,340,204,1,339,ratio31_6_8_1.png,,,,,,,,,,,,
,,,,,,,,,,,,None,More than half,Some,Many,Less than half,Few,All,Most,Half,-0.006944418,-0.337963044,1,0,0,QQQ6,,,,,,,,English,2020-07-02_11h01.17.787,Experiment_English,3.2.4,Win32,60,,,,,,,,,,,,,,,,,,,,,1,0,340,83,1,339,ratio13_1_4_10.png,,,,,,,,,,,,
,,,,,,,,,,,,Half,Less than half,None,More than half,Many,Most,Some,Few,All,0.525000042,0.250925919,1,0,0,QQQ1,,,,,,,,English,2020-07-02_11h01.17.787,Experiment_English,3.2.4,Win32,60,,,,,,,,,,,,,,,,,,,,,1,0,340,251,1,339,ratio34_6_14_2.png,,,,,,,,,,,,
,,,,,,,,,,,,Many,Most,Half,More than half,Less than half,All,None,Few,Some,0.418055595,-0.056481498,1,0,0,QQQ2,,,,,,,,English,2020-07-02_11h01.17.787,Experiment_English,3.2.4,Win32,60,,,,,,,,,,,,,,,,,,,,,1,0,340,200,1,339,ratio31_3_4_4.png,,,,,,,,,,,,
,,,,,,,,,,,,Less than half,Few,Some,All,None,More than half,Many,Half,Most,-0.032407382,-0.340740822,1,0,0,QQQ6,,,,,,,,English,2020-07-02_11h01.17.787,Experiment_English,3.2.4,Win32,60,,,,,,,,,,,,,,,,,,,,,1,0,340,210,1,339,ratio31_9_12_9.png,,,,,,,,,,,,
,,,,,,,,,,,,None,Some,Few,Half,Most,More than half,Less than half,All,Many,0.011111138,-0.050925942,1,0,0,QQQ5,,,,,,,,English,2020-07-02_11h01.17.787,Experiment_English,3.2.4,Win32,60,,,,,,,,,,,,,,,,,,,,,1,0,340,270,1,339,ratio41_12_15_3.png,,,,,,,,,,,,
,,,,,,,,,,,,Half,More than half,Few,Some,Many,None,Less than half,All,Most,0.005555582,-0.043055572,1,0,0,QQQ5,,,,,,,,English,2020-07-02_11h01.17.787,Experiment_English,3.2.4,Win32,60,,,,,,,,,,,,,,,,,,,,,1,0,340,205,1,339,ratio31_6_8_2.png,,,,,,,,,,,,
,,,,,,,,,,,,Few,None,Many,More than half,Less than half,Most,Half,Some,All,-0.051388864,-0.295833357,1,0,0,QQQ6,,,,,,,,English,2020-07-02_11h01.17.787,Experiment_English,3.2.4,Win32,60,,,,,,,,,,,,,,,,,,,,,1,0,340,227,1,339,ratio32_6_10_6.png,,,,,,,,,,,,
,,,,,,,,,,,,Most,Half,More than half,None,Few,Some,Many,Less than half,All,0.378240779,-0.020370386,1,0,0,QQQ2,,,,,,,,English,2020-07-02_11h01.17.787,Experiment_English,3.2.4,Win32,60,,,,,,,,,,,,,,,,,,,,,1,0,340,24,1,339,ratio11_4_8_3.png,,,,,,,,,,,,
,,,,,,,,,,,,Less than half,Most,All,Few,Half,Many,More than half,None,Some,0.408333372,-0.043981498,1,0,0,QQQ2,,,,,,,,English,2020-07-02_11h01.17.787,Experiment_English,3.2.4,Win32,60,,,,,,,,,,,,,,,,,,,,,1,0,340,174,1,339,ratio21_10_15_1.png,,,,,,,,,,,,
,,,,,,,,,,,,Some,Most,More than half,Half,Few,None,Less than half,All,Many,-0.050462938,-0.04120372,1,0,0,QQQ5,,,,,,,,English,2020-07-02_11h01.17.787,Experiment_English,3.2.4,Win32,60,,,,,,,,,,,,,,,,,,,,,1,0,340,141,1,339,ratio19_1_10_2.png,,,,,,,,,,,,
,,,,,,,,,,,,Some,Few,Many,All,Less than half,Half,None,Most,More than half,-0.496759248,-0.275925949,1,0,0,QQQ9,,,,,,,,English,2020-07-02_11h01.17.787,Experiment_English,3.2.4,Win32,60,,,,,,,,,,,,,,,,,,,,,1,0,340,213,1,339,ratio31_12_16_2.png,,,,,,,,,,,,
,,,,,,,,,,,,Few,None,More than half,Some,All,Half,Many,Most,Less than half,0.498148189,0.281944438,1,0,0,QQQ1,,,,,,,,English,2020-07-02_11h01.17.787,Experiment_English,3.2.4,Win32,60,,,,,,,,,,,,,,,,,,,,,1,0,340,159,1,339,ratio19_2_20_20.png,,,,,,,,,,,,
,,,,,,,,,,,,Many,Most,More than half,Few,Some,Half,Less than half,All,None,-0.015740715,0.228703696,1,0,0,QQQ4,,,,,,,,English,2020-07-02_11h01.17.787,Experiment_English,3.2.4,Win32,60,,,,,,,,,,,,,,,,,,,,,1,0,340,97,1,339,ratio13_5_20_2.png,,,,,,,,,,,,
,,,,,,,,,,,,None,Half,Many,Less than half,All,Most,Some,Few,More than half,-0.090277754,0.056944431,1,0,0,QQQ5,,,,,,,,English,2020-07-02_11h01.17.787,Experiment_English,3.2.4,Win32,60,,,,,,,,,,,,,,,,,,,,,1,0,340,45,1,339,ratioX0_8_8_3.png,,,,,,,,,,,,
,,,,,,,,,,,,More than half,Some,Many,Half,Few,Most,All,None,Less than half,-0.436111098,0.336111106,1,0,0,QQQ7,,,,,,,,English,2020-07-02_11h01.17.787,Experiment_English,3.2.4,Win32,60,,,,,,,,,,,,,,,,,,,,,1,0,340,54,1,339,ratioX0_15_15_5.png,,,,,,,,,,,,
,,,,,,,,,,,,None,All,More than half,Many,Few,Half,Most,Some,Less than half,0.487500041,0.261574067,1,0,0,QQQ1,,,,,,,,English,2020-07-02_11h01.17.787,Experiment_English,3.2.4,Win32,60,,,,,,,,,,,,,,,,,,,,,1,0,340,68,1,339,ratio0Y_0_11_3.png,,,,,,,,,,,,
,,,,,,,,,,,,Few,Some,None,Most,Many,Less than half,Half,More than half,All,-0.037499975,0.254166659,1,0,0,QQQ4,,,,,,,,English,2020-07-02_11h01.17.787,Experiment_English,3.2.4,Win32,60,,,,,,,,,,,,,,,,,,,,,1,0,340,280,1,339,ratio43_4_7_2.png,,,,,,,,,,,,
,,,,,,,,,,,,Many,Half,Some,Few,Less than half,More than half,Most,All,None,-0.630555548,-0.019907423,1,0,0,QQQ8,,,,,,,,English,2020-07-02_11h01.17.787,Experiment_English,3.2.4,Win32,60,,,,,,,,,,,,,,,,,,,,,1,0,340,42,1,339,ratioX0_5_5_5.png,,,,,,,,,,,,
,,,,,,,,,,,,Few,Less than half,Many,None,Half,Most,Some,All,More than half,-0.42685181,0.250925919,1,0,0,QQQ7,,,,,,,,English,2020-07-02_11h01.17.787,Experiment_English,3.2.4,Win32,60,,,,,,,,,,,,,,,,,,,,,1,0,340,119,1,339,ratio14_4_20_10.png,,,,,,,,,,,,
,,,,,,,,,,,,Half,Some,None,Many,More than half,Few,All,Most,Less than half,-0.50462959,0.238888881,1,0,0,QQQ7,,,,,,,,English,2020-07-02_11h01.17.787,Experiment_English,3.2.4,Win32,60,,,,,,,,,,,,,,,,,,,,,1,0,340,44,1,339,ratioX0_7_7_5.png,0.343981518,-0.414814842,1,0,0,continue_button_pause,1,0,1,0,1,0
,,,,,,,,,,,,,,,,,,,,,,,,,,,,,,,,,,English,2020-07-02_11h01.17.787,Experiment_English,3.2.4,Win32,60,,,,,,,,,,,,,,,,,,,,,1,0,340,44,1,339,ratioX0_7_7_5.png,,,,,,,,,,,,
,,,,,,,,,,,,Some,Less than half,All,Most,Half,None,Few,Many,More than half,-0.368518503,-0.304166691,1,0,0,QQQ9,,,,,,,,English,2020-07-02_11h01.17.787,Experiment_English,3.2.4,Win32,60,,,,,,,,,,,,,,,,,,,,,1,0,340,28,1,339,ratio11_5_10_9.png,,,,,,,,,,,,
,,,,,,,,,,,,Most,Many,Less than half,More than half,Some,Few,None,Half,All,-0.505092581,-0.026388905,1,0,0,QQQ8,,,,,,,,English,2020-07-02_11h01.17.787,Experiment_English,3.2.4,Win32,60,,,,,,,,,,,,,,,,,,,,,1,0,340,10,1,339,ratio12_4_12_4.png,,,,,,,,,,,,
,,,,,,,,,,,,Less than half,More than half,All,None,Half,Few,Many,Most,Some,-0.438425913,-0.039351868,1,0,0,QQQ8,,,,,,,,English,2020-07-02_11h01.17.787,Experiment_English,3.2.4,Win32,60,,,,,,,,,,,,,,,,,,,,,1,0,340,321,1,339,ratio91_9_10_2.png,,,,,,,,,,,,
,,,,,,,,,,,,Most,All,Half,Some,Less than half,Many,None,Few,More than half,-0.418518476,-0.003240756,1,0,0,QQQ8,,,,,,,,English,2020-07-02_11h01.17.787,Experiment_English,3.2.4,Win32,60,,,,,,,,,,,,,,,,,,,,,1,0,340,5,1,339,ratio12_2_6_9.png,,,,,,,,,,,,
,,,,,,,,,,,,More than half,Many,Few,Half,Less than half,Some,Most,None,All,-0.466203691,-0.257870393,1,0,0,QQQ9,,,,,,,,English,2020-07-02_11h01.17.787,Experiment_English,3.2.4,Win32,60,,,,,,,,,,,,,,,,,,,,,1,0,340,59,1,339,ratioX0_20_20_9.png,,,,,,,,,,,,
,,,,,,,,,,,,More than half,Few,All,Half,Less than half,Some,None,Most,Many,0.433333373,0.333333328,1,0,0,QQQ1,,,,,,,,English,2020-07-02_11h01.17.787,Experiment_English,3.2.4,Win32,60,,,,,,,,,,,,,,,,,,,,,1,0,340,314,1,339,ratio51_15_18_4.png,,,,,,,,,,,,
,,,,,,,,,,,,Less than half,Half,More than half,Most,All,Few,Some,Many,None,0.564814971,-0.055555572,1,0,0,QQQ2,,,,,,,,English,2020-07-02_11h01.17.787,Experiment_English,3.2.4,Win32,60,,,,,,,,,,,,,,,,,,,,,1,0,340,239,1,339,ratio32_12_20_10.png,,,,,,,,,,,,
,,,,,,,,,,,,All,Less than half,Some,Most,None,Few,Many,Half,More than half,-0.066203623,-0.329166691,1,0,0,QQQ6,,,,,,,,English,2020-07-02_11h01.17.787,Experiment_English,3.2.4,Win32,60,,,,,,,,,,,,,,,,,,,,,1,0,340,157,1,339,ratio19_2_20_16.png,,,,,,,,,,,,
,,,,,,,,,,,,Half,More than half,Many,Less than half,All,None,Some,Most,Few,-0.420370356,-0.008333348,1,0,0,QQQ8,,,,,,,,English,2020-07-02_11h01.17.787,Experiment_English,3.2.4,Win32,60,,,,,,,,,,,,,,,,,,,,,1,0,340,274,1,339,ratio41_12_15_9.png,,,,,,,,,,,,
,,,,,,,,,,,,Some,None,Many,Most,Few,Half,More than half,Less than half,All,-0.522685146,0.315277772,1,0,0,QQQ7,,,,,,,,English,2020-07-02_11h01.17.787,Experiment_English,3.2.4,Win32,60,,,,,,,,,,,,,,,,,,,,,1,0,340,295,1,339,ratio43_8_14_11.png,,,,,,,,,,,,
,,,,,,,,,,,,Half,Most,More than half,None,Some,Many,Less than half,Few,All,0.434722262,-0.015277793,1,0,0,QQQ2,,,,,,,,English,2020-07-02_11h01.17.787,Experiment_English,3.2.4,Win32,60,,,,,,,,,,,,,,,,,,,,,1,0,340,327,1,339,ratio91_9_10_11.png,,,,,,,,,,,,
,,,,,,,,,,,,More than half,Few,Half,All,Some,Many,Most,Less than half,None,0.46250004,0.271296289,1,0,0,QQQ1,,,,,,,,English,2020-07-02_11h01.17.787,Experiment_English,3.2.4,Win32,60,,,,,,,,,,,,,,,,,,,,,1,0,340,217,1,339,ratio31_15_20_5.png,,,,,,,,,,,,
,,,,,,,,,,,,More than half,Less than half,None,Most,All,Half,Many,Some,Few,-0.476388877,-0.289351932,1,0,0,QQQ9,,,,,,,,English,2020-07-02_11h01.17.787,Experiment_English,3.2.4,Win32,60,,,,,,,,,,,,,,,,,,,,,1,0,340,110,1,339,ratio14_3_15_2.png,,,,,,,,,,,,
,,,,,,,,,,,,All,Few,None,Less than half,Many,Some,More than half,Most,Half,-0.468055543,0.262499993,1,0,0,QQQ7,,,,,,,,English,2020-07-02_11h01.17.787,Experiment_English,3.2.4,Win32,60,,,,,,,,,,,,,,,,,,,,,1,0,340,235,1,339,ratio32_12_20_1.png,,,,,,,,,,,,
,,,,,,,,,,,,None,Most,Few,Some,Less than half,All,More than half,Half,Many,0.449074114,-0.037962979,1,0,0,QQQ2,,,,,,,,English,2020-07-02_11h01.17.787,Experiment_English,3.2.4,Win32,60,,,,,,,,,,,,,,,,,,,,,1,0,340,262,1,339,ratio41_4_5_4.png,,,,,,,,,,,,
,,,,,,,,,,,,More than half,Half,None,All,Few,Less than half,Most,Many,Some,-0.026851826,-0.017592608,1,0,0,QQQ5,,,,,,,,English,2020-07-02_11h01.17.787,Experiment_English,3.2.4,Win32,60,,,,,,,,,,,,,,,,,,,,,1,0,340,129,1,339,ratio15_2_12_9.png,,,,,,,,,,,,
,,,,,,,,,,,,All,Some,Less than half,None,Few,Half,More than half,Most,Many,0.512963005,-0.044444461,1,0,0,QQQ2,,,,,,,,English,2020-07-02_11h01.17.787,Experiment_English,3.2.4,Win32,60,,,,,,,,,,,,,,,,,,,,,1,0,340,154,1,339,ratio19_2_20_11.png,,,,,,,,,,,,
,,,,,,,,,,,,None,All,Less than half,Many,Half,More than half,Most,Some,Few,0.043518603,-0.022685201,1,0,0,QQQ5,,,,,,,,English,2020-07-02_11h01.17.787,Experiment_English,3.2.4,Win32,60,,,,,,,,,,,,,,,,,,,,,1,0,340,186,1,339,ratio23_4_10_2.png,,,,,,,,,,,,
,,,,,,,,,,,,Half,Most,None,Few,More than half,Less than half,Some,All,Many,0.06435188,-0.023148164,1,0,0,QQQ5,,,,,,,,English,2020-07-02_11h01.17.787,Experiment_English,3.2.4,Win32,60,,,,,,,,,,,,,,,,,,,,,1,0,340,292,1,339,ratio43_8_14_6.png,,,,,,,,,,,,
,,,,,,,,,,,,Many,Some,More than half,None,Few,Most,Half,Less than half,All,0.13425929,-0.327777802,1,0,0,QQQ6,,,,,,,,English,2020-07-02_11h01.17.787,Experiment_English,3.2.4,Win32,60,,,,,,,,,,,,,,,,,,,,,1,0,340,162,1,339,ratio21_2_3_9.png,,,,,,,,,,,,
,,,,,,,,,,,,All,Many,Few,Less than half,Most,More than half,None,Some,Half,-0.014351826,-0.008796311,1,0,0,QQQ5,,,,,,,,English,2020-07-02_11h01.17.787,Experiment_English,3.2.4,Win32,60,,,,,,,,,,,,,,,,,,,,,1,0,340,13,1,339,ratio12_5_15_3.png,,,,,,,,,,,,
,,,,,,,,,,,,Few,Some,None,Many,Half,All,Less than half,Most,More than half,0.064814843,-0.053240757,1,0,0,QQQ5,,,,,,,,English,2020-07-02_11h01.17.787,Experiment_English,3.2.4,Win32,60,,,,,,,,,,,,,,,,,,,,,1,0,340,300,1,339,ratio51_5_6_1.png,,,,,,,,,,,,
,,,,,,,,,,,,More than half,Most,Few,Some,Less than half,Half,Many,All,None,0.069444473,-0.044444461,1,0,0,QQQ5,,,,,,,,English,2020-07-02_11h01.17.787,Experiment_English,3.2.4,Win32,60,,,,,,,,,,,,,,,,,,,,,1,0,340,244,1,339,ratio34_3_7_9.png,,,,,,,,,,,,
,,,,,,,,,,,,Few,Many,Some,None,All,More than half,Less than half,Most,Half,-0.490740701,-0.280092616,1,0,0,QQQ9,,,,,,,,English,2020-07-02_11h01.17.787,Experiment_English,3.2.4,Win32,60,,,,,,,,,,,,,,,,,,,,,1,0,340,38,1,339,ratio11_10_20_5.png,,,,,,,,,,,,
,,,,,,,,,,,,Few,None,Half,More than half,All,Most,Many,Some,Less than half,0.429629669,0.047685143,1,0,0,QQQ2,,,,,,,,English,2020-07-02_11h01.17.787,Experiment_English,3.2.4,Win32,60,,,,,,,,,,,,,,,,,,,,,1,0,340,70,1,339,ratio0Y_0_12_5.png,,,,,,,,,,,,
,,,,,,,,,,,,More than half,Some,Few,None,Half,Most,All,Many,Less than half,2.6491E-08,-0.012037052,1,0,0,QQQ5,,,,,,,,English,2020-07-02_11h01.17.787,Experiment_English,3.2.4,Win32,60,,,,,,,,,,,,,,,,,,,,,1,0,340,185,1,339,ratio23_4_10_1.png,,,,,,,,,,,,
,,,,,,,,,,,,More than half,Few,All,Half,Less than half,Most,None,Some,Many,0.046759287,-0.313888913,1,0,0,QQQ6,,,,,,,,English,2020-07-02_11h01.17.787,Experiment_English,3.2.4,Win32,60,,,,,,,,,,,,,,,,,,,,,1,0,340,216,1,339,ratio31_15_20_3.png,,,,,,,,,,,,
,,,,,,,,,,,,More than half,Many,Some,Most,Less than half,Few,Half,All,None,0.012037064,-1.4912E-08,1,0,0,QQQ5,,,,,,,,English,2020-07-02_11h01.17.787,Experiment_English,3.2.4,Win32,60,,,,,,,,,,,,,,,,,,,,,1,0,340,145,1,339,ratio19_1_10_15.png,,,,,,,,,,,,
,,,,,,,,,,,,More than half,None,Most,Some,Few,Half,All,Many,Less than half,-0.572685176,0.250462956,1,0,0,QQQ7,,,,,,,,English,2020-07-02_11h01.17.787,Experiment_English,3.2.4,Win32,60,,,,,,,,,,,,,,,,,,,,,1,0,340,41,1,339,ratioX0_4_4_9.png,,,,,,,,,,,,
,,,,,,,,,,,,Few,None,Many,All,Less than half,Most,Some,Half,More than half,0.124074104,-0.303703728,1,0,0,QQQ6,,,,,,,,English,2020-07-02_11h01.17.787,Experiment_English,3.2.4,Win32,60,,,,,,,,,,,,,,,,,,,,,1,0,340,225,1,339,ratio32_6_10_4.png,,,,,,,,,,,,
,,,,,,,,,,,,Some,Less than half,More than half,Few,None,Many,Most,All,Half,0.027777805,-0.307407488,1,0,0,QQQ6,,,,,,,,English,2020-07-02_11h01.17.787,Experiment_English,3.2.4,Win32,60,,,,,,,,,,,,,,,,,,,,,1,0,340,263,1,339,ratio41_4_5_5.png,,,,,,,,,,,,
,,,,,,,,,,,,Most,None,Half,All,Some,Many,Less than half,More than half,Few,-0.502314803,-0.371296379,1,0,0,QQQ9,,,,,,,,English,2020-07-02_11h01.17.787,Experiment_English,3.2.4,Win32,60,,,,,,,,,,,,,,,,,,,,,1,0,340,85,1,339,ratio13_2_8_5.png,,,,,,,,,,,,
,,,,,,,,,,,,Many,Half,Less than half,None,Some,Most,All,Few,More than half,-0.105555532,-0.267592615,1,0,0,QQQ6,,,,,,,,English,2020-07-02_11h01.17.787,Experiment_English,3.2.4,Win32,60,,,,,,,,,,,,,,,,,,,,,1,0,340,177,1,339,ratio21_12_18_1.png,,,,,,,,,,,,
,,,,,,,,,,,,More than half,None,All,Many,Few,Half,Some,Less than half,Most,0.563426082,0.026388875,1,0,0,QQQ2,,,,,,,,English,2020-07-02_11h01.17.787,Experiment_English,3.2.4,Win32,60,,,,,,,,,,,,,,,,,,,,,1,0,340,63,1,339,ratio0Y_0_6_8.png,0.313425962,-0.394444471,1,0,0,continue_button_pause,1,0,1,0,1,0
,,,,,,,,,,,,,,,,,,,,,,,,,,,,,,,,,,English,2020-07-02_11h01.17.787,Experiment_English,3.2.4,Win32,60,,,,,,,,,,,,,,,,,,,,,1,0,340,63,1,339,ratio0Y_0_6_8.png,,,,,,,,,,,,
,,,,,,,,,,,,Some,All,Few,Many,Less than half,Half,None,Most,More than half,-0.062499975,-0.048611127,1,0,0,QQQ5,,,,,,,,English,2020-07-02_11h01.17.787,Experiment_English,3.2.4,Win32,60,,,,,,,,,,,,,,,,,,,,,1,0,340,298,1,339,ratio43_8_14_14.png,,,,,,,,,,,,
,,,,,,,,,,,,All,Less than half,More than half,None,Half,Many,Most,Some,Few,-0.017129604,0.305092573,1,0,0,QQQ4,,,,,,,,English,2020-07-02_11h01.17.787,Experiment_English,3.2.4,Win32,60,,,,,,,,,,,,,,,,,,,,,1,0,340,72,1,339,ratio0Y_0_13_4.png,,,,,,,,,,,,
,,,,,,,,,,,,More than half,Few,All,Many,Most,Some,None,Less than half,Half,-0.426388875,0.287499994,1,0,0,QQQ7,,,,,,,,English,2020-07-02_11h01.17.787,Experiment_English,3.2.4,Win32,60,,,,,,,,,,,,,,,,,,,,,1,0,340,62,1,339,ratio0Y_0_5_4.png,,,,,,,,,,,,
,,,,,,,,,,,,Most,All,Half,Some,Few,Many,More than half,Less than half,None,-0.435185143,0.280555549,1,0,0,QQQ7,,,,,,,,English,2020-07-02_11h01.17.787,Experiment_English,3.2.4,Win32,60,,,,,,,,,,,,,,,,,,,,,1,0,340,166,1,339,ratio21_6_9_1.png,,,,,,,,,,,,
,,,,,,,,,,,,Half,More than half,Less than half,Few,All,Some,None,Many,Most,-0.442129588,-0.29166669,1,0,0,QQQ9,,,,,,,,English,2020-07-02_11h01.17.787,Experiment_English,3.2.4,Win32,60,,,,,,,,,,,,,,,,,,,,,1,0,340,339,1,339,ratio91_18_20_19.png,,,,,,,,,,,,
,,,,,,,,,,,,Half,Less than half,Most,Many,None,Some,All,Few,More than half,0.475463004,-0.288888912,1,0,0,QQQ3,,,,,,,,English,2020-07-02_11h01.17.787,Experiment_English,3.2.4,Win32,60,,,,,,,,,,,,,,,,,,,,,1,0,340,286,1,339,ratio43_4_7_15.png,,,,,,,,,,,,
,,,,,,,,,,,,Many,Less than half,Half,More than half,Few,Some,Most,All,None,-0.507870359,0.268055549,1,0,0,QQQ7,,,,,,,,English,2020-07-02_11h01.17.787,Experiment_English,3.2.4,Win32,60,,,,,,,,,,,,,,,,,,,,,1,0,340,202,1,339,ratio31_3_4_8.png,,,,,,,,,,,,
,,,,,,,,,,,,Some,None,More than half,Many,Most,All,Less than half,Half,Few,-0.383333318,0.255092585,1,0,0,QQQ7,,,,,,,,English,2020-07-02_11h01.17.787,Experiment_English,3.2.4,Win32,60,,,,,,,,,,,,,,,,,,,,,1,0,340,194,1,339,ratio23_6_15_10.png,,,,,,,,,,,,
,,,,,,,,,,,,More than half,Some,Most,Few,None,Half,All,Many,Less than half,0.457870411,0.006018504,1,0,0,QQQ2,,,,,,,,English,2020-07-02_11h01.17.787,Experiment_English,3.2.4,Win32,60,,,,,,,,,,,,,,,,,,,,,1,0,340,89,1,339,ratio13_3_12_6.png,,,,,,,,,,,,
,,,,,,,,,,,,Some,None,Most,Many,Less than half,All,More than half,Half,Few,-0.503240701,0.280555549,1,0,0,QQQ7,,,,,,,,English,2020-07-02_11h01.17.787,Experiment_English,3.2.4,Win32,60,,,,,,,,,,,,,,,,,,,,,1,0,340,296,1,339,ratio43_8_14_12.png,,,,,,,,,,,,
,,,,,,,,,,,,Less than half,Some,Many,Most,All,More than half,None,Few,Half,0.002314841,-0.293055579,1,0,0,QQQ6,,,,,,,,English,2020-07-02_11h01.17.787,Experiment_English,3.2.4,Win32,60,,,,,,,,,,,,,,,,,,,,,1,0,340,272,1,339,ratio41_12_15_7.png,,,,,,,,,,,,
,,,,,,,,,,,,Some,Less than half,Most,Few,None,Many,More than half,All,Half,0.478703744,-0.293055579,1,0,0,QQQ3,,,,,,,,English,2020-07-02_11h01.17.787,Experiment_English,3.2.4,Win32,60,,,,,,,,,,,,,,,,,,,,,1,0,340,271,1,339,ratio41_12_15_6.png,,,,,,,,,,,,
,,,,,,,,,,,,Half,Most,More than half,Less than half,Many,Some,All,Few,None,-0.420833319,-0.012037052,1,0,0,QQQ8,,,,,,,,English,2020-07-02_11h01.17.787,Experiment_English,3.2.4,Win32,60,,,,,,,,,,,,,,,,,,,,,1,0,340,195,1,339,ratio23_8_20_1.png,,,,,,,,,,,,
,,,,,,,,,,,,All,More than half,Less than half,Most,Some,None,Many,Half,Few,0.548148304,-0.032407423,1,0,0,QQQ2,,,,,,,,English,2020-07-02_11h01.17.787,Experiment_English,3.2.4,Win32,60,,,,,,,,,,,,,,,,,,,,,1,0,340,288,1,339,ratio43_4_7_18.png,,,,,,,,,,,,
,,,,,,,,,,,,None,Half,Few,More than half,All,Some,Many,Most,Less than half,0.011574157,0.241203696,1,0,0,QQQ4,,,,,,,,English,2020-07-02_11h01.17.787,Experiment_English,3.2.4,Win32,60,,,,,,,,,,,,,,,,,,,,,1,0,340,167,1,339,ratio21_6_9_2.png,,,,,,,,,,,,
,,,,,,,,,,,,Half,All,Some,Most,Many,More than half,Few,None,Less than half,-0.036111086,-0.295370394,1,0,0,QQQ6,,,,,,,,English,2020-07-02_11h01.17.787,Experiment_English,3.2.4,Win32,60,,,,,,,,,,,,,,,,,,,,,1,0,340,199,1,339,ratio23_8_20_8.png,,,,,,,,,,,,
,,,,,,,,,,,,None,Few,More than half,Many,Most,Some,Less than half,Half,All,-0.010648065,0.231944436,1,0,0,QQQ4,,,,,,,,English,2020-07-02_11h01.17.787,Experiment_English,3.2.4,Win32,60,,,,,,,,,,,,,,,,,,,,,1,0,340,318,1,339,ratio51_15_18_18.png,,,,,,,,,,,,
,,,,,,,,,,,,Most,Few,Less than half,Half,All,Many,More than half,Some,None,0.452314855,-0.291203727,1,0,0,QQQ3,,,,,,,,English,2020-07-02_11h01.17.787,Experiment_English,3.2.4,Win32,60,,,,,,,,,,,,,,,,,,,,,1,0,340,248,1,339,ratio34_3_7_19.png,,,,,,,,,,,,
,,,,,,,,,,,,More than half,Many,Some,Few,Half,All,None,Most,Less than half,-0.023611085,0.2574074,1,0,0,QQQ4,,,,,,,,English,2020-07-02_11h01.17.787,Experiment_English,3.2.4,Win32,60,,,,,,,,,,,,,,,,,,,,,1,0,340,86,1,339,ratio13_2_8_6.png,,,,,,,,,,,,
,,,,,,,,,,,,Most,All,Few,Some,Many,None,Half,More than half,Less than half,-0.514814804,0.281944438,1,0,0,QQQ7,,,,,,,,English,2020-07-02_11h01.17.787,Experiment_English,3.2.4,Win32,60,,,,,,,,,,,,,,,,,,,,,1,0,340,207,1,339,ratio31_6_8_9.png,,,,,,,,,,,,
,,,,,,,,,,,,All,Few,Many,More than half,Most,Half,None,Some,Less than half,0.547222265,0.305092573,1,0,0,QQQ1,,,,,,,,English,2020-07-02_11h01.17.787,Experiment_English,3.2.4,Win32,60,,,,,,,,,,,,,,,,,,,,,1,0,340,46,1,339,ratioX0_9_9_3.png,,,,,,,,,,,,
,,,,,,,,,,,,Most,More than half,Some,Less than half,Many,Half,None,Few,All,0.002314841,0.018518504,1,0,0,QQQ5,,,,,,,,English,2020-07-02_11h01.17.787,Experiment_English,3.2.4,Win32,60,,,,,,,,,,,,,,,,,,,,,1,0,340,319,1,339,ratio51_15_18_20.png,,,,,,,,,,,,
,,,,,,,,,,,,More than half,Most,All,Many,Half,Few,Less than half,Some,None,-0.050925844,-0.268981504,1,0,0,QQQ6,,,,,,,,English,2020-07-02_11h01.17.787,Experiment_English,3.2.4,Win32,60,,,,,,,,,,,,,,,,,,,,,1,0,340,188,1,339,ratio23_4_10_6.png,,,,,,,,,,,,
,,,,,,,,,,,,Half,Many,Few,None,Most,Less than half,Some,All,More than half,0.490277819,0.255092585,1,0,0,QQQ1,,,,,,,,English,2020-07-02_11h01.17.787,Experiment_English,3.2.4,Win32,60,,,,,,,,,,,,,,,,,,,,,1,0,340,283,1,339,ratio43_4_7_8.png,,,,,,,,,,,,
,,,,,,,,,,,,More than half,None,Many,All,Less than half,Most,Half,Few,Some,-0.031018493,-0.281018598,1,0,0,QQQ6,,,,,,,,English,2020-07-02_11h01.17.787,Experiment_English,3.2.4,Win32,60,,,,,,,,,,,,,,,,,,,,,1,0,340,268,1,339,ratio41_8_10_5.png,,,,,,,,,,,,
,,,,,,,,,,,,Half,Few,Less than half,Some,None,Most,More than half,Many,All,0.514814857,-0.006018534,1,0,0,QQQ2,,,,,,,,English,2020-07-02_11h01.17.787,Experiment_English,3.2.4,Win32,60,,,,,,,,,,,,,,,,,,,,,1,0,340,124,1,339,ratio15_1_6_16.png,,,,,,,,,,,,
,,,,,,,,,,,,Most,Half,Many,More than half,Some,None,All,Less than half,Few,0.463888929,-0.270370393,1,0,0,QQQ3,,,,,,,,English,2020-07-02_11h01.17.787,Experiment_English,3.2.4,Win32,60,,,,,,,,,,,,,,,,,,,,,1,0,340,171,1,339,ratio21_8_12_4.png,,,,,,,,,,,,
,,,,,,,,,,,,Most,Many,All,None,Some,Few,More than half,Half,Less than half,0.515740783,-0.016203719,1,0,0,QQQ2,,,,,,,,English,2020-07-02_11h01.17.787,Experiment_English,3.2.4,Win32,60,,,,,,,,,,,,,,,,,,,,,1,0,340,273,1,339,ratio41_12_15_8.png,,,,,,,,,,,,
,,,,,,,,,,,,All,Half,More than half,Few,Most,Many,Some,Less than half,None,-0.424074032,0.260185178,1,0,0,QQQ7,,,,,,,,English,2020-07-02_11h01.17.787,Experiment_English,3.2.4,Win32,60,,,,,,,,,,,,,,,,,,,,,1,0,340,123,1,339,ratio15_1_6_12.png,,,,,,,,,,,,
,,,,,,,,,,,,More than half,Some,Most,Many,Few,None,All,Half,Less than half,-0.01805553,0.00694443,1,0,0,QQQ5,,,,,,,,English,2020-07-02_11h01.17.787,Experiment_English,3.2.4,Win32,60,,,,,,,,,,,,,,,,,,,,,1,0,340,183,1,339,ratio23_2_5_9.png,,,,,,,,,,,,
,,,,,,,,,,,,Some,Few,Most,More than half,Half,None,Many,All,Less than half,0.049074159,0.239814807,1,0,0,QQQ4,,,,,,,,English,2020-07-02_11h01.17.787,Experiment_English,3.2.4,Win32,60,,,,,,,,,,,,,,,,,,,,,1,0,340,276,1,339,ratio41_16_20_4.png,,,,,,,,,,,,
,,,,,,,,,,,,None,All,Many,Most,Half,Less than half,Few,Some,More than half,-0.464814802,0.041666653,1,0,0,QQQ8,,,,,,,,English,2020-07-02_11h01.17.787,Experiment_English,3.2.4,Win32,60,,,,,,,,,,,,,,,,,,,,,1,0,340,90,1,339,ratio13_3_12_7.png,,,,,,,,,,,,
,,,,,,,,,,,,All,Less than half,Many,Most,More than half,Few,Some,None,Half,0.443518558,-0.037037053,1,0,0,QQQ2,,,,,,,,English,2020-07-02_11h01.17.787,Experiment_English,3.2.4,Win32,60,,,,,,,,,,,,,,,,,,,,,1,0,340,193,1,339,ratio23_6_15_9.png,,,,,,,,,,,,
,,,,,,,,,,,,Most,All,Some,None,Less than half,Many,Half,Few,More than half,-0.524537026,-0.302314839,1,0,0,QQQ9,,,,,,,,English,2020-07-02_11h01.17.787,Experiment_English,3.2.4,Win32,60,,,,,,,,,,,,,,,,,,,,,1,0,340,37,1,339,ratio11_9_18_8.png,0.342129666,-0.396759286,1,0,0,continue_button_pause,1,0,1,0,1,0
,,,,,,,,,,,,,,,,,,,,,,,,,,,,,,,,,,English,2020-07-02_11h01.17.787,Experiment_English,3.2.4,Win32,60,,,,,,,,,,,,,,,,,,,,,1,0,340,37,1,339,ratio11_9_18_8.png,,,,,,,,,,,,
,,,,,,,,,,,,Few,All,Some,Many,Half,More than half,None,Less than half,Most,0.431944484,-0.390277804,1,0,0,QQQ3,,,,,,,,English,2020-07-02_11h01.17.787,Experiment_English,3.2.4,Win32,60,,,,,,,,,,,,,,,,,,,,,1,0,340,181,1,339,ratio23_2_5_6.png,,,,,,,,,,,,
,,,,,,,,,,,,Many,None,More than half,Some,Less than half,Half,Few,Most,All,0.468055596,-0.321296377,1,0,0,QQQ3,,,,,,,,English,2020-07-02_11h01.17.787,Experiment_English,3.2.4,Win32,60,,,,,,,,,,,,,,,,,,,,,1,0,340,203,1,339,ratio31_3_4_9.png,,,,,,,,,,,,
,,,,,,,,,,,,None,All,Most,Half,Few,Less than half,Some,Many,More than half,-0.042129604,0.261574067,1,0,0,QQQ4,,,,,,,,English,2020-07-02_11h01.17.787,Experiment_English,3.2.4,Win32,60,,,,,,,,,,,,,,,,,,,,,1,0,340,257,1,339,ratio34_6_14_12.png,,,,,,,,,,,,
,,,,,,,,,,,,None,Few,Some,Half,Many,All,Less than half,More than half,Most,-0.036574049,0.266203683,1,0,0,QQQ4,,,,,,,,English,2020-07-02_11h01.17.787,Experiment_English,3.2.4,Win32,60,,,,,,,,,,,,,,,,,,,,,1,0,340,250,1,339,ratio34_6_14_1.png,,,,,,,,,,,,
,,,,,,,,,,,,All,None,Many,Most,Few,Less than half,More than half,Some,Half,0.453240781,-0.030555571,1,0,0,QQQ2,,,,,,,,English,2020-07-02_11h01.17.787,Experiment_English,3.2.4,Win32,60,,,,,,,,,,,,,,,,,,,,,1,0,340,73,1,339,ratio0Y_0_14_7.png,,,,,,,,,,,,
,,,,,,,,,,,,Many,Most,All,More than half,Few,None,Less than half,Half,Some,0.054629714,-0.088888906,1,0,0,QQQ5,,,,,,,,English,2020-07-02_11h01.17.787,Experiment_English,3.2.4,Win32,60,,,,,,,,,,,,,,,,,,,,,1,0,340,165,1,339,ratio21_4_6_10.png,,,,,,,,,,,,
,,,,,,,,,,,,Most,Less than half,Few,More than half,None,Many,Some,Half,All,-0.58888888,0.317129624,1,0,0,QQQ7,,,,,,,,English,2020-07-02_11h01.17.787,Experiment_English,3.2.4,Win32,60,,,,,,,,,,,,,,,,,,,,,1,0,340,112,1,339,ratio14_3_15_4.png,,,,,,,,,,,,
,,,,,,,,,,,,Some,Half,Less than half,Most,Few,None,More than half,All,Many,0.028703731,0.23564814,1,0,0,QQQ4,,,,,,,,English,2020-07-02_11h01.17.787,Experiment_English,3.2.4,Win32,60,,,,,,,,,,,,,,,,,,,,,1,0,340,261,1,339,ratio41_4_5_3.png,,,,,,,,,,,,
,,,,,,,,,,,,Most,Many,Few,Some,Less than half,More than half,All,None,Half,-0.524074035,-0.308796377,1,0,0,QQQ9,,,,,,,,English,2020-07-02_11h01.17.787,Experiment_English,3.2.4,Win32,60,,,,,,,,,,,,,,,,,,,,,1,0,340,198,1,339,ratio23_8_20_7.png,,,,,,,,,,,,
,,,,,,,,,,,,More than half,All,None,Some,Half,Many,Few,Most,Less than half,-0.461111098,-0.0101852,1,0,0,QQQ8,,,,,,,,English,2020-07-02_11h01.17.787,Experiment_English,3.2.4,Win32,60,,,,,,,,,,,,,,,,,,,,,1,0,340,313,1,339,ratio51_15_18_2.png,,,,,,,,,,,,
,,,,,,,,,,,,None,Many,Most,Half,Some,Few,All,More than half,Less than half,0.490277819,-0.255092615,1,0,0,QQQ3,,,,,,,,English,2020-07-02_11h01.17.787,Experiment_English,3.2.4,Win32,60,,,,,,,,,,,,,,,,,,,,,1,0,340,220,1,339,ratio32_3_5_1.png,,,,,,,,,,,,
,,,,,,,,,,,,Less than half,All,Some,More than half,None,Half,Most,Few,Many,-0.402777763,-0.047222239,1,0,0,QQQ8,,,,,,,,English,2020-07-02_11h01.17.787,Experiment_English,3.2.4,Win32,60,,,,,,,,,,,,,,,,,,,,,1,0,340,134,1,339,ratio15_3_18_5.png,,,,,,,,,,,,
,,,,,,,,,,,,Few,All,Some,Less than half,Many,Most,None,Half,More than half,0.062500028,-0.250000022,1,0,0,QQQ6,,,,,,,,English,2020-07-02_11h01.17.787,Experiment_English,3.2.4,Win32,60,,,,,,,,,,,,,,,,,,,,,1,0,340,232,1,339,ratio32_9_15_8.png,,,,,,,,,,,,
,,,,,,,,,,,,None,Few,Most,Half,All,Some,More than half,Less than half,Many,-0.015277752,-0.275000023,1,0,0,QQQ6,,,,,,,,English,2020-07-02_11h01.17.787,Experiment_English,3.2.4,Win32,60,,,,,,,,,,,,,,,,,,,,,1,0,340,19,1,339,ratio12_6_18_9.png,,,,,,,,,,,,
,,,,,,,,,,,,More than half,Most,Less than half,Many,Few,None,Half,All,Some,0.007870397,-0.037500016,1,0,0,QQQ5,,,,,,,,English,2020-07-02_11h01.17.787,Experiment_English,3.2.4,Win32,60,,,,,,,,,,,,,,,,,,,,,1,0,340,135,1,339,ratio15_3_18_7.png,,,,,,,,,,,,
,,,,,,,,,,,,All,Many,Some,Few,None,Half,Less than half,Most,More than half,-0.059722198,-0.267129709,1,0,0,QQQ6,,,,,,,,English,2020-07-02_11h01.17.787,Experiment_English,3.2.4,Win32,60,,,,,,,,,,,,,,,,,,,,,1,0,340,234,1,339,ratio32_9_15_10.png,,,,,,,,,,,,
,,,,,,,,,,,,More than half,Some,None,Most,Few,Many,Less than half,All,Half,-0.002777751,-0.284722246,1,0,0,QQQ6,,,,,,,,English,2020-07-02_11h01.17.787,Experiment_English,3.2.4,Win32,60,,,,,,,,,,,,,,,,,,,,,1,0,340,326,1,339,ratio91_9_10_10.png,,,,,,,,,,,,
,,,,,,,,,,,,None,More than half,Most,All,Some,Many,Few,Less than half,Half,0.025000027,-0.051851868,1,0,0,QQQ5,,,,,,,,English,2020-07-02_11h01.17.787,Experiment_English,3.2.4,Win32,60,,,,,,,,,,,,,,,,,,,,,1,0,340,106,1,339,ratio14_2_10_2.png,,,,,,,,,,,,
,,,,,,,,,,,,More than half,Few,Some,None,All,Less than half,Half,Many,Most,-0.40694443,-0.036111127,1,0,0,QQQ8,,,,,,,,English,2020-07-02_11h01.17.787,Experiment_English,3.2.4,Win32,60,,,,,,,,,,,,,,,,,,,,,1,0,340,289,1,339,ratio43_4_7_20.png,,,,,,,,,,,,
,,,,,,,,,,,,More than half,Less than half,Some,Many,Most,None,Few,Half,All,-0.046296271,0.011111097,1,0,0,QQQ5,,,,,,,,English,2020-07-02_11h01.17.787,Experiment_English,3.2.4,Win32,60,,,,,,,,,,,,,,,,,,,,,1,0,340,218,1,339,ratio31_15_20_7.png,,,,,,,,,,,,
,,,,,,,,,,,,Half,All,None,Few,Less than half,Most,More than half,Many,Some,-0.012036954,0.269444438,1,0,0,QQQ4,,,,,,,,English,2020-07-02_11h01.17.787,Experiment_English,3.2.4,Win32,60,,,,,,,,,,,,,,,,,,,,,1,0,340,101,1,339,ratio14_1_5_7.png,,,,,,,,,,,,
,,,,,,,,,,,,None,Half,Less than half,More than half,All,Some,Most,Many,Few,-0.395833319,-0.058796313,1,0,0,QQQ8,,,,,,,,English,2020-07-02_11h01.17.787,Experiment_English,3.2.4,Win32,60,,,,,,,,,,,,,,,,,,,,,1,0,340,161,1,339,ratio21_2_3_8.png,,,,,,,,,,,,
,,,,,,,,,,,,Many,All,Some,Less than half,None,Few,Most,More than half,Half,0.40648152,-0.023148164,1,0,0,QQQ2,,,,,,,,English,2020-07-02_11h01.17.787,Experiment_English,3.2.4,Win32,60,,,,,,,,,,,,,,,,,,,,,1,0,340,48,1,339,ratioX0_10_10_1.png,,,,,,,,,,,,
,,,,,,,,,,,,More than half,None,Many,Most,Less than half,Some,Few,Half,All,-0.006018492,0.263425905,1,0,0,QQQ4,,,,,,,,English,2020-07-02_11h01.17.787,Experiment_English,3.2.4,Win32,60,,,,,,,,,,,,,,,,,,,,,1,0,340,317,1,339,ratio51_15_18_13.png,,,,,,,,,,,,
,,,,,,,,,,,,Most,None,Half,All,Some,More than half,Less than half,Many,Few,-0.512037026,-0.27824082,1,0,0,QQQ9,,,,,,,,English,2020-07-02_11h01.17.787,Experiment_English,3.2.4,Win32,60,,,,,,,,,,,,,,,,,,,,,1,0,340,100,1,339,ratio14_1_5_3.png,,,,,,,,,,,,
,,,,,,,,,,,,Most,Less than half,Many,All,More than half,Few,Some,None,Half,0.121296326,-0.060185202,1,0,0,QQQ5,,,,,,,,English,2020-07-02_11h01.17.787,Experiment_English,3.2.4,Win32,60,,,,,,,,,,,,,,,,,,,,,1,0,340,31,1,339,ratio11_6_12_9.png,,,,,,,,,,,,
,,,,,,,,,,,,Few,Half,None,More than half,Most,Less than half,Some,Many,All,0.007870397,-0.037962979,1,0,0,QQQ5,,,,,,,,English,2020-07-02_11h01.17.787,Experiment_English,3.2.4,Win32,60,,,,,,,,,,,,,,,,,,,,,1,0,340,35,1,339,ratio11_8_16_10.png,,,,,,,,,,,,
,,,,,,,,,,,,Less than half,None,Many,Most,Some,All,Half,Few,More than half,-0.054166642,0.009259245,1,0,0,QQQ5,,,,,,,,English,2020-07-02_11h01.17.787,Experiment_English,3.2.4,Win32,60,,,,,,,,,,,,,,,,,,,,,1,0,340,143,1,339,ratio19_1_10_9.png,,,,,,,,,,,,
,,,,,,,,,,,,Less than half,Half,None,Few,Many,Some,All,More than half,Most,0.458333373,-0.310648172,1,0,0,QQQ3,,,,,,,,English,2020-07-02_11h01.17.787,Experiment_English,3.2.4,Win32,60,,,,,,,,,,,,,,,,,,,,,1,0,340,75,1,339,ratio0Y_0_16_10.png,,,,,,,,,,,,
,,,,,,,,,,,,None,Less than half,Most,All,Many,Some,Half,Few,More than half,-0.054629605,0.0023148,1,0,0,QQQ5,,,,,,,,English,2020-07-02_11h01.17.787,Experiment_English,3.2.4,Win32,60,,,,,,,,,,,,,,,,,,,,,1,0,340,164,1,339,ratio21_4_6_6.png,,,,,,,,,,,,
,,,,,,,,,,,,All,Less than half,More than half,Few,Most,Some,Half,None,Many,0.002777804,0.237962955,1,0,0,QQQ4,,,,,,,,English,2020-07-02_11h01.17.787,Experiment_English,3.2.4,Win32,60,,,,,,,,,,,,,,,,,,,,,1,0,340,125,1,339,ratio15_1_6_19.png,,,,,,,,,,,,
,,,,,,,,,,,,Half,All,Some,Few,More than half,Most,Many,Less than half,None,0.002777804,0.032870356,1,0,0,QQQ5,,,,,,,,English,2020-07-02_11h01.17.787,Experiment_English,3.2.4,Win32,60,,,,,,,,,,,,,,,,,,,,,1,0,340,228,1,339,ratio32_6_10_7.png,,,,,,,,,,,,
,,,,,,,,,,,,All,Less than half,None,Many,More than half,Some,Most,Half,Few,-0.46759258,-0.326851933,1,0,0,QQQ9,,,,,,,,English,2020-07-02_11h01.17.787,Experiment_English,3.2.4,Win32,60,,,,,,,,,,,,,,,,,,,,,1,0,340,151,1,339,ratio19_2_20_4.png,,,,,,,,,,,,
,,,,,,,,,,,,Few,All,Half,Some,More than half,Most,Many,Less than half,None,0.456018559,-0.061574091,1,0,0,QQQ2,,,,,,,,English,2020-07-02_11h01.17.787,Experiment_English,3.2.4,Win32,60,,,,,,,,,,,,,,,,,,,,,1,0,340,78,1,339,ratio0Y_0_19_1.png,0.404166705,-0.412037064,1,0,0,continue_button_pause,1,0,1,0,1,0
,,,,,,,,,,,,,,,,,,,,,,,,,,,,,,,,,,English,2020-07-02_11h01.17.787,Experiment_English,3.2.4,Win32,60,,,,,,,,,,,,,,,,,,,,,1,0,340,78,1,339,ratio0Y_0_19_1.png,,,,,,,,,,,,
,,,,,,,,,,,,Many,Few,None,Half,Some,Less than half,More than half,Most,All,-0.525925915,-0.004629645,1,0,0,QQQ8,,,,,,,,English,2020-07-02_11h01.17.787,Experiment_English,3.2.4,Win32,60,,,,,,,,,,,,,,,,,,,,,1,0,340,338,1,339,ratio91_18_20_18.png,,,,,,,,,,,,
,,,,,,,,,,,,None,Some,Half,Less than half,Few,More than half,All,Many,Most,0.018981509,-0.292592616,1,0,0,QQQ6,,,,,,,,English,2020-07-02_11h01.17.787,Experiment_English,3.2.4,Win32,60,,,,,,,,,,,,,,,,,,,,,1,0,340,299,1,339,ratio43_8_14_17.png,,,,,,,,,,,,
,,,,,,,,,,,,None,Less than half,More than half,Some,Most,All,Few,Half,Many,-0.36342591,0.284722216,1,0,0,QQQ7,,,,,,,,English,2020-07-02_11h01.17.787,Experiment_English,3.2.4,Win32,60,,,,,,,,,,,,,,,,,,,,,1,0,340,102,1,339,ratio14_1_5_8.png,,,,,,,,,,,,
,,,,,,,,,,,,More than half,Few,Half,None,All,Less than half,Many,Most,Some,0.53981497,0.037499986,1,0,0,QQQ2,,,,,,,,English,2020-07-02_11h01.17.787,Experiment_English,3.2.4,Win32,60,,,,,,,,,,,,,,,,,,,,,1,0,340,156,1,339,ratio19_2_20_14.png,,,,,,,,,,,,
,,,,,,,,,,,,Half,None,More than half,Many,Less than half,All,Few,Most,Some,0.477777819,-0.289814838,1,0,0,QQQ3,,,,,,,,English,2020-07-02_11h01.17.787,Experiment_English,3.2.4,Win32,60,,,,,,,,,,,,,,,,,,,,,1,0,340,29,1,339,ratio11_6_12_1.png,,,,,,,,,,,,
,,,,,,,,,,,,Less than half,Some,Few,Most,None,All,Many,Half,More than half,0.427777817,-0.342129711,1,0,0,QQQ3,,,,,,,,English,2020-07-02_11h01.17.787,Experiment_English,3.2.4,Win32,60,,,,,,,,,,,,,,,,,,,,,1,0,340,0,1,339,ratio12_1_3_3.png,,,,,,,,,,,,
,,,,,,,,,,,,Some,Half,Many,Less than half,Few,None,Most,All,More than half,0.51527782,-0.004166682,1,0,0,QQQ2,,,,,,,,English,2020-07-02_11h01.17.787,Experiment_English,3.2.4,Win32,60,,,,,,,,,,,,,,,,,,,,,1,0,340,33,1,339,ratio11_7_14_8.png,,,,,,,,,,,,
,,,,,,,,,,,,Most,Few,Some,All,Half,More than half,Many,None,Less than half,0.359722259,-0.024537053,1,0,0,QQQ2,,,,,,,,English,2020-07-02_11h01.17.787,Experiment_English,3.2.4,Win32,60,,,,,,,,,,,,,,,,,,,,,1,0,340,116,1,339,ratio14_4_20_3.png,,,,,,,,,,,,
,,,,,,,,,,,,Less than half,All,Many,Half,Some,Most,Few,More than half,None,0.441666706,0.262499993,1,0,0,QQQ1,,,,,,,,English,2020-07-02_11h01.17.787,Experiment_English,3.2.4,Win32,60,,,,,,,,,,,,,,,,,,,,,1,0,340,91,1,339,ratio13_3_12_10.png,,,,,,,,,,,,
,,,,,,,,,,,,None,Less than half,Many,All,Few,More than half,Some,Half,Most,0.006944471,-0.35694447,1,0,0,QQQ6,,,,,,,,English,2020-07-02_11h01.17.787,Experiment_English,3.2.4,Win32,60,,,,,,,,,,,,,,,,,,,,,1,0,340,209,1,339,ratio31_9_12_6.png,,,,,,,,,,,,
,,,,,,,,,,,,None,Some,All,Half,Less than half,Most,More than half,Few,Many,-0.428240699,0.018981467,1,0,0,QQQ8,,,,,,,,English,2020-07-02_11h01.17.787,Experiment_English,3.2.4,Win32,60,,,,,,,,,,,,,,,,,,,,,1,0,340,132,1,339,ratio15_2_12_16.png,,,,,,,,,,,,
,,,,,,,,,,,,More than half,Less than half,None,Few,Most,All,Some,Many,Half,0.426388928,0.273611104,1,0,0,QQQ1,,,,,,,,English,2020-07-02_11h01.17.787,Experiment_English,3.2.4,Win32,60,,,,,,,,,,,,,,,,,,,,,1,0,340,221,1,339,ratio32_3_5_3.png,,,,,,,,,,,,
,,,,,,,,,,,,Less than half,Many,More than half,Few,All,Most,Some,None,Half,0.04722225,-0.362037063,1,0,0,QQQ6,,,,,,,,English,2020-07-02_11h01.17.787,Experiment_English,3.2.4,Win32,60,,,,,,,,,,,,,,,,,,,,,1,0,340,333,1,339,ratio91_18_20_6.png,,,,,,,,,,,,
,,,,,,,,,,,,Half,More than half,All,Less than half,None,Few,Most,Some,Many,0.492592634,-0.263888912,1,0,0,QQQ3,,,,,,,,English,2020-07-02_11h01.17.787,Experiment_English,3.2.4,Win32,60,,,,,,,,,,,,,,,,,,,,,1,0,340,55,1,339,ratioX0_16_16_3.png,,,,,,,,,,,,
,,,,,,,,,,,,Some,Few,Most,All,None,Less than half,More than half,Half,Many,0.01759262,-0.288888912,1,0,0,QQQ6,,,,,,,,English,2020-07-02_11h01.17.787,Experiment_English,3.2.4,Win32,60,,,,,,,,,,,,,,,,,,,,,1,0,340,16,1,339,ratio12_5_15_6.png,,,,,,,,,,,,
,,,,,,,,,,,,Less than half,None,All,Many,More than half,Most,Half,Few,Some,-0.411111097,-0.037500016,1,0,0,QQQ8,,,,,,,,English,2020-07-02_11h01.17.787,Experiment_English,3.2.4,Win32,60,,,,,,,,,,,,,,,,,,,,,1,0,340,81,1,339,ratio13_1_4_5.png,,,,,,,,,,,,
,,,,,,,,,,,,Most,Less than half,Half,Some,None,Many,All,More than half,Few,-0.472685145,-0.282407487,1,0,0,QQQ9,,,,,,,,English,2020-07-02_11h01.17.787,Experiment_English,3.2.4,Win32,60,,,,,,,,,,,,,,,,,,,,,1,0,340,107,1,339,ratio14_2_10_5.png,,,,,,,,,,,,
,,,,,,,,,,,,Most,All,More than half,Few,None,Many,Less than half,Some,Half,0.47962967,-0.286574154,1,0,0,QQQ3,,,,,,,,English,2020-07-02_11h01.17.787,Experiment_English,3.2.4,Win32,60,,,,,,,,,,,,,,,,,,,,,1,0,340,214,1,339,ratio31_12_16_5.png,,,,,,,,,,,,
,,,,,,,,,,,,All,More than half,Most,Half,Few,Less than half,Many,None,Some,-0.088425846,-0.066203721,1,0,0,QQQ5,,,,,,,,English,2020-07-02_11h01.17.787,Experiment_English,3.2.4,Win32,60,,,,,,,,,,,,,,,,,,,,,1,0,340,126,1,339,ratio15_2_12_1.png,,,,,,,,,,,,
,,,,,,,,,,,,Half,None,Less than half,Many,More than half,All,Most,Few,Some,0.044444472,0.237037029,1,0,0,QQQ4,,,,,,,,English,2020-07-02_11h01.17.787,Experiment_English,3.2.4,Win32,60,,,,,,,,,,,,,,,,,,,,,1,0,340,316,1,339,ratio51_15_18_11.png,,,,,,,,,,,,
,,,,,,,,,,,,Some,Less than half,More than half,None,Few,Half,Most,All,Many,0.002314841,-0.061574091,1,0,0,QQQ5,,,,,,,,English,2020-07-02_11h01.17.787,Experiment_English,3.2.4,Win32,60,,,,,,,,,,,,,,,,,,,,,1,0,340,114,1,339,ratio14_3_15_10.png,,,,,,,,,,,,
,,,,,,,,,,,,Many,Less than half,Few,None,Most,Some,Half,More than half,All,-0.468981469,-0.37870373,1,0,0,QQQ9,,,,,,,,English,2020-07-02_11h01.17.787,Experiment_English,3.2.4,Win32,60,,,,,,,,,,,,,,,,,,,,,1,0,340,51,1,339,ratioX0_12_12_9.png,,,,,,,,,,,,
,,,,,,,,,,,,More than half,Less than half,Some,Half,None,Few,All,Most,Many,-0.481944432,0.262499993,1,0,0,QQQ7,,,,,,,,English,2020-07-02_11h01.17.787,Experiment_English,3.2.4,Win32,60,,,,,,,,,,,,,,,,,,,,,1,0,340,57,1,339,ratioX0_18_18_1.png,,,,,,,,,,,,
,,,,,,,,,,,,Few,More than half,Most,Some,Many,All,None,Half,Less than half,0.056944473,0.020370356,1,0,0,QQQ5,,,,,,,,English,2020-07-02_11h01.17.787,Experiment_English,3.2.4,Win32,60,,,,,,,,,,,,,,,,,,,,,1,0,340,294,1,339,ratio43_8_14_9.png,,,,,,,,,,,,
,,,,,,,,,,,,More than half,None,Half,Less than half,All,Many,Some,Few,Most,-0.398611096,-0.270370393,1,0,0,QQQ9,,,,,,,,English,2020-07-02_11h01.17.787,Experiment_English,3.2.4,Win32,60,,,,,,,,,,,,,,,,,,,,,1,0,340,303,1,339,ratio51_5_6_6.png,,,,,,,,,,,,
,,,,,,,,,,,,Half,Few,More than half,Less than half,Most,All,Many,Some,None,0.096759289,-0.052314831,1,0,0,QQQ5,,,,,,,,English,2020-07-02_11h01.17.787,Experiment_English,3.2.4,Win32,60,,,,,,,,,,,,,,,,,,,,,1,0,340,325,1,339,ratio91_9_10_8.png,,,,,,,,,,,,
,,,,,,,,,,,,Most,All,Many,Less than half,None,Few,Half,More than half,Some,0.117592623,0.056018477,1,0,0,QQQ5,,,,,,,,English,2020-07-02_11h01.17.787,Experiment_English,3.2.4,Win32,60,,,,,,,,,,,,,,,,,,,,,1,0,340,64,1,339,ratio0Y_0_7_1.png,,,,,,,,,,,,
,,,,,,,,,,,,None,Many,Half,More than half,Some,All,Most,Few,Less than half,-0.412037023,0.299074068,1,0,0,QQQ7,,,,,,,,English,2020-07-02_11h01.17.787,Experiment_English,3.2.4,Win32,60,,,,,,,,,,,,,,,,,,,,,1,0,340,47,1,339,ratioX0_9_9_4.png,,,,,,,,,,,,
,,,,,,,,,,,,Few,Most,More than half,None,Half,Some,All,Less than half,Many,0.425463002,-0.29166669,1,0,0,QQQ3,,,,,,,,English,2020-07-02_11h01.17.787,Experiment_English,3.2.4,Win32,60,,,,,,,,,,,,,,,,,,,,,1,0,340,293,1,339,ratio43_8_14_7.png,,,,,,,,,,,,
,,,,,,,,,,,,Many,Few,Less than half,More than half,None,Most,All,Half,Some,0.03009262,0.323611106,1,0,0,QQQ4,,,,,,,,English,2020-07-02_11h01.17.787,Experiment_English,3.2.4,Win32,60,,,,,,,,,,,,,,,,,,,,,1,0,340,170,1,339,ratio21_6_9_8.png,,,,,,,,,,,,
,,,,,,,,,,,,Some,None,All,Many,Most,More than half,Less than half,Half,Few,-0.474074033,-0.259259282,1,0,0,QQQ9,,,,,,,,English,2020-07-02_11h01.17.787,Experiment_English,3.2.4,Win32,60,,,,,,,,,,,,,,,,,,,,,1,0,340,12,1,339,ratio12_4_12_10.png,,,,,,,,,,,,
,,,,,,,,,,,,All,Few,Most,Many,More than half,Some,Less than half,Half,None,-0.443981468,-0.079629647,1,0,0,QQQ8,,,,,,,,English,2020-07-02_11h01.17.787,Experiment_English,3.2.4,Win32,60,,,,,,,,,,,,,,,,,,,,,1,0,340,22,1,339,ratio11_3_6_6.png,,,,,,,,,,,,
,,,,,,,,,,,,Most,More than half,Many,Half,Less than half,All,None,Few,Some,-0.529166656,0.014351837,1,0,0,QQQ8,,,,,,,,English,2020-07-02_11h01.17.787,Experiment_English,3.2.4,Win32,60,,,,,,,,,,,,,,,,,,,,,1,0,340,150,1,339,ratio19_2_20_1.png,,,,,,,,,,,,
,,,,,,,,,,,,Some,More than half,None,Half,Less than half,Few,Many,Most,All,0.41898152,-0.249074153,1,0,0,QQQ3,,,,,,,,English,2020-07-02_11h01.17.787,Experiment_English,3.2.4,Win32,60,,,,,,,,,,,,,,,,,,,,,1,0,340,76,1,339,ratio0Y_0_17_10.png,,,,,,,,,,,,
