continue_mouse.x,continue_mouse.y,continue_mouse.leftButton,continue_mouse.midButton,continue_mouse.rightButton,continue_mouse.clicked_name,continue_mouse_2.x,continue_mouse_2.y,continue_mouse_2.leftButton,continue_mouse_2.midButton,continue_mouse_2.rightButton,continue_mouse_2.clicked_name,Q1,Q2,Q3,Q4,Q5,Q6,Q7,Q8,Q9,select_answer.x,select_answer.y,select_answer.leftButton,select_answer.midButton,select_answer.rightButton,select_answer.clicked_name,trial.thisRepN,trial.thisTrialN,trial.thisN,trial.thisIndex,trial.ran,trial.order,trials,Native tongue*,date,expName,psychopyVersion,OS,frameRate,key_resp.keys,key_resp.rt,Actual_Experiment.thisRepN,Actual_Experiment.thisTrialN,Actual_Experiment.thisN,Actual_Experiment.thisIndex,Actual_Experiment.ran,Actual_Experiment.order,Pic,mouse_pause.x,mouse_pause.y,mouse_pause.leftButton,mouse_pause.midButton,mouse_pause.rightButton,mouse_pause.clicked_name,pause.thisRepN,pause.thisTrialN,pause.thisN,pause.thisIndex,pause.ran,pause.order
0.405555575,-0.431481495,1,0,0,continue_button,0.31851865,-0.432407478,1,0,0,continue_button_2,More than half,None,All,Some,Half,Few,Most,Less than half,Many,-0.374999992,-0.034259267,1,0,0,QQQ8,1,0,16,4,1,15,ratio34_3_7_3.png,English,5ed148a5177bf6073dddf293,2020-07-02_11h01.47.070,Experiment_English,3.2.4,Win32,60,,,,,,,,,,,,,,,,,,,,,
,,,,,,,,,,,,Most,All,Some,More than half,Half,Less than half,Few,None,Many,-0.1111111,0.019444437,1,0,0,QQQ5,1,0,16,8,1,15,ratio21_12_18_3.png,English,5ed148a5177bf6073dddf293,2020-07-02_11h01.47.070,Experiment_English,3.2.4,Win32,60,,,,,,,,,,,,,,,,,,,,,
,,,,,,,,,,,,None,Less than half,Most,Few,More than half,Half,Many,All,Some,0.084259274,0.270370353,1,0,0,QQQ4,1,0,16,9,1,15,ratio19_1_10_8.png,English,5ed148a5177bf6073dddf293,2020-07-02_11h01.47.070,Experiment_English,3.2.4,Win32,60,,,,,,,,,,,,,,,,,,,,,
,,,,,,,,,,,,All,Few,Half,Less than half,Many,Most,More than half,Some,None,0.451851872,-0.02685186,1,0,0,QQQ2,1,0,16,11,1,15,ratio14_1_5_7.png,English,5ed148a5177bf6073dddf293,2020-07-02_11h01.47.070,Experiment_English,3.2.4,Win32,60,,,,,,,,,,,,,,,,,,,,,
,,,,,,,,,,,,Most,Many,More than half,None,All,Half,Some,Few,Less than half,0.041666681,0.29259259,1,0,0,QQQ4,1,0,16,15,1,15,ratio0Y_0_14_10.png,English,5ed148a5177bf6073dddf293,2020-07-02_11h01.47.070,Experiment_English,3.2.4,Win32,60,,,,,,,,,,,,,,,,,,,,,
,,,,,,,,,,,,Most,Half,More than half,All,Some,Many,Few,None,Less than half,0.417592612,-0.266666678,1,0,0,QQQ3,,,,,,,,English,5ed148a5177bf6073dddf293,2020-07-02_11h01.47.070,Experiment_English,3.2.4,Win32,60,b,9.890000105,1,0,340,173,1,339,ratio21_8_12_9.png,,,,,,,,,,,,
,,,,,,,,,,,,Many,All,None,Few,Less than half,More than half,Some,Most,Half,0.112962978,-0.278703715,1,0,0,QQQ6,,,,,,,,English,5ed148a5177bf6073dddf293,2020-07-02_11h01.47.070,Experiment_English,3.2.4,Win32,60,,,1,0,340,228,1,339,ratio32_6_10_7.png,,,,,,,,,,,,
,,,,,,,,,,,,Most,More than half,None,Few,Some,All,Many,Half,Less than half,0.013888902,0.259259256,1,0,0,QQQ4,,,,,,,,English,5ed148a5177bf6073dddf293,2020-07-02_11h01.47.070,Experiment_English,3.2.4,Win32,60,,,1,0,340,141,1,339,ratio19_1_10_2.png,,,,,,,,,,,,
,,,,,,,,,,,,Half,All,Some,None,Most,More than half,Few,Less than half,Many,-0.016666597,-0.262037048,1,0,0,QQQ6,,,,,,,,English,5ed148a5177bf6073dddf293,2020-07-02_11h01.47.070,Experiment_English,3.2.4,Win32,60,,,1,0,340,169,1,339,ratio21_6_9_7.png,,,,,,,,,,,,
,,,,,,,,,,,,Few,Most,Some,Half,None,All,Many,More than half,Less than half,-0.01759258,0.280555552,1,0,0,QQQ4,,,,,,,,English,5ed148a5177bf6073dddf293,2020-07-02_11h01.47.070,Experiment_English,3.2.4,Win32,60,,,1,0,340,298,1,339,ratio43_8_14_14.png,,,,,,,,,,,,
,,,,,,,,,,,,All,None,Less than half,Some,Few,Many,Half,More than half,Most,0.364814947,-0.018518526,1,0,0,QQQ2,,,,,,,,English,5ed148a5177bf6073dddf293,2020-07-02_11h01.47.070,Experiment_English,3.2.4,Win32,60,,,1,0,340,64,1,339,ratio0Y_0_7_1.png,,,,,,,,,,,,
,,,,,,,,,,,,None,Many,Half,Some,Most,All,Few,Less than half,More than half,-0.462962957,-0.043518527,1,0,0,QQQ8,,,,,,,,English,5ed148a5177bf6073dddf293,2020-07-02_11h01.47.070,Experiment_English,3.2.4,Win32,60,,,1,0,340,243,1,339,ratio34_3_7_8.png,,,,,,,,,,,,
,,,,,,,,,,,,All,Many,Less than half,Half,More than half,Some,None,Few,Most,0.369444576,-0.252777789,1,0,0,QQQ3,,,,,,,,English,5ed148a5177bf6073dddf293,2020-07-02_11h01.47.070,Experiment_English,3.2.4,Win32,60,,,1,0,340,7,1,339,ratio12_3_9_2.png,,,,,,,,,,,,
,,,,,,,,,,,,None,Many,More than half,Half,Most,Some,Less than half,Few,All,-0.387962955,0.043518512,1,0,0,QQQ8,,,,,,,,English,5ed148a5177bf6073dddf293,2020-07-02_11h01.47.070,Experiment_English,3.2.4,Win32,60,,,1,0,340,106,1,339,ratio14_2_10_2.png,,,,,,,,,,,,
,,,,,,,,,,,,Half,None,Few,Many,Most,Less than half,All,More than half,Some,0.420370503,-0.227777789,1,0,0,QQQ3,,,,,,,,English,5ed148a5177bf6073dddf293,2020-07-02_11h01.47.070,Experiment_English,3.2.4,Win32,60,,,1,0,340,137,1,339,ratio15_3_18_16.png,,,,,,,,,,,,
,,,,,,,,,,,,Some,Less than half,None,Most,Many,More than half,Few,All,Half,0.133333349,-0.300925938,1,0,0,QQQ6,,,,,,,,English,5ed148a5177bf6073dddf293,2020-07-02_11h01.47.070,Experiment_English,3.2.4,Win32,60,,,1,0,340,280,1,339,ratio43_4_7_2.png,,,,,,,,,,,,
,,,,,,,,,,,,All,Some,Few,Many,Less than half,More than half,None,Most,Half,-0.025925857,0.298148131,1,0,0,QQQ4,,,,,,,,English,5ed148a5177bf6073dddf293,2020-07-02_11h01.47.070,Experiment_English,3.2.4,Win32,60,,,1,0,340,339,1,339,ratio91_18_20_19.png,,,,,,,,,,,,
,,,,,,,,,,,,Half,Few,More than half,Some,Most,None,Many,All,Less than half,0.403703723,0.004629622,1,0,0,QQQ2,,,,,,,,English,5ed148a5177bf6073dddf293,2020-07-02_11h01.47.070,Experiment_English,3.2.4,Win32,60,,,1,0,340,144,1,339,ratio19_1_10_11.png,,,,,,,,,,,,
,,,,,,,,,,,,Many,Less than half,Some,None,Most,Few,All,Half,More than half,0.425925946,-0.24259266,1,0,0,QQQ3,,,,,,,,English,5ed148a5177bf6073dddf293,2020-07-02_11h01.47.070,Experiment_English,3.2.4,Win32,60,,,1,0,340,188,1,339,ratio23_4_10_6.png,,,,,,,,,,,,
,,,,,,,,,,,,Few,All,Less than half,Half,Some,Many,Most,None,More than half,0.087962978,0.01203703,1,0,0,QQQ5,,,,,,,,English,5ed148a5177bf6073dddf293,2020-07-02_11h01.47.070,Experiment_English,3.2.4,Win32,60,,,1,0,340,110,1,339,ratio14_3_15_2.png,,,,,,,,,,,,
,,,,,,,,,,,,Some,Half,All,Few,None,Less than half,Most,Many,More than half,-0.430555549,0.38148148,1,0,0,QQQ7,,,,,,,,English,5ed148a5177bf6073dddf293,2020-07-02_11h01.47.070,Experiment_English,3.2.4,Win32,60,,,1,0,340,208,1,339,ratio31_9_12_3.png,,,,,,,,,,,,
,,,,,,,,,,,,Many,None,Some,More than half,Half,All,Less than half,Most,Few,-0.512962929,0.010185178,1,0,0,QQQ8,,,,,,,,English,5ed148a5177bf6073dddf293,2020-07-02_11h01.47.070,Experiment_English,3.2.4,Win32,60,,,1,0,340,161,1,339,ratio21_2_3_8.png,,,,,,,,,,,,
,,,,,,,,,,,,Half,All,Few,More than half,Most,None,Less than half,Some,Many,0.486111132,-0.301851864,1,0,0,QQQ3,,,,,,,,English,5ed148a5177bf6073dddf293,2020-07-02_11h01.47.070,Experiment_English,3.2.4,Win32,60,,,1,0,340,147,1,339,ratio19_1_10_18.png,,,,,,,,,,,,
,,,,,,,,,,,,None,Less than half,More than half,Few,Some,All,Many,Half,Most,0.522222356,-0.05648149,1,0,0,QQQ2,,,,,,,,English,5ed148a5177bf6073dddf293,2020-07-02_11h01.47.070,Experiment_English,3.2.4,Win32,60,,,1,0,340,244,1,339,ratio34_3_7_9.png,,,,,,,,,,,,
,,,,,,,,,,,,Most,Many,Some,More than half,None,All,Half,Few,Less than half,-0.351851844,0.239814811,1,0,0,QQQ7,,,,,,,,English,5ed148a5177bf6073dddf293,2020-07-02_11h01.47.070,Experiment_English,3.2.4,Win32,60,,,1,0,340,37,1,339,ratio11_9_18_8.png,,,,,,,,,,,,
,,,,,,,,,,,,Half,Many,Less than half,None,Some,More than half,Most,All,Few,-0.462037002,0.370370368,1,0,0,QQQ7,,,,,,,,English,5ed148a5177bf6073dddf293,2020-07-02_11h01.47.070,Experiment_English,3.2.4,Win32,60,,,1,0,340,332,1,339,ratio91_18_20_4.png,,,,,,,,,,,,
,,,,,,,,,,,,Few,Some,Many,Half,All,Most,None,More than half,Less than half,0.427777797,0.271296293,1,0,0,QQQ1,,,,,,,,English,5ed148a5177bf6073dddf293,2020-07-02_11h01.47.070,Experiment_English,3.2.4,Win32,60,,,1,0,340,140,1,339,ratio19_1_10_1.png,,,,,,,,,,,,
,,,,,,,,,,,,More than half,Some,Less than half,None,Half,Most,Many,Few,All,0.469444465,0.332407405,1,0,0,QQQ1,,,,,,,,English,5ed148a5177bf6073dddf293,2020-07-02_11h01.47.070,Experiment_English,3.2.4,Win32,60,,,1,0,340,294,1,339,ratio43_8_14_9.png,,,,,,,,,,,,
,,,,,,,,,,,,Many,None,All,Most,Less than half,Few,Half,Some,More than half,0.100925941,0.287037034,1,0,0,QQQ4,,,,,,,,English,5ed148a5177bf6073dddf293,2020-07-02_11h01.47.070,Experiment_English,3.2.4,Win32,60,,,1,0,340,206,1,339,ratio31_6_8_6.png,,,,,,,,,,,,
,,,,,,,,,,,,Half,Few,Some,Less than half,All,None,Most,Many,More than half,-0.513888883,-0.015740748,1,0,0,QQQ8,,,,,,,,English,5ed148a5177bf6073dddf293,2020-07-02_11h01.47.070,Experiment_English,3.2.4,Win32,60,,,1,0,340,172,1,339,ratio21_8_12_6.png,,,,,,,,,,,,
,,,,,,,,,,,,Many,Few,Most,More than half,All,None,Half,Some,Less than half,0.400925945,-0.27314816,1,0,0,QQQ3,,,,,,,,English,5ed148a5177bf6073dddf293,2020-07-02_11h01.47.070,Experiment_English,3.2.4,Win32,60,,,1,0,340,331,1,339,ratio91_18_20_3.png,,,,,,,,,,,,
,,,,,,,,,,,,None,Most,All,Few,Many,More than half,Some,Less than half,Half,0.060185199,-0.312037106,1,0,0,QQQ6,,,,,,,,English,5ed148a5177bf6073dddf293,2020-07-02_11h01.47.070,Experiment_English,3.2.4,Win32,60,,,1,0,340,232,1,339,ratio32_9_15_8.png,,,,,,,,,,,,
,,,,,,,,,,,,None,Few,Some,Most,All,Many,Half,Less than half,More than half,0.013888902,0.268518515,1,0,0,QQQ4,,,,,,,,English,5ed148a5177bf6073dddf293,2020-07-02_11h01.47.070,Experiment_English,3.2.4,Win32,60,,,1,0,340,271,1,339,ratio41_12_15_6.png,,,,,,,,,,,,
,,,,,,,,,,,,None,Some,Half,Less than half,More than half,Many,Most,All,Few,-0.571296292,-0.314814827,1,0,0,QQQ9,,,,,,,,English,5ed148a5177bf6073dddf293,2020-07-02_11h01.47.070,Experiment_English,3.2.4,Win32,60,,,1,0,340,1,1,339,ratio12_1_3_7.png,,,,,,,,,,,,
,,,,,,,,,,,,Some,Few,Many,Half,Most,None,All,Less than half,More than half,0.449074094,0.256481478,1,0,0,QQQ1,,,,,,,,English,5ed148a5177bf6073dddf293,2020-07-02_11h01.47.070,Experiment_English,3.2.4,Win32,60,,,1,0,340,113,1,339,ratio14_3_15_8.png,,,,,,,,,,,,
,,,,,,,,,,,,Less than half,Few,Many,None,More than half,Most,All,Half,Some,0.000925939,-0.034259267,1,0,0,QQQ5,,,,,,,,English,5ed148a5177bf6073dddf293,2020-07-02_11h01.47.070,Experiment_English,3.2.4,Win32,60,,,1,0,340,171,1,339,ratio21_8_12_4.png,,,,,,,,,,,,
,,,,,,,,,,,,Many,Less than half,All,Some,Most,None,Few,More than half,Half,-0.032407395,-0.311111123,1,0,0,QQQ6,,,,,,,,English,5ed148a5177bf6073dddf293,2020-07-02_11h01.47.070,Experiment_English,3.2.4,Win32,60,,,1,0,340,61,1,339,ratio0Y_0_4_7.png,,,,,,,,,,,,
,,,,,,,,,,,,None,Many,More than half,Few,All,Half,Some,Less than half,Most,-0.004629616,0.294444441,1,0,0,QQQ4,,,,,,,,English,5ed148a5177bf6073dddf293,2020-07-02_11h01.47.070,Experiment_English,3.2.4,Win32,60,,,1,0,340,119,1,339,ratio14_4_20_10.png,,,,,,,,,,,,
,,,,,,,,,,,,Half,None,Most,Many,All,Few,Some,More than half,Less than half,-0.01296295,-0.058333342,1,0,0,QQQ5,,,,,,,,English,5ed148a5177bf6073dddf293,2020-07-02_11h01.47.070,Experiment_English,3.2.4,Win32,60,,,1,0,340,40,1,339,ratioX0_3_3_5.png,0.279629647,-0.423148218,1,0,0,continue_button_pause,1,0,1,0,1,0
,,,,,,,,,,,,,,,,,,,,,,,,,,,,,,,,,,English,5ed148a5177bf6073dddf293,2020-07-02_11h01.47.070,Experiment_English,3.2.4,Win32,60,,,1,0,340,40,1,339,ratioX0_3_3_5.png,,,,,,,,,,,,
,,,,,,,,,,,,More than half,Few,Some,None,All,Many,Less than half,Half,Most,0.413888908,0.246296293,1,0,0,QQQ1,,,,,,,,English,5ed148a5177bf6073dddf293,2020-07-02_11h01.47.070,Experiment_English,3.2.4,Win32,60,,,1,0,340,207,1,339,ratio31_6_8_9.png,,,,,,,,,,,,
,,,,,,,,,,,,Half,Less than half,Most,Some,None,Few,Many,More than half,All,-0.036111098,-0.330555624,1,0,0,QQQ6,,,,,,,,English,5ed148a5177bf6073dddf293,2020-07-02_11h01.47.070,Experiment_English,3.2.4,Win32,60,,,1,0,340,2,1,339,ratio12_1_3_10.png,,,,,,,,,,,,
,,,,,,,,,,,,More than half,Less than half,None,Half,Most,Some,Many,Few,All,-0.411111104,0.256481478,1,0,0,QQQ7,,,,,,,,English,5ed148a5177bf6073dddf293,2020-07-02_11h01.47.070,Experiment_English,3.2.4,Win32,60,,,1,0,340,167,1,339,ratio21_6_9_2.png,,,,,,,,,,,,
,,,,,,,,,,,,Most,Less than half,None,More than half,Some,Many,Few,All,Half,-0.459259253,0.289814812,1,0,0,QQQ7,,,,,,,,English,5ed148a5177bf6073dddf293,2020-07-02_11h01.47.070,Experiment_English,3.2.4,Win32,60,,,1,0,340,107,1,339,ratio14_2_10_5.png,,,,,,,,,,,,
,,,,,,,,,,,,Some,Half,Many,Most,All,Few,More than half,Less than half,None,0.057407478,0.330555539,1,0,0,QQQ4,,,,,,,,English,5ed148a5177bf6073dddf293,2020-07-02_11h01.47.070,Experiment_English,3.2.4,Win32,60,,,1,0,340,268,1,339,ratio41_8_10_5.png,,,,,,,,,,,,
,,,,,,,,,,,,More than half,Less than half,Many,Few,Some,None,Most,All,Half,0.027777791,-0.260185197,1,0,0,QQQ6,,,,,,,,English,5ed148a5177bf6073dddf293,2020-07-02_11h01.47.070,Experiment_English,3.2.4,Win32,60,,,1,0,340,77,1,339,ratio0Y_0_18_3.png,,,,,,,,,,,,
,,,,,,,,,,,,Some,More than half,All,Less than half,Many,Half,Few,None,Most,-0.443518484,0.299074071,1,0,0,QQQ7,,,,,,,,English,5ed148a5177bf6073dddf293,2020-07-02_11h01.47.070,Experiment_English,3.2.4,Win32,60,,,1,0,340,159,1,339,ratio19_2_20_20.png,,,,,,,,,,,,
,,,,,,,,,,,,Some,All,Few,None,Half,Many,Less than half,Most,More than half,0.409259279,0.267592589,1,0,0,QQQ1,,,,,,,,English,5ed148a5177bf6073dddf293,2020-07-02_11h01.47.070,Experiment_English,3.2.4,Win32,60,,,1,0,340,99,1,339,ratio13_5_20_4.png,,,,,,,,,,,,
,,,,,,,,,,,,Few,Half,None,All,Less than half,Many,Most,Some,More than half,-0.404629622,0.006481474,1,0,0,QQQ8,,,,,,,,English,5ed148a5177bf6073dddf293,2020-07-02_11h01.47.070,Experiment_English,3.2.4,Win32,60,,,1,0,340,12,1,339,ratio12_4_12_10.png,,,,,,,,,,,,
,,,,,,,,,,,,Some,More than half,Less than half,Most,Half,None,All,Many,Few,0.01203705,0.314814812,1,0,0,QQQ4,,,,,,,,English,5ed148a5177bf6073dddf293,2020-07-02_11h01.47.070,Experiment_English,3.2.4,Win32,60,,,1,0,340,270,1,339,ratio41_12_15_3.png,,,,,,,,,,,,
,,,,,,,,,,,,Some,Many,Half,None,More than half,Most,Less than half,All,Few,0.465740761,-0.287962975,1,0,0,QQQ3,,,,,,,,English,5ed148a5177bf6073dddf293,2020-07-02_11h01.47.070,Experiment_English,3.2.4,Win32,60,,,1,0,340,227,1,339,ratio32_6_10_6.png,,,,,,,,,,,,
,,,,,,,,,,,,Half,More than half,Less than half,Most,Some,None,Few,All,Many,0.01666668,0.339814798,1,0,0,QQQ4,,,,,,,,English,5ed148a5177bf6073dddf293,2020-07-02_11h01.47.070,Experiment_English,3.2.4,Win32,60,,,1,0,340,300,1,339,ratio51_5_6_1.png,,,,,,,,,,,,
,,,,,,,,,,,,Less than half,None,More than half,Half,Few,All,Most,Some,Many,-0.025925857,-0.265740809,1,0,0,QQQ6,,,,,,,,English,5ed148a5177bf6073dddf293,2020-07-02_11h01.47.070,Experiment_English,3.2.4,Win32,60,,,1,0,340,51,1,339,ratioX0_12_12_9.png,,,,,,,,,,,,
,,,,,,,,,,,,Less than half,Half,None,Most,Many,More than half,All,Some,Few,0.516666688,-0.387962976,1,0,0,QQQ3,,,,,,,,English,5ed148a5177bf6073dddf293,2020-07-02_11h01.47.070,Experiment_English,3.2.4,Win32,60,,,1,0,340,63,1,339,ratio0Y_0_6_8.png,,,,,,,,,,,,
,,,,,,,,,,,,More than half,All,Some,Half,Few,Most,Many,Less than half,None,0.107407422,-0.036111119,1,0,0,QQQ5,,,,,,,,English,5ed148a5177bf6073dddf293,2020-07-02_11h01.47.070,Experiment_English,3.2.4,Win32,60,,,1,0,340,112,1,339,ratio14_3_15_4.png,,,,,,,,,,,,
,,,,,,,,,,,,Some,Half,Less than half,All,Few,Many,None,More than half,Most,-0.462962957,-0.274074086,1,0,0,QQQ9,,,,,,,,English,5ed148a5177bf6073dddf293,2020-07-02_11h01.47.070,Experiment_English,3.2.4,Win32,60,,,1,0,340,219,1,339,ratio31_15_20_10.png,,,,,,,,,,,,
,,,,,,,,,,,,None,All,Less than half,More than half,Most,Many,Few,Some,Half,0.393518538,-0.277777789,1,0,0,QQQ3,,,,,,,,English,5ed148a5177bf6073dddf293,2020-07-02_11h01.47.070,Experiment_English,3.2.4,Win32,60,,,1,0,340,18,1,339,ratio12_6_18_7.png,,,,,,,,,,,,
,,,,,,,,,,,,Few,Half,Some,More than half,All,Less than half,Most,Many,None,0.057407478,0.269444441,1,0,0,QQQ4,,,,,,,,English,5ed148a5177bf6073dddf293,2020-07-02_11h01.47.070,Experiment_English,3.2.4,Win32,60,,,1,0,340,238,1,339,ratio32_12_20_9.png,,,,,,,,,,,,
,,,,,,,,,,,,Half,Most,Some,None,Many,Less than half,Few,More than half,All,0.426851871,-0.031481489,1,0,0,QQQ2,,,,,,,,English,5ed148a5177bf6073dddf293,2020-07-02_11h01.47.070,Experiment_English,3.2.4,Win32,60,,,1,0,340,274,1,339,ratio41_12_15_9.png,,,,,,,,,,,,
,,,,,,,,,,,,Less than half,Many,All,More than half,Most,Few,None,Half,Some,0.039814829,0.332407405,1,0,0,QQQ4,,,,,,,,English,5ed148a5177bf6073dddf293,2020-07-02_11h01.47.070,Experiment_English,3.2.4,Win32,60,,,1,0,340,295,1,339,ratio43_8_14_11.png,,,,,,,,,,,,
,,,,,,,,,,,,Some,Half,Many,All,Most,Less than half,Few,More than half,None,0.053703718,0.021296289,1,0,0,QQQ5,,,,,,,,English,5ed148a5177bf6073dddf293,2020-07-02_11h01.47.070,Experiment_English,3.2.4,Win32,60,,,1,0,340,160,1,339,ratio21_2_3_2.png,,,,,,,,,,,,
,,,,,,,,,,,,None,Most,More than half,Many,Few,All,Less than half,Half,Some,0.053703718,0.021296289,1,0,0,QQQ5,,,,,,,,English,5ed148a5177bf6073dddf293,2020-07-02_11h01.47.070,Experiment_English,3.2.4,Win32,60,,,1,0,340,154,1,339,ratio19_2_20_11.png,,,,,,,,,,,,
,,,,,,,,,,,,Half,None,More than half,Some,Most,All,Few,Many,Less than half,0.400000019,-0.297222234,1,0,0,QQQ3,,,,,,,,English,5ed148a5177bf6073dddf293,2020-07-02_11h01.47.070,Experiment_English,3.2.4,Win32,60,,,1,0,340,32,1,339,ratio11_7_14_5.png,,,,,,,,,,,,
,,,,,,,,,,,,Less than half,Many,More than half,Few,Some,None,Most,Half,All,0.089814829,-0.326851864,1,0,0,QQQ6,,,,,,,,English,5ed148a5177bf6073dddf293,2020-07-02_11h01.47.070,Experiment_English,3.2.4,Win32,60,,,1,0,340,69,1,339,ratio0Y_0_11_6.png,,,,,,,,,,,,
,,,,,,,,,,,,Many,Most,Less than half,More than half,None,Some,Half,All,Few,-0.385185178,0.310185182,1,0,0,QQQ7,,,,,,,,English,5ed148a5177bf6073dddf293,2020-07-02_11h01.47.070,Experiment_English,3.2.4,Win32,60,,,1,0,340,251,1,339,ratio34_6_14_2.png,,,,,,,,,,,,
,,,,,,,,,,,,Some,All,Half,Few,Most,None,More than half,Less than half,Many,-0.474074068,-0.008333341,1,0,0,QQQ8,,,,,,,,English,5ed148a5177bf6073dddf293,2020-07-02_11h01.47.070,Experiment_English,3.2.4,Win32,60,,,1,0,340,15,1,339,ratio12_5_15_5.png,,,,,,,,,,,,
,,,,,,,,,,,,Few,Half,Many,None,Some,Less than half,Most,All,More than half,-0.485185151,0.285185182,1,0,0,QQQ7,,,,,,,,English,5ed148a5177bf6073dddf293,2020-07-02_11h01.47.070,Experiment_English,3.2.4,Win32,60,,,1,0,340,162,1,339,ratio21_2_3_9.png,,,,,,,,,,,,
,,,,,,,,,,,,All,Some,None,Few,More than half,Most,Many,Half,Less than half,-0.061111099,-0.275000068,1,0,0,QQQ6,,,,,,,,English,5ed148a5177bf6073dddf293,2020-07-02_11h01.47.070,Experiment_English,3.2.4,Win32,60,,,1,0,340,168,1,339,ratio21_6_9_3.png,,,,,,,,,,,,
,,,,,,,,,,,,Less than half,Most,Many,More than half,Some,Half,None,Few,All,-0.423148141,-0.024074082,1,0,0,QQQ8,,,,,,,,English,5ed148a5177bf6073dddf293,2020-07-02_11h01.47.070,Experiment_English,3.2.4,Win32,60,,,1,0,340,152,1,339,ratio19_2_20_6.png,,,,,,,,,,,,
,,,,,,,,,,,,More than half,Some,Most,Few,None,Less than half,Many,All,Half,-0.034259247,0.263888885,1,0,0,QQQ4,,,,,,,,English,5ed148a5177bf6073dddf293,2020-07-02_11h01.47.070,Experiment_English,3.2.4,Win32,60,,,1,0,340,111,1,339,ratio14_3_15_3.png,,,,,,,,,,,,
,,,,,,,,,,,,None,Few,Some,Many,Half,Most,More than half,All,Less than half,0.005555569,0.286111108,1,0,0,QQQ4,,,,,,,,English,5ed148a5177bf6073dddf293,2020-07-02_11h01.47.070,Experiment_English,3.2.4,Win32,60,,,1,0,340,212,1,339,ratio31_12_16_1.png,,,,,,,,,,,,
,,,,,,,,,,,,Half,Less than half,All,Many,Some,Few,More than half,None,Most,0.005555569,0.286111108,1,0,0,QQQ4,,,,,,,,English,5ed148a5177bf6073dddf293,2020-07-02_11h01.47.070,Experiment_English,3.2.4,Win32,60,,,1,0,340,33,1,339,ratio11_7_14_8.png,,,,,,,,,,,,
,,,,,,,,,,,,None,More than half,Half,Many,Some,All,Less than half,Most,Few,-0.461111105,0.036111076,1,0,0,QQQ8,,,,,,,,English,5ed148a5177bf6073dddf293,2020-07-02_11h01.47.070,Experiment_English,3.2.4,Win32,60,,,1,0,340,327,1,339,ratio91_9_10_11.png,,,,,,,,,,,,
,,,,,,,,,,,,Few,Less than half,More than half,Many,Some,Most,All,Half,None,0.402777797,-0.031481489,1,0,0,QQQ2,,,,,,,,English,5ed148a5177bf6073dddf293,2020-07-02_11h01.47.070,Experiment_English,3.2.4,Win32,60,,,1,0,340,6,1,339,ratio12_3_9_1.png,0.325000018,-0.414814828,1,0,0,continue_button_pause,1,0,1,0,1,0
,,,,,,,,,,,,,,,,,,,,,,,,,,,,,,,,,,English,5ed148a5177bf6073dddf293,2020-07-02_11h01.47.070,Experiment_English,3.2.4,Win32,60,,,1,0,340,6,1,339,ratio12_3_9_1.png,,,,,,,,,,,,
,,,,,,,,,,,,All,Some,More than half,Half,Few,Many,Less than half,Most,None,-0.368518511,-0.009259267,1,0,0,QQQ8,,,,,,,,English,5ed148a5177bf6073dddf293,2020-07-02_11h01.47.070,Experiment_English,3.2.4,Win32,60,,,1,0,340,320,1,339,ratio91_9_10_1.png,,,,,,,,,,,,
,,,,,,,,,,,,Most,More than half,Half,Less than half,Many,All,Few,Some,None,0.491666687,0.326851849,1,0,0,QQQ1,,,,,,,,English,5ed148a5177bf6073dddf293,2020-07-02_11h01.47.070,Experiment_English,3.2.4,Win32,60,,,1,0,340,321,1,339,ratio91_9_10_2.png,,,,,,,,,,,,
,,,,,,,,,,,,Half,Many,Less than half,Most,Some,None,More than half,Few,All,0.440740761,-0.324074086,1,0,0,QQQ3,,,,,,,,English,5ed148a5177bf6073dddf293,2020-07-02_11h01.47.070,Experiment_English,3.2.4,Win32,60,,,1,0,340,242,1,339,ratio34_3_7_6.png,,,,,,,,,,,,
,,,,,,,,,,,,Less than half,All,Most,Some,None,Many,Half,More than half,Few,-0.498148142,-0.310185197,1,0,0,QQQ9,,,,,,,,English,5ed148a5177bf6073dddf293,2020-07-02_11h01.47.070,Experiment_English,3.2.4,Win32,60,,,1,0,340,128,1,339,ratio15_2_12_8.png,,,,,,,,,,,,
,,,,,,,,,,,,Few,None,More than half,Many,Some,Half,All,Less than half,Most,0.438889022,-0.027777786,1,0,0,QQQ2,,,,,,,,English,5ed148a5177bf6073dddf293,2020-07-02_11h01.47.070,Experiment_English,3.2.4,Win32,60,,,1,0,340,65,1,339,ratio0Y_0_8_4.png,,,,,,,,,,,,
,,,,,,,,,,,,Half,Less than half,Most,Some,Many,None,Few,More than half,All,0.438889022,-0.027777786,1,0,0,QQQ2,,,,,,,,English,5ed148a5177bf6073dddf293,2020-07-02_11h01.47.070,Experiment_English,3.2.4,Win32,60,,,1,0,340,185,1,339,ratio23_4_10_1.png,,,,,,,,,,,,
,,,,,,,,,,,,None,Few,All,Most,Half,Some,Less than half,Many,More than half,0.403703723,-0.020370378,1,0,0,QQQ2,,,,,,,,English,5ed148a5177bf6073dddf293,2020-07-02_11h01.47.070,Experiment_English,3.2.4,Win32,60,,,1,0,340,146,1,339,ratio19_1_10_17.png,,,,,,,,,,,,
,,,,,,,,,,,,Some,None,Many,Most,Few,More than half,Half,Less than half,All,-0.044444375,0.285185182,1,0,0,QQQ4,,,,,,,,English,5ed148a5177bf6073dddf293,2020-07-02_11h01.47.070,Experiment_English,3.2.4,Win32,60,,,1,0,340,302,1,339,ratio51_5_6_5.png,,,,,,,,,,,,
,,,,,,,,,,,,None,Less than half,Half,Most,All,Few,More than half,Many,Some,-0.044444375,0.285185182,1,0,0,QQQ4,,,,,,,,English,5ed148a5177bf6073dddf293,2020-07-02_11h01.47.070,Experiment_English,3.2.4,Win32,60,,,1,0,340,260,1,339,ratio41_4_5_2.png,,,,,,,,,,,,
,,,,,,,,,,,,Many,Few,None,Most,Some,More than half,Less than half,Half,All,-0.467592586,0.281481478,1,0,0,QQQ7,,,,,,,,English,5ed148a5177bf6073dddf293,2020-07-02_11h01.47.070,Experiment_English,3.2.4,Win32,60,,,1,0,340,11,1,339,ratio12_4_12_7.png,,,,,,,,,,,,
,,,,,,,,,,,,Less than half,Some,Many,Few,Half,All,Most,More than half,None,-0.119444433,0.324074071,1,0,0,QQQ4,,,,,,,,English,5ed148a5177bf6073dddf293,2020-07-02_11h01.47.070,Experiment_English,3.2.4,Win32,60,,,1,0,340,132,1,339,ratio15_2_12_16.png,,,,,,,,,,,,
,,,,,,,,,,,,Most,Many,Half,All,None,Some,More than half,Less than half,Few,0.453703724,0.328703701,1,0,0,QQQ1,,,,,,,,English,5ed148a5177bf6073dddf293,2020-07-02_11h01.47.070,Experiment_English,3.2.4,Win32,60,,,1,0,340,266,1,339,ratio41_8_10_2.png,,,,,,,,,,,,
,,,,,,,,,,,,Most,More than half,Few,None,Many,Less than half,Half,Some,All,0.423148168,-0.007407415,1,0,0,QQQ2,,,,,,,,English,5ed148a5177bf6073dddf293,2020-07-02_11h01.47.070,Experiment_English,3.2.4,Win32,60,,,1,0,340,220,1,339,ratio32_3_5_1.png,,,,,,,,,,,,
,,,,,,,,,,,,Half,Few,More than half,Less than half,Most,None,All,Many,Some,0.062037051,-0.292592604,1,0,0,QQQ6,,,,,,,,English,5ed148a5177bf6073dddf293,2020-07-02_11h01.47.070,Experiment_English,3.2.4,Win32,60,,,1,0,340,60,1,339,ratio0Y_0_3_5.png,,,,,,,,,,,,
,,,,,,,,,,,,All,Some,Less than half,More than half,Most,None,Few,Half,Many,0.062037051,-0.292592604,1,0,0,QQQ6,,,,,,,,English,5ed148a5177bf6073dddf293,2020-07-02_11h01.47.070,Experiment_English,3.2.4,Win32,60,,,1,0,340,74,1,339,ratio0Y_0_15_10.png,,,,,,,,,,,,
,,,,,,,,,,,,Most,Few,None,Some,All,Half,Many,More than half,Less than half,-0.449074068,-0.351851865,1,0,0,QQQ9,,,,,,,,English,5ed148a5177bf6073dddf293,2020-07-02_11h01.47.070,Experiment_English,3.2.4,Win32,60,,,1,0,340,241,1,339,ratio34_3_7_5.png,,,,,,,,,,,,
,,,,,,,,,,,,Many,Few,All,Most,More than half,Less than half,Some,None,Half,-0.470370364,0.297222219,1,0,0,QQQ7,,,,,,,,English,5ed148a5177bf6073dddf293,2020-07-02_11h01.47.070,Experiment_English,3.2.4,Win32,60,,,1,0,340,94,1,339,ratio13_4_16_8.png,,,,,,,,,,,,
,,,,,,,,,,,,More than half,None,Half,All,Some,Many,Most,Few,Less than half,0.451851872,-0.287962975,1,0,0,QQQ3,,,,,,,,English,5ed148a5177bf6073dddf293,2020-07-02_11h01.47.070,Experiment_English,3.2.4,Win32,60,,,1,0,340,21,1,339,ratio11_2_4_10.png,,,,,,,,,,,,
,,,,,,,,,,,,Half,None,Few,Many,More than half,Most,Some,All,Less than half,0.453703724,-0.002777785,1,0,0,QQQ2,,,,,,,,English,5ed148a5177bf6073dddf293,2020-07-02_11h01.47.070,Experiment_English,3.2.4,Win32,60,,,1,0,340,78,1,339,ratio0Y_0_19_1.png,,,,,,,,,,,,
,,,,,,,,,,,,Few,All,Half,Some,Many,Most,None,More than half,Less than half,0.482407428,-0.008333341,1,0,0,QQQ2,,,,,,,,English,5ed148a5177bf6073dddf293,2020-07-02_11h01.47.070,Experiment_English,3.2.4,Win32,60,,,1,0,340,45,1,339,ratioX0_8_8_3.png,,,,,,,,,,,,
,,,,,,,,,,,,Many,All,Most,Few,Less than half,More than half,Some,Half,None,0.04629631,-0.027777786,1,0,0,QQQ5,,,,,,,,English,5ed148a5177bf6073dddf293,2020-07-02_11h01.47.070,Experiment_English,3.2.4,Win32,60,,,1,0,340,253,1,339,ratio34_6_14_5.png,,,,,,,,,,,,
,,,,,,,,,,,,Some,Few,Half,None,Many,More than half,Most,All,Less than half,0.483333354,0.282407404,1,0,0,QQQ1,,,,,,,,English,5ed148a5177bf6073dddf293,2020-07-02_11h01.47.070,Experiment_English,3.2.4,Win32,60,,,1,0,340,89,1,339,ratio13_3_12_6.png,,,,,,,,,,,,
,,,,,,,,,,,,Less than half,Most,Many,Half,More than half,Few,All,None,Some,0.465740761,-0.002777785,1,0,0,QQQ2,,,,,,,,English,5ed148a5177bf6073dddf293,2020-07-02_11h01.47.070,Experiment_English,3.2.4,Win32,60,,,1,0,340,263,1,339,ratio41_4_5_5.png,,,,,,,,,,,,
,,,,,,,,,,,,Few,Some,Most,Half,All,More than half,Many,Less than half,None,0.067592607,-0.000925933,1,0,0,QQQ5,,,,,,,,English,5ed148a5177bf6073dddf293,2020-07-02_11h01.47.070,Experiment_English,3.2.4,Win32,60,,,1,0,340,59,1,339,ratioX0_20_20_9.png,,,,,,,,,,,,
,,,,,,,,,,,,Many,None,Less than half,Most,More than half,Half,Few,Some,All,0.067592607,0.263888885,1,0,0,QQQ4,,,,,,,,English,5ed148a5177bf6073dddf293,2020-07-02_11h01.47.070,Experiment_English,3.2.4,Win32,60,,,1,0,340,337,1,339,ratio91_18_20_16.png,,,,,,,,,,,,
,,,,,,,,,,,,None,Most,All,Less than half,More than half,Some,Half,Few,Many,-0.405555548,0.001851844,1,0,0,QQQ8,,,,,,,,English,5ed148a5177bf6073dddf293,2020-07-02_11h01.47.070,Experiment_English,3.2.4,Win32,60,,,1,0,340,150,1,339,ratio19_2_20_1.png,,,,,,,,,,,,
,,,,,,,,,,,,More than half,All,Many,Less than half,Most,Some,None,Half,Few,-0.474074068,-0.344444514,1,0,0,QQQ9,,,,,,,,English,5ed148a5177bf6073dddf293,2020-07-02_11h01.47.070,Experiment_English,3.2.4,Win32,60,,,1,0,340,157,1,339,ratio19_2_20_16.png,,,,,,,,,,,,
,,,,,,,,,,,,More than half,None,Less than half,Few,All,Some,Most,Half,Many,-0.474074068,0.282407404,1,0,0,QQQ7,,,,,,,,English,5ed148a5177bf6073dddf293,2020-07-02_11h01.47.070,Experiment_English,3.2.4,Win32,60,,,1,0,340,214,1,339,ratio31_12_16_5.png,,,,,,,,,,,,
,,,,,,,,,,,,More than half,None,Some,All,Less than half,Half,Many,Most,Few,-0.046296284,-0.295370382,1,0,0,QQQ6,,,,,,,,English,5ed148a5177bf6073dddf293,2020-07-02_11h01.47.070,Experiment_English,3.2.4,Win32,60,,,1,0,340,29,1,339,ratio11_6_12_1.png,,,,,,,,,,,,
,,,,,,,,,,,,None,More than half,Many,Most,Few,Some,Half,Less than half,All,0.08055557,0.302777761,1,0,0,QQQ4,,,,,,,,English,5ed148a5177bf6073dddf293,2020-07-02_11h01.47.070,Experiment_English,3.2.4,Win32,60,,,1,0,340,277,1,339,ratio41_16_20_8.png,,,,,,,,,,,,
,,,,,,,,,,,,Many,Some,Most,None,More than half,Half,All,Less than half,Few,-0.413888882,-0.261111179,1,0,0,QQQ9,,,,,,,,English,5ed148a5177bf6073dddf293,2020-07-02_11h01.47.070,Experiment_English,3.2.4,Win32,60,,,1,0,340,116,1,339,ratio14_4_20_3.png,,,,,,,,,,,,
,,,,,,,,,,,,Half,All,None,Many,Few,Some,Most,More than half,Less than half,-0.056481469,-0.310185197,1,0,0,QQQ6,,,,,,,,English,5ed148a5177bf6073dddf293,2020-07-02_11h01.47.070,Experiment_English,3.2.4,Win32,60,,,1,0,340,98,1,339,ratio13_5_20_3.png,,,,,,,,,,,,
,,,,,,,,,,,,None,Less than half,All,Most,More than half,Few,Some,Half,Many,-0.423148141,-0.057407416,1,0,0,QQQ8,,,,,,,,English,5ed148a5177bf6073dddf293,2020-07-02_11h01.47.070,Experiment_English,3.2.4,Win32,60,,,1,0,340,237,1,339,ratio32_12_20_5.png,,,,,,,,,,,,
,,,,,,,,,,,,Less than half,Many,Half,None,Some,Most,All,More than half,Few,-0.1111111,-0.311111123,1,0,0,QQQ6,,,,,,,,English,5ed148a5177bf6073dddf293,2020-07-02_11h01.47.070,Experiment_English,3.2.4,Win32,60,,,1,0,340,317,1,339,ratio51_15_18_13.png,0.316666685,-0.378703717,1,0,0,continue_button_pause,1,0,1,0,1,0
,,,,,,,,,,,,,,,,,,,,,,,,,,,,,,,,,,English,5ed148a5177bf6073dddf293,2020-07-02_11h01.47.070,Experiment_English,3.2.4,Win32,60,,,1,0,340,317,1,339,ratio51_15_18_13.png,,,,,,,,,,,,
,,,,,,,,,,,,More than half,Half,Many,Some,Most,Few,All,Less than half,None,0.043518589,-0.265740809,1,0,0,QQQ6,,,,,,,,English,5ed148a5177bf6073dddf293,2020-07-02_11h01.47.070,Experiment_English,3.2.4,Win32,60,,,1,0,340,258,1,339,ratio34_6_14_14.png,,,,,,,,,,,,
,,,,,,,,,,,,Few,Half,All,None,Most,Many,Some,Less than half,More than half,-0.078703692,-0.314814827,1,0,0,QQQ6,,,,,,,,English,5ed148a5177bf6073dddf293,2020-07-02_11h01.47.070,Experiment_English,3.2.4,Win32,60,,,1,0,340,176,1,339,ratio21_10_15_3.png,,,,,,,,,,,,
,,,,,,,,,,,,None,Few,More than half,All,Some,Most,Half,Less than half,Many,0.425925946,0.033333326,1,0,0,QQQ2,,,,,,,,English,5ed148a5177bf6073dddf293,2020-07-02_11h01.47.070,Experiment_English,3.2.4,Win32,60,,,1,0,340,102,1,339,ratio14_1_5_8.png,,,,,,,,,,,,
,,,,,,,,,,,,More than half,Half,Some,Most,None,Less than half,Many,Few,All,-0.005555542,0.339814798,1,0,0,QQQ4,,,,,,,,English,5ed148a5177bf6073dddf293,2020-07-02_11h01.47.070,Experiment_English,3.2.4,Win32,60,,,1,0,340,316,1,339,ratio51_15_18_11.png,,,,,,,,,,,,
,,,,,,,,,,,,Most,More than half,Few,Some,Half,Less than half,None,Many,All,0.441666686,0.06666666,1,0,0,QQQ2,,,,,,,,English,5ed148a5177bf6073dddf293,2020-07-02_11h01.47.070,Experiment_English,3.2.4,Win32,60,,,1,0,340,34,1,339,ratio11_8_16_8.png,,,,,,,,,,,,
,,,,,,,,,,,,More than half,None,All,Some,Few,Many,Most,Half,Less than half,-0.073148136,0.286111108,1,0,0,QQQ4,,,,,,,,English,5ed148a5177bf6073dddf293,2020-07-02_11h01.47.070,Experiment_English,3.2.4,Win32,60,,,1,0,340,88,1,339,ratio13_3_12_5.png,,,,,,,,,,,,
,,,,,,,,,,,,More than half,Some,Less than half,All,Many,Most,None,Half,Few,-0.028703691,0.282407404,1,0,0,QQQ4,,,,,,,,English,5ed148a5177bf6073dddf293,2020-07-02_11h01.47.070,Experiment_English,3.2.4,Win32,60,,,1,0,340,54,1,339,ratioX0_15_15_5.png,,,,,,,,,,,,
,,,,,,,,,,,,All,More than half,Half,Some,Many,Most,Less than half,Few,None,-0.043518506,0.04629629,1,0,0,QQQ5,,,,,,,,English,5ed148a5177bf6073dddf293,2020-07-02_11h01.47.070,Experiment_English,3.2.4,Win32,60,,,1,0,340,315,1,339,ratio51_15_18_10.png,,,,,,,,,,,,
,,,,,,,,,,,,All,Less than half,More than half,Most,Many,Few,None,Half,Some,0.480555689,0.371296294,1,0,0,QQQ1,,,,,,,,English,5ed148a5177bf6073dddf293,2020-07-02_11h01.47.070,Experiment_English,3.2.4,Win32,60,,,1,0,340,42,1,339,ratioX0_5_5_5.png,,,,,,,,,,,,
,,,,,,,,,,,,Most,Half,All,None,Some,Less than half,Few,Many,More than half,0.433333353,0.00277777,1,0,0,QQQ2,,,,,,,,English,5ed148a5177bf6073dddf293,2020-07-02_11h01.47.070,Experiment_English,3.2.4,Win32,60,,,1,0,340,257,1,339,ratio34_6_14_12.png,,,,,,,,,,,,
,,,,,,,,,,,,Most,More than half,None,Half,Few,All,Some,Less than half,Many,0.428703723,0.25833333,1,0,0,QQQ1,,,,,,,,English,5ed148a5177bf6073dddf293,2020-07-02_11h01.47.070,Experiment_English,3.2.4,Win32,60,,,1,0,340,210,1,339,ratio31_9_12_9.png,,,,,,,,,,,,
,,,,,,,,,,,,More than half,Half,Some,Few,None,Many,All,Most,Less than half,0.475926059,0.0074074,1,0,0,QQQ2,,,,,,,,English,5ed148a5177bf6073dddf293,2020-07-02_11h01.47.070,Experiment_English,3.2.4,Win32,60,,,1,0,340,291,1,339,ratio43_8_14_5.png,,,,,,,,,,,,
,,,,,,,,,,,,Few,Half,Most,All,Less than half,Some,Many,None,More than half,0.099074089,-0.05185186,1,0,0,QQQ5,,,,,,,,English,5ed148a5177bf6073dddf293,2020-07-02_11h01.47.070,Experiment_English,3.2.4,Win32,60,,,1,0,340,190,1,339,ratio23_6_15_3.png,,,,,,,,,,,,
,,,,,,,,,,,,Less than half,Half,Some,Few,None,Most,All,Many,More than half,-0.543518513,0.270370353,1,0,0,QQQ7,,,,,,,,English,5ed148a5177bf6073dddf293,2020-07-02_11h01.47.070,Experiment_English,3.2.4,Win32,60,,,1,0,340,58,1,339,ratioX0_19_19_4.png,,,,,,,,,,,,
,,,,,,,,,,,,None,More than half,Some,Half,Most,All,Less than half,Many,Few,0.014814828,0.30833333,1,0,0,QQQ4,,,,,,,,English,5ed148a5177bf6073dddf293,2020-07-02_11h01.47.070,Experiment_English,3.2.4,Win32,60,,,1,0,340,256,1,339,ratio34_6_14_11.png,,,,,,,,,,,,
,,,,,,,,,,,,Many,Most,None,Few,More than half,Half,Some,All,Less than half,0.022222236,0.034259252,1,0,0,QQQ5,,,,,,,,English,5ed148a5177bf6073dddf293,2020-07-02_11h01.47.070,Experiment_English,3.2.4,Win32,60,,,1,0,340,234,1,339,ratio32_9_15_10.png,,,,,,,,,,,,
,,,,,,,,,,,,Half,Most,Many,Less than half,All,Some,More than half,None,Few,0.030555569,-0.269444456,1,0,0,QQQ6,,,,,,,,English,5ed148a5177bf6073dddf293,2020-07-02_11h01.47.070,Experiment_English,3.2.4,Win32,60,,,1,0,340,5,1,339,ratio12_2_6_9.png,,,,,,,,,,,,
,,,,,,,,,,,,Half,Less than half,Most,More than half,None,Few,Some,All,Many,-0.043518506,0.294444441,1,0,0,QQQ4,,,,,,,,English,5ed148a5177bf6073dddf293,2020-07-02_11h01.47.070,Experiment_English,3.2.4,Win32,60,,,1,0,340,273,1,339,ratio41_12_15_8.png,,,,,,,,,,,,
,,,,,,,,,,,,Most,Less than half,Some,More than half,All,None,Half,Few,Many,-0.430555549,-0.266666678,1,0,0,QQQ9,,,,,,,,English,5ed148a5177bf6073dddf293,2020-07-02_11h01.47.070,Experiment_English,3.2.4,Win32,60,,,1,0,340,215,1,339,ratio31_12_16_8.png,,,,,,,,,,,,
,,,,,,,,,,,,Most,Half,None,Many,Some,All,Few,Less than half,More than half,0.433333353,0.245370367,1,0,0,QQQ1,,,,,,,,English,5ed148a5177bf6073dddf293,2020-07-02_11h01.47.070,Experiment_English,3.2.4,Win32,60,,,1,0,340,308,1,339,ratio51_10_12_9.png,,,,,,,,,,,,
,,,,,,,,,,,,None,More than half,Some,Few,Less than half,Half,Many,All,Most,0.094444459,0.303703701,1,0,0,QQQ4,,,,,,,,English,5ed148a5177bf6073dddf293,2020-07-02_11h01.47.070,Experiment_English,3.2.4,Win32,60,,,1,0,340,84,1,339,ratio13_2_8_1.png,,,,,,,,,,,,
,,,,,,,,,,,,More than half,Many,Half,All,Most,Few,None,Less than half,Some,-0.430555549,-0.33703705,1,0,0,QQQ9,,,,,,,,English,5ed148a5177bf6073dddf293,2020-07-02_11h01.47.070,Experiment_English,3.2.4,Win32,60,,,1,0,340,16,1,339,ratio12_5_15_6.png,,,,,,,,,,,,
,,,,,,,,,,,,All,None,Half,Less than half,Few,Most,More than half,Some,Many,-0.026851839,0.230555552,1,0,0,QQQ4,,,,,,,,English,5ed148a5177bf6073dddf293,2020-07-02_11h01.47.070,Experiment_English,3.2.4,Win32,60,,,1,0,340,35,1,339,ratio11_8_16_10.png,,,,,,,,,,,,
,,,,,,,,,,,,Some,Many,More than half,Few,Most,All,Half,Less than half,None,-0.022222209,0.006481474,1,0,0,QQQ5,,,,,,,,English,5ed148a5177bf6073dddf293,2020-07-02_11h01.47.070,Experiment_English,3.2.4,Win32,60,,,1,0,340,204,1,339,ratio31_6_8_1.png,,,,,,,,,,,,
,,,,,,,,,,,,None,Many,Half,Few,Most,Some,All,More than half,Less than half,-0.022222209,0.006481474,1,0,0,QQQ5,,,,,,,,English,5ed148a5177bf6073dddf293,2020-07-02_11h01.47.070,Experiment_English,3.2.4,Win32,60,,,1,0,340,335,1,339,ratio91_18_20_11.png,,,,,,,,,,,,
,,,,,,,,,,,,None,Few,Most,Half,Less than half,All,Some,Many,More than half,0.008333347,0.2537037,1,0,0,QQQ4,,,,,,,,English,5ed148a5177bf6073dddf293,2020-07-02_11h01.47.070,Experiment_English,3.2.4,Win32,60,,,1,0,340,199,1,339,ratio23_8_20_8.png,,,,,,,,,,,,
,,,,,,,,,,,,Less than half,Some,Half,Most,None,More than half,Few,All,Many,-0.414814808,0.25833333,1,0,0,QQQ7,,,,,,,,English,5ed148a5177bf6073dddf293,2020-07-02_11h01.47.070,Experiment_English,3.2.4,Win32,60,,,1,0,340,124,1,339,ratio15_1_6_16.png,,,,,,,,,,,,
,,,,,,,,,,,,None,Few,Half,Some,More than half,Many,Most,Less than half,All,-0.062962894,0.026851817,1,0,0,QQQ5,,,,,,,,English,5ed148a5177bf6073dddf293,2020-07-02_11h01.47.070,Experiment_English,3.2.4,Win32,60,,,1,0,340,231,1,339,ratio32_9_15_2.png,,,,,,,,,,,,
,,,,,,,,,,,,Less than half,All,Many,More than half,Most,Few,Some,None,Half,-0.062962894,0.026851817,1,0,0,QQQ5,,,,,,,,English,5ed148a5177bf6073dddf293,2020-07-02_11h01.47.070,Experiment_English,3.2.4,Win32,60,,,1,0,340,328,1,339,ratio91_9_10_15.png,,,,,,,,,,,,
,,,,,,,,,,,,Less than half,Half,None,More than half,All,Many,Few,Most,Some,0.399074093,0.279629612,1,0,0,QQQ1,,,,,,,,English,5ed148a5177bf6073dddf293,2020-07-02_11h01.47.070,Experiment_English,3.2.4,Win32,60,,,1,0,340,247,1,339,ratio34_3_7_12.png,,,,,,,,,,,,
,,,,,,,,,,,,Most,More than half,Some,All,Few,None,Half,Many,Less than half,-0.069444432,0.348148146,1,0,0,QQQ4,,,,,,,,English,5ed148a5177bf6073dddf293,2020-07-02_11h01.47.070,Experiment_English,3.2.4,Win32,60,,,1,0,340,44,1,339,ratioX0_7_7_5.png,,,,,,,,,,,,
,,,,,,,,,,,,None,All,More than half,Most,Some,Less than half,Many,Few,Half,-0.059259247,-0.32314816,1,0,0,QQQ6,,,,,,,,English,5ed148a5177bf6073dddf293,2020-07-02_11h01.47.070,Experiment_English,3.2.4,Win32,60,,,1,0,340,17,1,339,ratio12_6_18_5.png,,,,,,,,,,,,
,,,,,,,,,,,,None,All,Some,Half,Most,Less than half,More than half,Few,Many,-0.059259247,-0.32314816,1,0,0,QQQ6,,,,,,,,English,5ed148a5177bf6073dddf293,2020-07-02_11h01.47.070,Experiment_English,3.2.4,Win32,60,,,1,0,340,195,1,339,ratio23_8_20_1.png,,,,,,,,,,,,
,,,,,,,,,,,,More than half,All,Less than half,None,Most,Some,Few,Half,Many,-0.514814809,0.310185182,1,0,0,QQQ7,,,,,,,,English,5ed148a5177bf6073dddf293,2020-07-02_11h01.47.070,Experiment_English,3.2.4,Win32,60,,,1,0,340,101,1,339,ratio14_1_5_7.png,0.271296314,-0.350925939,1,0,0,continue_button_pause,1,0,1,0,1,0
,,,,,,,,,,,,,,,,,,,,,,,,,,,,,,,,,,English,5ed148a5177bf6073dddf293,2020-07-02_11h01.47.070,Experiment_English,3.2.4,Win32,60,,,1,0,340,101,1,339,ratio14_1_5_7.png,,,,,,,,,,,,
,,,,,,,,,,,,Half,More than half,Many,Most,Few,Some,None,All,Less than half,0.439814835,0.250925922,1,0,0,QQQ1,,,,,,,,English,5ed148a5177bf6073dddf293,2020-07-02_11h01.47.070,Experiment_English,3.2.4,Win32,60,,,1,0,340,39,1,339,ratio11_10_20_6.png,,,,,,,,,,,,
,,,,,,,,,,,,Some,All,Most,Few,Many,Half,None,More than half,Less than half,0.048148219,0.274999983,1,0,0,QQQ4,,,,,,,,English,5ed148a5177bf6073dddf293,2020-07-02_11h01.47.070,Experiment_English,3.2.4,Win32,60,,,1,0,340,131,1,339,ratio15_2_12_14.png,,,,,,,,,,,,
,,,,,,,,,,,,Many,Most,More than half,All,Some,Half,Few,Less than half,None,0.363888908,-0.249074085,1,0,0,QQQ3,,,,,,,,English,5ed148a5177bf6073dddf293,2020-07-02_11h01.47.070,Experiment_English,3.2.4,Win32,60,,,1,0,340,164,1,339,ratio21_4_6_6.png,,,,,,,,,,,,
,,,,,,,,,,,,Less than half,Most,Half,Some,None,All,Many,More than half,Few,-0.349074066,0.264814811,1,0,0,QQQ7,,,,,,,,English,5ed148a5177bf6073dddf293,2020-07-02_11h01.47.070,Experiment_English,3.2.4,Win32,60,,,1,0,340,211,1,339,ratio31_9_12_10.png,,,,,,,,,,,,
,,,,,,,,,,,,Some,Many,Few,All,Half,None,Less than half,Most,More than half,-0.435185178,-0.302777846,1,0,0,QQQ9,,,,,,,,English,5ed148a5177bf6073dddf293,2020-07-02_11h01.47.070,Experiment_English,3.2.4,Win32,60,,,1,0,340,163,1,339,ratio21_4_6_1.png,,,,,,,,,,,,
,,,,,,,,,,,,All,Less than half,Many,None,Most,Half,More than half,Few,Some,-0.028703691,-0.003703711,1,0,0,QQQ5,,,,,,,,English,5ed148a5177bf6073dddf293,2020-07-02_11h01.47.070,Experiment_English,3.2.4,Win32,60,,,1,0,340,334,1,339,ratio91_18_20_9.png,,,,,,,,,,,,
,,,,,,,,,,,,Some,Most,All,More than half,Less than half,Many,Half,Few,None,-0.021296227,0.263888885,1,0,0,QQQ4,,,,,,,,English,5ed148a5177bf6073dddf293,2020-07-02_11h01.47.070,Experiment_English,3.2.4,Win32,60,,,1,0,340,225,1,339,ratio32_6_10_4.png,,,,,,,,,,,,
,,,,,,,,,,,,None,Most,All,Half,Some,Few,Less than half,More than half,Many,0.47500002,-0.350925939,1,0,0,QQQ3,,,,,,,,English,5ed148a5177bf6073dddf293,2020-07-02_11h01.47.070,Experiment_English,3.2.4,Win32,60,,,1,0,340,48,1,339,ratioX0_10_10_1.png,,,,,,,,,,,,
,,,,,,,,,,,,None,More than half,All,Most,Less than half,Half,Few,Some,Many,0.465740761,0.005555548,1,0,0,QQQ2,,,,,,,,English,5ed148a5177bf6073dddf293,2020-07-02_11h01.47.070,Experiment_English,3.2.4,Win32,60,,,1,0,340,293,1,339,ratio43_8_14_7.png,,,,,,,,,,,,
,,,,,,,,,,,,None,More than half,Half,Less than half,Few,Many,Some,All,Most,0.465740761,0.005555548,1,0,0,QQQ2,,,,,,,,English,5ed148a5177bf6073dddf293,2020-07-02_11h01.47.070,Experiment_English,3.2.4,Win32,60,,,1,0,340,297,1,339,ratio43_8_14_13.png,,,,,,,,,,,,
,,,,,,,,,,,,Less than half,All,More than half,Some,Most,Half,None,Few,Many,0.489814948,0.29259259,1,0,0,QQQ1,,,,,,,,English,5ed148a5177bf6073dddf293,2020-07-02_11h01.47.070,Experiment_English,3.2.4,Win32,60,,,1,0,340,187,1,339,ratio23_4_10_5.png,,,,,,,,,,,,
,,,,,,,,,,,,None,More than half,Most,Few,All,Some,Less than half,Many,Half,0.090740755,0.31203702,1,0,0,QQQ4,,,,,,,,English,5ed148a5177bf6073dddf293,2020-07-02_11h01.47.070,Experiment_English,3.2.4,Win32,60,,,1,0,340,125,1,339,ratio15_1_6_19.png,,,,,,,,,,,,
,,,,,,,,,,,,Most,Some,Half,More than half,None,Few,Less than half,Many,All,-0.399999993,0.0324074,1,0,0,QQQ8,,,,,,,,English,5ed148a5177bf6073dddf293,2020-07-02_11h01.47.070,Experiment_English,3.2.4,Win32,60,,,1,0,340,209,1,339,ratio31_9_12_6.png,,,,,,,,,,,,
,,,,,,,,,,,,More than half,All,Half,Few,Less than half,Some,Many,None,Most,0.006481551,0.305555553,1,0,0,QQQ4,,,,,,,,English,5ed148a5177bf6073dddf293,2020-07-02_11h01.47.070,Experiment_English,3.2.4,Win32,60,,,1,0,340,181,1,339,ratio23_2_5_6.png,,,,,,,,,,,,
,,,,,,,,,,,,Many,Some,Few,All,Half,More than half,Less than half,None,Most,-0.406481474,-0.012962971,1,0,0,QQQ8,,,,,,,,English,5ed148a5177bf6073dddf293,2020-07-02_11h01.47.070,Experiment_English,3.2.4,Win32,60,,,1,0,340,62,1,339,ratio0Y_0_5_4.png,,,,,,,,,,,,
,,,,,,,,,,,,Many,All,Less than half,More than half,Few,Half,Some,None,Most,-0.059259247,0.03703703,1,0,0,QQQ5,,,,,,,,English,5ed148a5177bf6073dddf293,2020-07-02_11h01.47.070,Experiment_English,3.2.4,Win32,60,,,1,0,340,92,1,339,ratio13_4_16_3.png,,,,,,,,,,,,
,,,,,,,,,,,,More than half,Many,Most,Less than half,None,Some,Few,All,Half,0.511111132,0.030555549,1,0,0,QQQ2,,,,,,,,English,5ed148a5177bf6073dddf293,2020-07-02_11h01.47.070,Experiment_English,3.2.4,Win32,60,,,1,0,340,213,1,339,ratio31_12_16_2.png,,,,,,,,,,,,
,,,,,,,,,,,,Many,Few,More than half,All,Some,Half,Less than half,Most,None,-0.480555521,-0.062962971,1,0,0,QQQ8,,,,,,,,English,5ed148a5177bf6073dddf293,2020-07-02_11h01.47.070,Experiment_English,3.2.4,Win32,60,,,1,0,340,265,1,339,ratio41_8_10_1.png,,,,,,,,,,,,
,,,,,,,,,,,,None,More than half,Half,Many,Less than half,Few,Most,All,Some,-0.435185178,0.226851848,1,0,0,QQQ7,,,,,,,,English,5ed148a5177bf6073dddf293,2020-07-02_11h01.47.070,Experiment_English,3.2.4,Win32,60,,,1,0,340,329,1,339,ratio91_9_10_20.png,,,,,,,,,,,,
,,,,,,,,,,,,Few,All,Half,Many,Some,None,Most,Less than half,More than half,0.009259273,0.271296293,1,0,0,QQQ4,,,,,,,,English,5ed148a5177bf6073dddf293,2020-07-02_11h01.47.070,Experiment_English,3.2.4,Win32,60,,,1,0,340,222,1,339,ratio32_3_5_4.png,,,,,,,,,,,,
,,,,,,,,,,,,Most,Less than half,None,More than half,All,Half,Many,Few,Some,-0.389814807,0.259259256,1,0,0,QQQ7,,,,,,,,English,5ed148a5177bf6073dddf293,2020-07-02_11h01.47.070,Experiment_English,3.2.4,Win32,60,,,1,0,340,299,1,339,ratio43_8_14_17.png,,,,,,,,,,,,
,,,,,,,,,,,,All,Most,More than half,Less than half,Half,None,Some,Few,Many,-0.566666662,-0.034259267,1,0,0,QQQ8,,,,,,,,English,5ed148a5177bf6073dddf293,2020-07-02_11h01.47.070,Experiment_English,3.2.4,Win32,60,,,1,0,340,155,1,339,ratio19_2_20_13.png,,,,,,,,,,,,
,,,,,,,,,,,,Few,Some,Less than half,Most,More than half,All,Many,Half,None,-0.065740728,0.025925919,1,0,0,QQQ5,,,,,,,,English,5ed148a5177bf6073dddf293,2020-07-02_11h01.47.070,Experiment_English,3.2.4,Win32,60,,,1,0,340,236,1,339,ratio32_12_20_2.png,,,,,,,,,,,,
,,,,,,,,,,,,None,Some,Most,Many,All,Half,More than half,Few,Less than half,-0.386111104,-0.007407415,1,0,0,QQQ8,,,,,,,,English,5ed148a5177bf6073dddf293,2020-07-02_11h01.47.070,Experiment_English,3.2.4,Win32,60,,,1,0,340,0,1,339,ratio12_1_3_3.png,,,,,,,,,,,,
,,,,,,,,,,,,Some,All,Many,Few,None,Less than half,Half,More than half,Most,-0.009259246,-0.26851853,1,0,0,QQQ6,,,,,,,,English,5ed148a5177bf6073dddf293,2020-07-02_11h01.47.070,Experiment_English,3.2.4,Win32,60,,,1,0,340,246,1,339,ratio34_3_7_11.png,,,,,,,,,,,,
,,,,,,,,,,,,Most,Less than half,Half,Many,None,Some,Few,More than half,All,-0.402777771,0.212962959,1,0,0,QQQ7,,,,,,,,English,5ed148a5177bf6073dddf293,2020-07-02_11h01.47.070,Experiment_English,3.2.4,Win32,60,,,1,0,340,104,1,339,ratio14_1_5_10.png,,,,,,,,,,,,
,,,,,,,,,,,,Few,More than half,None,Some,All,Half,Most,Less than half,Many,0.001851922,0.300925923,1,0,0,QQQ4,,,,,,,,English,5ed148a5177bf6073dddf293,2020-07-02_11h01.47.070,Experiment_English,3.2.4,Win32,60,,,1,0,340,134,1,339,ratio15_3_18_5.png,,,,,,,,,,,,
,,,,,,,,,,,,Half,Many,More than half,Less than half,All,Few,Some,Most,None,0.052777848,0.305555553,1,0,0,QQQ4,,,,,,,,English,5ed148a5177bf6073dddf293,2020-07-02_11h01.47.070,Experiment_English,3.2.4,Win32,60,,,1,0,340,9,1,339,ratio12_3_9_5.png,,,,,,,,,,,,
,,,,,,,,,,,,More than half,Many,Half,Less than half,Most,Few,None,All,Some,-0.023148135,0.052777771,1,0,0,QQQ5,,,,,,,,English,5ed148a5177bf6073dddf293,2020-07-02_11h01.47.070,Experiment_English,3.2.4,Win32,60,,,1,0,340,301,1,339,ratio51_5_6_4.png,,,,,,,,,,,,
,,,,,,,,,,,,Half,More than half,None,Some,Most,Less than half,Many,All,Few,0.03425933,0.251851848,1,0,0,QQQ4,,,,,,,,English,5ed148a5177bf6073dddf293,2020-07-02_11h01.47.070,Experiment_English,3.2.4,Win32,60,,,1,0,340,93,1,339,ratio13_4_16_7.png,,,,,,,,,,,,
,,,,,,,,,,,,Most,Less than half,Few,All,More than half,Some,Half,None,Many,-0.004629616,0.037962956,1,0,0,QQQ5,,,,,,,,English,5ed148a5177bf6073dddf293,2020-07-02_11h01.47.070,Experiment_English,3.2.4,Win32,60,,,1,0,340,233,1,339,ratio32_9_15_9.png,,,,,,,,,,,,
,,,,,,,,,,,,More than half,Many,All,Less than half,Few,Half,None,Most,Some,0.460185205,0.303703701,1,0,0,QQQ1,,,,,,,,English,5ed148a5177bf6073dddf293,2020-07-02_11h01.47.070,Experiment_English,3.2.4,Win32,60,,,1,0,340,255,1,339,ratio34_6_14_10.png,,,,,,,,,,,,
,,,,,,,,,,,,More than half,Few,Most,Some,Many,Half,Less than half,All,None,0.460185205,0.303703701,1,0,0,QQQ1,,,,,,,,English,5ed148a5177bf6073dddf293,2020-07-02_11h01.47.070,Experiment_English,3.2.4,Win32,60,,,1,0,340,281,1,339,ratio43_4_7_4.png,,,,,,,,,,,,
,,,,,,,,,,,,Less than half,Few,Most,More than half,All,Half,Some,Many,None,-0.490740735,0.28796296,1,0,0,QQQ7,,,,,,,,English,5ed148a5177bf6073dddf293,2020-07-02_11h01.47.070,Experiment_English,3.2.4,Win32,60,,,1,0,340,136,1,339,ratio15_3_18_8.png,0.300000131,-0.4046297,1,0,0,continue_button_pause,1,0,1,0,1,0
,,,,,,,,,,,,,,,,,,,,,,,,,,,,,,,,,,English,5ed148a5177bf6073dddf293,2020-07-02_11h01.47.070,Experiment_English,3.2.4,Win32,60,,,1,0,340,136,1,339,ratio15_3_18_8.png,,,,,,,,,,,,
,,,,,,,,,,,,Less than half,None,Some,Few,Most,Many,More than half,Half,All,0.002777791,0.2537037,1,0,0,QQQ4,,,,,,,,English,5ed148a5177bf6073dddf293,2020-07-02_11h01.47.070,Experiment_English,3.2.4,Win32,60,,,1,0,340,108,1,339,ratio14_2_10_6.png,,,,,,,,,,,,
,,,,,,,,,,,,Less than half,None,Few,All,More than half,Some,Half,Most,Many,0.476851872,-0.292592604,1,0,0,QQQ3,,,,,,,,English,5ed148a5177bf6073dddf293,2020-07-02_11h01.47.070,Experiment_English,3.2.4,Win32,60,,,1,0,340,139,1,339,ratio15_3_18_20.png,,,,,,,,,,,,
,,,,,,,,,,,,Some,Few,Most,More than half,Less than half,All,None,Half,Many,0.419444464,-0.000925933,1,0,0,QQQ2,,,,,,,,English,5ed148a5177bf6073dddf293,2020-07-02_11h01.47.070,Experiment_English,3.2.4,Win32,60,,,1,0,340,145,1,339,ratio19_1_10_15.png,,,,,,,,,,,,
,,,,,,,,,,,,Half,Most,None,All,Some,More than half,Few,Less than half,Many,-0.358333325,0.262962959,1,0,0,QQQ7,,,,,,,,English,5ed148a5177bf6073dddf293,2020-07-02_11h01.47.070,Experiment_English,3.2.4,Win32,60,,,1,0,340,153,1,339,ratio19_2_20_8.png,,,,,,,,,,,,
,,,,,,,,,,,,Few,None,Less than half,All,Half,More than half,Most,Many,Some,0.411111244,0.324074071,1,0,0,QQQ1,,,,,,,,English,5ed148a5177bf6073dddf293,2020-07-02_11h01.47.070,Experiment_English,3.2.4,Win32,60,,,1,0,340,120,1,339,ratio15_1_6_1.png,,,,,,,,,,,,
,,,,,,,,,,,,None,Some,Many,Half,More than half,Most,Less than half,Few,All,-0.435185178,-7.4558E-09,1,0,0,QQQ8,,,,,,,,English,5ed148a5177bf6073dddf293,2020-07-02_11h01.47.070,Experiment_English,3.2.4,Win32,60,,,1,0,340,126,1,339,ratio15_2_12_1.png,,,,,,,,,,,,
,,,,,,,,,,,,Few,Less than half,Many,Half,None,All,Some,More than half,Most,-0.550925921,-0.306481493,1,0,0,QQQ9,,,,,,,,English,5ed148a5177bf6073dddf293,2020-07-02_11h01.47.070,Experiment_English,3.2.4,Win32,60,,,1,0,340,269,1,339,ratio41_8_10_6.png,,,,,,,,,,,,
,,,,,,,,,,,,Half,Few,None,Some,More than half,Many,Most,Less than half,All,0.491666687,-0.380555569,1,0,0,QQQ3,,,,,,,,English,5ed148a5177bf6073dddf293,2020-07-02_11h01.47.070,Experiment_English,3.2.4,Win32,60,,,1,0,340,68,1,339,ratio0Y_0_11_3.png,,,,,,,,,,,,
,,,,,,,,,,,,More than half,All,Some,None,Many,Half,Most,Few,Less than half,0.439814835,0.268518515,1,0,0,QQQ1,,,,,,,,English,5ed148a5177bf6073dddf293,2020-07-02_11h01.47.070,Experiment_English,3.2.4,Win32,60,,,1,0,340,27,1,339,ratio11_5_10_7.png,,,,,,,,,,,,
,,,,,,,,,,,,Some,Half,Less than half,Few,All,More than half,Many,None,Most,-0.371296289,-0.277777789,1,0,0,QQQ9,,,,,,,,English,5ed148a5177bf6073dddf293,2020-07-02_11h01.47.070,Experiment_English,3.2.4,Win32,60,,,1,0,340,323,1,339,ratio91_9_10_5.png,,,,,,,,,,,,
,,,,,,,,,,,,None,Some,Less than half,All,More than half,Half,Many,Few,Most,-0.371296289,-0.277777789,1,0,0,QQQ9,,,,,,,,English,5ed148a5177bf6073dddf293,2020-07-02_11h01.47.070,Experiment_English,3.2.4,Win32,60,,,1,0,340,326,1,339,ratio91_9_10_10.png,,,,,,,,,,,,
,,,,,,,,,,,,Many,All,Less than half,More than half,Few,None,Some,Most,Half,-0.144444433,-0.293518587,1,0,0,QQQ6,,,,,,,,English,5ed148a5177bf6073dddf293,2020-07-02_11h01.47.070,Experiment_English,3.2.4,Win32,60,,,1,0,340,76,1,339,ratio0Y_0_17_10.png,,,,,,,,,,,,
,,,,,,,,,,,,Half,Less than half,All,Some,Many,Most,Few,More than half,None,-0.006481468,0.233333329,1,0,0,QQQ4,,,,,,,,English,5ed148a5177bf6073dddf293,2020-07-02_11h01.47.070,Experiment_English,3.2.4,Win32,60,,,1,0,340,97,1,339,ratio13_5_20_2.png,,,,,,,,,,,,
,,,,,,,,,,,,Some,More than half,Less than half,None,Most,Many,All,Half,Few,0.414814834,-0.285185197,1,0,0,QQQ3,,,,,,,,English,5ed148a5177bf6073dddf293,2020-07-02_11h01.47.070,Experiment_English,3.2.4,Win32,60,,,1,0,340,183,1,339,ratio23_2_5_9.png,,,,,,,,,,,,
,,,,,,,,,,,,Few,Many,More than half,Less than half,None,Most,All,Some,Half,0.550000134,-0.296296308,1,0,0,QQQ3,,,,,,,,English,5ed148a5177bf6073dddf293,2020-07-02_11h01.47.070,Experiment_English,3.2.4,Win32,60,,,1,0,340,165,1,339,ratio21_4_6_10.png,,,,,,,,,,,,
,,,,,,,,,,,,Most,Some,More than half,All,Few,None,Many,Half,Less than half,-0.349999992,0.016666659,1,0,0,QQQ8,,,,,,,,English,5ed148a5177bf6073dddf293,2020-07-02_11h01.47.070,Experiment_English,3.2.4,Win32,60,,,1,0,340,24,1,339,ratio11_4_8_3.png,,,,,,,,,,,,
,,,,,,,,,,,,Some,More than half,Half,None,Less than half,Few,Many,Most,All,-0.427777771,-0.335185254,1,0,0,QQQ9,,,,,,,,English,5ed148a5177bf6073dddf293,2020-07-02_11h01.47.070,Experiment_English,3.2.4,Win32,60,,,1,0,340,57,1,339,ratioX0_18_18_1.png,,,,,,,,,,,,
,,,,,,,,,,,,Many,Less than half,Some,More than half,Few,None,Most,Half,All,-0.429629595,0.0074074,1,0,0,QQQ8,,,,,,,,English,5ed148a5177bf6073dddf293,2020-07-02_11h01.47.070,Experiment_English,3.2.4,Win32,60,,,1,0,340,224,1,339,ratio32_3_5_10.png,,,,,,,,,,,,
,,,,,,,,,,,,Most,All,Few,Many,None,More than half,Some,Less than half,Half,-0.515740735,0.036111076,1,0,0,QQQ8,,,,,,,,English,5ed148a5177bf6073dddf293,2020-07-02_11h01.47.070,Experiment_English,3.2.4,Win32,60,,,1,0,340,194,1,339,ratio23_6_15_10.png,,,,,,,,,,,,
,,,,,,,,,,,,Some,Most,Many,None,Half,All,More than half,Few,Less than half,-0.492592587,0.31666665,1,0,0,QQQ7,,,,,,,,English,5ed148a5177bf6073dddf293,2020-07-02_11h01.47.070,Experiment_English,3.2.4,Win32,60,,,1,0,340,177,1,339,ratio21_12_18_1.png,,,,,,,,,,,,
,,,,,,,,,,,,Most,Some,All,None,Half,Many,Few,More than half,Less than half,-0.523148143,0.053703697,1,0,0,QQQ8,,,,,,,,English,5ed148a5177bf6073dddf293,2020-07-02_11h01.47.070,Experiment_English,3.2.4,Win32,60,,,1,0,340,179,1,339,ratio21_12_18_8.png,,,,,,,,,,,,
,,,,,,,,,,,,Most,All,Half,Some,None,More than half,Less than half,Many,Few,-0.432407401,-0.032407415,1,0,0,QQQ8,,,,,,,,English,5ed148a5177bf6073dddf293,2020-07-02_11h01.47.070,Experiment_English,3.2.4,Win32,60,,,1,0,340,201,1,339,ratio31_3_4_7.png,,,,,,,,,,,,
,,,,,,,,,,,,Less than half,More than half,Most,Many,Few,Some,All,None,Half,-0.034259247,0.017592585,1,0,0,QQQ5,,,,,,,,English,5ed148a5177bf6073dddf293,2020-07-02_11h01.47.070,Experiment_English,3.2.4,Win32,60,,,1,0,340,103,1,339,ratio14_1_5_9.png,,,,,,,,,,,,
,,,,,,,,,,,,None,Most,More than half,Less than half,Half,Many,All,Few,Some,0.033333347,-0.349074143,1,0,0,QQQ6,,,,,,,,English,5ed148a5177bf6073dddf293,2020-07-02_11h01.47.070,Experiment_English,3.2.4,Win32,60,,,1,0,340,313,1,339,ratio51_15_18_2.png,,,,,,,,,,,,
,,,,,,,,,,,,Some,Few,None,Most,Half,Less than half,More than half,All,Many,-0.44629629,0.310185182,1,0,0,QQQ7,,,,,,,,English,5ed148a5177bf6073dddf293,2020-07-02_11h01.47.070,Experiment_English,3.2.4,Win32,60,,,1,0,340,230,1,339,ratio32_9_15_1.png,,,,,,,,,,,,
,,,,,,,,,,,,Less than half,Few,Some,All,Most,Half,More than half,Many,None,-0.044444375,-0.021296304,1,0,0,QQQ5,,,,,,,,English,5ed148a5177bf6073dddf293,2020-07-02_11h01.47.070,Experiment_English,3.2.4,Win32,60,,,1,0,340,322,1,339,ratio91_9_10_3.png,,,,,,,,,,,,
,,,,,,,,,,,,Less than half,All,None,Most,Half,Few,Many,More than half,Some,-0.038888876,-0.284259327,1,0,0,QQQ6,,,,,,,,English,5ed148a5177bf6073dddf293,2020-07-02_11h01.47.070,Experiment_English,3.2.4,Win32,60,,,1,0,340,148,1,339,ratio19_1_10_19.png,,,,,,,,,,,,
,,,,,,,,,,,,None,Some,More than half,Most,Many,All,Less than half,Few,Half,0.035185199,-0.349074143,1,0,0,QQQ6,,,,,,,,English,5ed148a5177bf6073dddf293,2020-07-02_11h01.47.070,Experiment_English,3.2.4,Win32,60,,,1,0,340,47,1,339,ratioX0_9_9_4.png,,,,,,,,,,,,
,,,,,,,,,,,,All,None,Many,More than half,Half,Some,Most,Less than half,Few,-0.473148142,-0.35740742,1,0,0,QQQ9,,,,,,,,English,5ed148a5177bf6073dddf293,2020-07-02_11h01.47.070,Experiment_English,3.2.4,Win32,60,,,1,0,340,83,1,339,ratio13_1_4_10.png,,,,,,,,,,,,
,,,,,,,,,,,,Few,Less than half,None,Half,Most,Some,Many,More than half,All,-0.484259253,0.274999983,1,0,0,QQQ7,,,,,,,,English,5ed148a5177bf6073dddf293,2020-07-02_11h01.47.070,Experiment_English,3.2.4,Win32,60,,,1,0,340,178,1,339,ratio21_12_18_2.png,,,,,,,,,,,,
,,,,,,,,,,,,None,Half,Most,Some,Less than half,Few,All,Many,More than half,0.472222243,0.299074071,1,0,0,QQQ1,,,,,,,,English,5ed148a5177bf6073dddf293,2020-07-02_11h01.47.070,Experiment_English,3.2.4,Win32,60,,,1,0,340,66,1,339,ratio0Y_0_9_8.png,,,,,,,,,,,,
,,,,,,,,,,,,Half,None,More than half,Less than half,Some,Few,Many,All,Most,-0.04259258,0.265740723,1,0,0,QQQ4,,,,,,,,English,5ed148a5177bf6073dddf293,2020-07-02_11h01.47.070,Experiment_English,3.2.4,Win32,60,,,1,0,340,248,1,339,ratio34_3_7_19.png,,,,,,,,,,,,
,,,,,,,,,,,,Half,Some,Less than half,Most,Many,All,Few,More than half,None,-0.428703697,0.337037035,1,0,0,QQQ7,,,,,,,,English,5ed148a5177bf6073dddf293,2020-07-02_11h01.47.070,Experiment_English,3.2.4,Win32,60,,,1,0,340,310,1,339,ratio51_10_12_12.png,,,,,,,,,,,,
,,,,,,,,,,,,All,Half,Most,Less than half,None,More than half,Some,Few,Many,0.370370389,-0.257407419,1,0,0,QQQ3,,,,,,,,English,5ed148a5177bf6073dddf293,2020-07-02_11h01.47.070,Experiment_English,3.2.4,Win32,60,,,1,0,340,261,1,339,ratio41_4_5_3.png,0.343518537,-0.438888903,1,0,0,continue_button_pause,1,0,1,0,1,0
,,,,,,,,,,,,,,,,,,,,,,,,,,,,,,,,,,English,5ed148a5177bf6073dddf293,2020-07-02_11h01.47.070,Experiment_English,3.2.4,Win32,60,,,1,0,340,261,1,339,ratio41_4_5_3.png,,,,,,,,,,,,
,,,,,,,,,,,,Half,None,Many,More than half,Most,All,Few,Some,Less than half,-0.439814808,0.309259256,1,0,0,QQQ7,,,,,,,,English,5ed148a5177bf6073dddf293,2020-07-02_11h01.47.070,Experiment_English,3.2.4,Win32,60,,,1,0,340,3,1,339,ratio12_2_6_3.png,,,,,,,,,,,,
,,,,,,,,,,,,Most,Half,Less than half,Few,More than half,Some,Many,All,None,-0.077777766,0.295370367,1,0,0,QQQ4,,,,,,,,English,5ed148a5177bf6073dddf293,2020-07-02_11h01.47.070,Experiment_English,3.2.4,Win32,60,,,1,0,340,149,1,339,ratio19_1_10_20.png,,,,,,,,,,,,
,,,,,,,,,,,,Many,Few,Less than half,More than half,None,All,Some,Most,Half,-0.462962957,0.2787037,1,0,0,QQQ7,,,,,,,,English,5ed148a5177bf6073dddf293,2020-07-02_11h01.47.070,Experiment_English,3.2.4,Win32,60,,,1,0,340,90,1,339,ratio13_3_12_7.png,,,,,,,,,,,,
,,,,,,,,,,,,Less than half,More than half,None,Some,Half,Few,All,Many,Most,-0.021296227,0.331481479,1,0,0,QQQ4,,,,,,,,English,5ed148a5177bf6073dddf293,2020-07-02_11h01.47.070,Experiment_English,3.2.4,Win32,60,,,1,0,340,91,1,339,ratio13_3_12_10.png,,,,,,,,,,,,
,,,,,,,,,,,,None,Many,All,Some,Half,Less than half,Few,More than half,Most,-0.437962956,-0.009259267,1,0,0,QQQ8,,,,,,,,English,5ed148a5177bf6073dddf293,2020-07-02_11h01.47.070,Experiment_English,3.2.4,Win32,60,,,1,0,340,283,1,339,ratio43_4_7_8.png,,,,,,,,,,,,
,,,,,,,,,,,,Many,Half,Less than half,Most,More than half,Few,Some,None,All,0.485185319,0.337962961,1,0,0,QQQ1,,,,,,,,English,5ed148a5177bf6073dddf293,2020-07-02_11h01.47.070,Experiment_English,3.2.4,Win32,60,,,1,0,340,170,1,339,ratio21_6_9_8.png,,,,,,,,,,,,
,,,,,,,,,,,,Most,Less than half,All,Many,Some,Half,None,Few,More than half,-0.607407403,-0.310185197,1,0,0,QQQ9,,,,,,,,English,5ed148a5177bf6073dddf293,2020-07-02_11h01.47.070,Experiment_English,3.2.4,Win32,60,,,1,0,340,292,1,339,ratio43_8_14_6.png,,,,,,,,,,,,
,,,,,,,,,,,,None,Less than half,Many,Half,Most,Few,All,More than half,Some,-0.078703692,-0.292592604,1,0,0,QQQ6,,,,,,,,English,5ed148a5177bf6073dddf293,2020-07-02_11h01.47.070,Experiment_English,3.2.4,Win32,60,,,1,0,340,80,1,339,ratio13_1_4_3.png,,,,,,,,,,,,
,,,,,,,,,,,,Half,All,None,Few,Less than half,Many,More than half,Some,Most,-0.013888876,-0.264814826,1,0,0,QQQ6,,,,,,,,English,5ed148a5177bf6073dddf293,2020-07-02_11h01.47.070,Experiment_English,3.2.4,Win32,60,,,1,0,340,218,1,339,ratio31_15_20_7.png,,,,,,,,,,,,
,,,,,,,,,,,,Many,More than half,Some,Most,None,All,Half,Less than half,Few,0.413888908,0.215740737,1,0,0,QQQ1,,,,,,,,English,5ed148a5177bf6073dddf293,2020-07-02_11h01.47.070,Experiment_English,3.2.4,Win32,60,,,1,0,340,279,1,339,ratio41_16_20_10.png,,,,,,,,,,,,
,,,,,,,,,,,,Most,Many,Some,Less than half,More than half,Half,None,All,Few,0.542592614,0.38148148,1,0,0,QQQ1,,,,,,,,English,5ed148a5177bf6073dddf293,2020-07-02_11h01.47.070,Experiment_English,3.2.4,Win32,60,,,1,0,340,325,1,339,ratio91_9_10_8.png,,,,,,,,,,,,
,,,,,,,,,,,,None,Few,Most,Less than half,More than half,All,Some,Many,Half,0.477777798,-0.376851921,1,0,0,QQQ3,,,,,,,,English,5ed148a5177bf6073dddf293,2020-07-02_11h01.47.070,Experiment_English,3.2.4,Win32,60,,,1,0,340,200,1,339,ratio31_3_4_4.png,,,,,,,,,,,,
,,,,,,,,,,,,Most,All,More than half,Some,Few,None,Less than half,Half,Many,-0.489814781,-0.037962971,1,0,0,QQQ8,,,,,,,,English,5ed148a5177bf6073dddf293,2020-07-02_11h01.47.070,Experiment_English,3.2.4,Win32,60,,,1,0,340,197,1,339,ratio23_8_20_6.png,,,,,,,,,,,,
,,,,,,,,,,,,Some,More than half,None,Half,Less than half,Most,Few,All,Many,-0.420370335,0.324999997,1,0,0,QQQ7,,,,,,,,English,5ed148a5177bf6073dddf293,2020-07-02_11h01.47.070,Experiment_English,3.2.4,Win32,60,,,1,0,340,82,1,339,ratio13_1_4_7.png,,,,,,,,,,,,
,,,,,,,,,,,,Most,All,None,Many,Some,Half,More than half,Few,Less than half,0.435185205,0.324074071,1,0,0,QQQ1,,,,,,,,English,5ed148a5177bf6073dddf293,2020-07-02_11h01.47.070,Experiment_English,3.2.4,Win32,60,,,1,0,340,303,1,339,ratio51_5_6_6.png,,,,,,,,,,,,
,,,,,,,,,,,,Most,All,More than half,Few,Less than half,None,Half,Some,Many,0.405555575,-0.23796303,1,0,0,QQQ3,,,,,,,,English,5ed148a5177bf6073dddf293,2020-07-02_11h01.47.070,Experiment_English,3.2.4,Win32,60,,,1,0,340,290,1,339,ratio43_8_14_3.png,,,,,,,,,,,,
,,,,,,,,,,,,All,Half,Most,Many,Some,More than half,None,Less than half,Few,0.004629643,-0.319444457,1,0,0,QQQ6,,,,,,,,English,5ed148a5177bf6073dddf293,2020-07-02_11h01.47.070,Experiment_English,3.2.4,Win32,60,,,1,0,340,285,1,339,ratio43_4_7_14.png,,,,,,,,,,,,
,,,,,,,,,,,,Many,All,Most,Half,Few,None,More than half,Less than half,Some,-0.046296284,-0.033333341,1,0,0,QQQ5,,,,,,,,English,5ed148a5177bf6073dddf293,2020-07-02_11h01.47.070,Experiment_English,3.2.4,Win32,60,,,1,0,340,95,1,339,ratio13_4_16_10.png,,,,,,,,,,,,
,,,,,,,,,,,,Few,More than half,Most,All,Less than half,Many,None,Half,Some,-0.046296284,-0.033333341,1,0,0,QQQ5,,,,,,,,English,5ed148a5177bf6073dddf293,2020-07-02_11h01.47.070,Experiment_English,3.2.4,Win32,60,,,1,0,340,250,1,339,ratio34_6_14_1.png,,,,,,,,,,,,
,,,,,,,,,,,,All,Half,None,More than half,Less than half,Many,Some,Few,Most,0.032407421,0.297222219,1,0,0,QQQ4,,,,,,,,English,5ed148a5177bf6073dddf293,2020-07-02_11h01.47.070,Experiment_English,3.2.4,Win32,60,,,1,0,340,284,1,339,ratio43_4_7_11.png,,,,,,,,,,,,
,,,,,,,,,,,,None,Less than half,All,More than half,Half,Some,Few,Many,Most,0.009259273,0.013888882,1,0,0,QQQ5,,,,,,,,English,5ed148a5177bf6073dddf293,2020-07-02_11h01.47.070,Experiment_English,3.2.4,Win32,60,,,1,0,340,28,1,339,ratio11_5_10_9.png,,,,,,,,,,,,
,,,,,,,,,,,,Few,Many,Less than half,All,None,More than half,Most,Some,Half,0.470370391,-0.2388889,1,0,0,QQQ3,,,,,,,,English,5ed148a5177bf6073dddf293,2020-07-02_11h01.47.070,Experiment_English,3.2.4,Win32,60,,,1,0,340,240,1,339,ratio34_3_7_4.png,,,,,,,,,,,,
,,,,,,,,,,,,Less than half,None,Some,All,Most,More than half,Half,Few,Many,0.052777848,0.32222222,1,0,0,QQQ4,,,,,,,,English,5ed148a5177bf6073dddf293,2020-07-02_11h01.47.070,Experiment_English,3.2.4,Win32,60,,,1,0,340,53,1,339,ratioX0_14_14_8.png,,,,,,,,,,,,
,,,,,,,,,,,,Half,All,Some,Most,More than half,None,Less than half,Few,Many,0.544444466,0.328703701,1,0,0,QQQ1,,,,,,,,English,5ed148a5177bf6073dddf293,2020-07-02_11h01.47.070,Experiment_English,3.2.4,Win32,60,,,1,0,340,38,1,339,ratio11_10_20_5.png,,,,,,,,,,,,
,,,,,,,,,,,,All,None,Half,Less than half,Many,More than half,Most,Some,Few,0.038888959,-0.275925937,1,0,0,QQQ6,,,,,,,,English,5ed148a5177bf6073dddf293,2020-07-02_11h01.47.070,Experiment_English,3.2.4,Win32,60,,,1,0,340,235,1,339,ratio32_12_20_1.png,,,,,,,,,,,,
,,,,,,,,,,,,Many,More than half,Half,Less than half,All,Some,Few,Most,None,-0.420370335,0.299074071,1,0,0,QQQ7,,,,,,,,English,5ed148a5177bf6073dddf293,2020-07-02_11h01.47.070,Experiment_English,3.2.4,Win32,60,,,1,0,340,87,1,339,ratio13_2_8_8.png,,,,,,,,,,,,
,,,,,,,,,,,,Many,Most,Half,More than half,None,Few,Some,Less than half,All,-0.04259258,-0.283333345,1,0,0,QQQ6,,,,,,,,English,5ed148a5177bf6073dddf293,2020-07-02_11h01.47.070,Experiment_English,3.2.4,Win32,60,,,1,0,340,86,1,339,ratio13_2_8_6.png,,,,,,,,,,,,
,,,,,,,,,,,,Most,Some,Few,Half,Many,Less than half,None,All,More than half,-0.430555549,0.289814812,1,0,0,QQQ7,,,,,,,,English,5ed148a5177bf6073dddf293,2020-07-02_11h01.47.070,Experiment_English,3.2.4,Win32,60,,,1,0,340,72,1,339,ratio0Y_0_13_4.png,,,,,,,,,,,,
,,,,,,,,,,,,Half,Most,None,All,Many,Some,Few,More than half,Less than half,-0.469444438,0.285185182,1,0,0,QQQ7,,,,,,,,English,5ed148a5177bf6073dddf293,2020-07-02_11h01.47.070,Experiment_English,3.2.4,Win32,60,,,1,0,340,85,1,339,ratio13_2_8_5.png,,,,,,,,,,,,
,,,,,,,,,,,,Less than half,Half,Most,Many,More than half,Few,None,Some,All,0.349074093,-0.255555567,1,0,0,QQQ3,,,,,,,,English,5ed148a5177bf6073dddf293,2020-07-02_11h01.47.070,Experiment_English,3.2.4,Win32,60,,,1,0,340,264,1,339,ratio41_4_5_6.png,,,,,,,,,,,,
,,,,,,,,,,,,Half,Many,None,Less than half,Some,More than half,Most,All,Few,0.512963097,0.015740734,1,0,0,QQQ2,,,,,,,,English,5ed148a5177bf6073dddf293,2020-07-02_11h01.47.070,Experiment_English,3.2.4,Win32,60,,,1,0,340,314,1,339,ratio51_15_18_4.png,,,,,,,,,,,,
,,,,,,,,,,,,Most,Few,Some,Many,Half,Less than half,More than half,None,All,-0.562962958,-0.001851859,1,0,0,QQQ8,,,,,,,,English,5ed148a5177bf6073dddf293,2020-07-02_11h01.47.070,Experiment_English,3.2.4,Win32,60,,,1,0,340,70,1,339,ratio0Y_0_12_5.png,,,,,,,,,,,,
,,,,,,,,,,,,All,Few,Most,More than half,None,Many,Less than half,Half,Some,-0.067592524,-0.305555568,1,0,0,QQQ6,,,,,,,,English,5ed148a5177bf6073dddf293,2020-07-02_11h01.47.070,Experiment_English,3.2.4,Win32,60,,,1,0,340,175,1,339,ratio21_10_15_2.png,,,,,,,,,,,,
,,,,,,,,,,,,More than half,Few,Many,Some,None,All,Less than half,Most,Half,-0.502777772,-0.063888897,1,0,0,QQQ8,,,,,,,,English,5ed148a5177bf6073dddf293,2020-07-02_11h01.47.070,Experiment_English,3.2.4,Win32,60,,,1,0,340,336,1,339,ratio91_18_20_12.png,0.29722224,-0.356481494,1,0,0,continue_button_pause,1,0,1,0,1,0
,,,,,,,,,,,,,,,,,,,,,,,,,,,,,,,,,,English,5ed148a5177bf6073dddf293,2020-07-02_11h01.47.070,Experiment_English,3.2.4,Win32,60,,,1,0,340,336,1,339,ratio91_18_20_12.png,,,,,,,,,,,,
,,,,,,,,,,,,Some,All,Most,Less than half,Half,Few,Many,More than half,None,0.54814817,0.377777776,1,0,0,QQQ1,,,,,,,,English,5ed148a5177bf6073dddf293,2020-07-02_11h01.47.070,Experiment_English,3.2.4,Win32,60,,,1,0,340,117,1,339,ratio14_4_20_6.png,,,,,,,,,,,,
,,,,,,,,,,,,Many,Few,Half,All,Some,None,Most,Less than half,More than half,0.500000021,-0.32314816,1,0,0,QQQ3,,,,,,,,English,5ed148a5177bf6073dddf293,2020-07-02_11h01.47.070,Experiment_English,3.2.4,Win32,60,,,1,0,340,23,1,339,ratio11_3_6_9.png,,,,,,,,,,,,
,,,,,,,,,,,,Most,None,Few,Half,Many,More than half,Less than half,All,Some,0.097222237,-0.312962975,1,0,0,QQQ6,,,,,,,,English,5ed148a5177bf6073dddf293,2020-07-02_11h01.47.070,Experiment_English,3.2.4,Win32,60,,,1,0,340,174,1,339,ratio21_10_15_1.png,,,,,,,,,,,,
,,,,,,,,,,,,All,More than half,None,Half,Few,Some,Many,Less than half,Most,-0.409259252,0.252777774,1,0,0,QQQ7,,,,,,,,English,5ed148a5177bf6073dddf293,2020-07-02_11h01.47.070,Experiment_English,3.2.4,Win32,60,,,1,0,340,205,1,339,ratio31_6_8_2.png,,,,,,,,,,,,
,,,,,,,,,,,,Less than half,None,Few,More than half,Most,Some,Many,All,Half,0.005555569,0.0324074,1,0,0,QQQ5,,,,,,,,English,5ed148a5177bf6073dddf293,2020-07-02_11h01.47.070,Experiment_English,3.2.4,Win32,60,,,1,0,340,202,1,339,ratio31_3_4_8.png,,,,,,,,,,,,
,,,,,,,,,,,,More than half,Few,Less than half,Many,None,Some,Most,Half,All,0.018518532,0.269444441,1,0,0,QQQ4,,,,,,,,English,5ed148a5177bf6073dddf293,2020-07-02_11h01.47.070,Experiment_English,3.2.4,Win32,60,,,1,0,340,217,1,339,ratio31_15_20_5.png,,,,,,,,,,,,
,,,,,,,,,,,,Some,Less than half,Many,None,All,More than half,Half,Few,Most,0.441666686,-0.296296308,1,0,0,QQQ3,,,,,,,,English,5ed148a5177bf6073dddf293,2020-07-02_11h01.47.070,Experiment_English,3.2.4,Win32,60,,,1,0,340,311,1,339,ratio51_10_12_14.png,,,,,,,,,,,,
,,,,,,,,,,,,All,Few,Half,More than half,Some,Many,None,Most,Less than half,0.010185199,0.014814808,1,0,0,QQQ5,,,,,,,,English,5ed148a5177bf6073dddf293,2020-07-02_11h01.47.070,Experiment_English,3.2.4,Win32,60,,,1,0,340,115,1,339,ratio14_4_20_1.png,,,,,,,,,,,,
,,,,,,,,,,,,None,Half,Some,More than half,Most,All,Few,Many,Less than half,-0.094444433,0.295370367,1,0,0,QQQ4,,,,,,,,English,5ed148a5177bf6073dddf293,2020-07-02_11h01.47.070,Experiment_English,3.2.4,Win32,60,,,1,0,340,288,1,339,ratio43_4_7_18.png,,,,,,,,,,,,
,,,,,,,,,,,,Few,Many,More than half,Most,Some,None,Less than half,Half,All,-0.543518513,-0.287962975,1,0,0,QQQ9,,,,,,,,English,5ed148a5177bf6073dddf293,2020-07-02_11h01.47.070,Experiment_English,3.2.4,Win32,60,,,1,0,340,55,1,339,ratioX0_16_16_3.png,,,,,,,,,,,,
,,,,,,,,,,,,Less than half,Few,All,Some,None,Half,Most,More than half,Many,-0.384259252,0.012962956,1,0,0,QQQ8,,,,,,,,English,5ed148a5177bf6073dddf293,2020-07-02_11h01.47.070,Experiment_English,3.2.4,Win32,60,,,1,0,340,275,1,339,ratio41_16_20_2.png,,,,,,,,,,,,
,,,,,,,,,,,,Less than half,Many,Half,More than half,All,Few,Some,Most,None,-0.03796295,-0.301851864,1,0,0,QQQ6,,,,,,,,English,5ed148a5177bf6073dddf293,2020-07-02_11h01.47.070,Experiment_English,3.2.4,Win32,60,,,1,0,340,81,1,339,ratio13_1_4_5.png,,,,,,,,,,,,
,,,,,,,,,,,,More than half,All,Many,Most,Some,None,Half,Few,Less than half,-0.466666632,-0.053703712,1,0,0,QQQ8,,,,,,,,English,5ed148a5177bf6073dddf293,2020-07-02_11h01.47.070,Experiment_English,3.2.4,Win32,60,,,1,0,340,156,1,339,ratio19_2_20_14.png,,,,,,,,,,,,
,,,,,,,,,,,,Less than half,None,All,Some,Many,Half,More than half,Most,Few,0.446296316,-0.281481493,1,0,0,QQQ3,,,,,,,,English,5ed148a5177bf6073dddf293,2020-07-02_11h01.47.070,Experiment_English,3.2.4,Win32,60,,,1,0,340,49,1,339,ratioX0_11_11_2.png,,,,,,,,,,,,
,,,,,,,,,,,,More than half,Most,All,Few,Less than half,Half,None,Some,Many,0.0296297,-0.020370378,1,0,0,QQQ5,,,,,,,,English,5ed148a5177bf6073dddf293,2020-07-02_11h01.47.070,Experiment_English,3.2.4,Win32,60,,,1,0,340,193,1,339,ratio23_6_15_9.png,,,,,,,,,,,,
,,,,,,,,,,,,Less than half,Many,Most,Some,None,All,Half,More than half,Few,0.467592613,0.254629626,1,0,0,QQQ1,,,,,,,,English,5ed148a5177bf6073dddf293,2020-07-02_11h01.47.070,Experiment_English,3.2.4,Win32,60,,,1,0,340,196,1,339,ratio23_8_20_5.png,,,,,,,,,,,,
,,,,,,,,,,,,Half,Less than half,Many,All,More than half,Some,Most,None,Few,0.446296316,0.378703702,1,0,0,QQQ1,,,,,,,,English,5ed148a5177bf6073dddf293,2020-07-02_11h01.47.070,Experiment_English,3.2.4,Win32,60,,,1,0,340,254,1,339,ratio34_6_14_9.png,,,,,,,,,,,,
,,,,,,,,,,,,Many,Half,Most,None,More than half,Less than half,Some,Few,All,-0.087037025,-0.020370378,1,0,0,QQQ5,,,,,,,,English,5ed148a5177bf6073dddf293,2020-07-02_11h01.47.070,Experiment_English,3.2.4,Win32,60,,,1,0,340,166,1,339,ratio21_6_9_1.png,,,,,,,,,,,,
,,,,,,,,,,,,Most,None,All,Many,Few,More than half,Some,Less than half,Half,-0.056481469,-0.025000008,1,0,0,QQQ5,,,,,,,,English,5ed148a5177bf6073dddf293,2020-07-02_11h01.47.070,Experiment_English,3.2.4,Win32,60,,,1,0,340,129,1,339,ratio15_2_12_9.png,,,,,,,,,,,,
,,,,,,,,,,,,Half,More than half,Less than half,All,Most,Some,Few,Many,None,-0.061111099,-0.050925934,1,0,0,QQQ5,,,,,,,,English,5ed148a5177bf6073dddf293,2020-07-02_11h01.47.070,Experiment_English,3.2.4,Win32,60,,,1,0,340,306,1,339,ratio51_5_6_18.png,,,,,,,,,,,,
,,,,,,,,,,,,Many,Few,Half,None,Less than half,Most,Some,All,More than half,-0.061111099,-0.050925934,1,0,0,QQQ5,,,,,,,,English,5ed148a5177bf6073dddf293,2020-07-02_11h01.47.070,Experiment_English,3.2.4,Win32,60,,,1,0,340,96,1,339,ratio13_5_20_1.png,,,,,,,,,,,,
,,,,,,,,,,,,All,More than half,Less than half,Many,Most,Some,Few,Half,None,-0.061111099,-0.050925934,1,0,0,QQQ5,,,,,,,,English,5ed148a5177bf6073dddf293,2020-07-02_11h01.47.070,Experiment_English,3.2.4,Win32,60,,,1,0,340,272,1,339,ratio41_12_15_7.png,,,,,,,,,,,,
,,,,,,,,,,,,Many,Less than half,Most,All,Few,Half,None,More than half,Some,-0.43703703,-0.33240742,1,0,0,QQQ9,,,,,,,,English,5ed148a5177bf6073dddf293,2020-07-02_11h01.47.070,Experiment_English,3.2.4,Win32,60,,,1,0,340,180,1,339,ratio23_2_5_4.png,,,,,,,,,,,,
,,,,,,,,,,,,More than half,Few,Most,None,Half,Less than half,All,Some,Many,0.4666668,0.327777775,1,0,0,QQQ1,,,,,,,,English,5ed148a5177bf6073dddf293,2020-07-02_11h01.47.070,Experiment_English,3.2.4,Win32,60,,,1,0,340,25,1,339,ratio11_4_8_10.png,,,,,,,,,,,,
,,,,,,,,,,,,None,All,More than half,Less than half,Half,Few,Most,Some,Many,-0.018518506,0.336111109,1,0,0,QQQ4,,,,,,,,English,5ed148a5177bf6073dddf293,2020-07-02_11h01.47.070,Experiment_English,3.2.4,Win32,60,,,1,0,340,182,1,339,ratio23_2_5_7.png,,,,,,,,,,,,
,,,,,,,,,,,,Many,Less than half,More than half,Some,Half,None,Few,All,Most,-0.56018518,-0.25185192,1,0,0,QQQ9,,,,,,,,English,5ed148a5177bf6073dddf293,2020-07-02_11h01.47.070,Experiment_English,3.2.4,Win32,60,,,1,0,340,338,1,339,ratio91_18_20_18.png,,,,,,,,,,,,
,,,,,,,,,,,,Many,Most,Few,Half,Less than half,More than half,All,None,Some,0.403703723,0.270370353,1,0,0,QQQ1,,,,,,,,English,5ed148a5177bf6073dddf293,2020-07-02_11h01.47.070,Experiment_English,3.2.4,Win32,60,,,1,0,340,276,1,339,ratio41_16_20_4.png,,,,,,,,,,,,
,,,,,,,,,,,,Most,None,Half,Few,More than half,All,Less than half,Some,Many,0.45740754,0.063888854,1,0,0,QQQ2,,,,,,,,English,5ed148a5177bf6073dddf293,2020-07-02_11h01.47.070,Experiment_English,3.2.4,Win32,60,,,1,0,340,73,1,339,ratio0Y_0_14_7.png,,,,,,,,,,,,
,,,,,,,,,,,,Some,Less than half,None,Most,Many,Few,All,More than half,Half,-0.114814803,-0.312037106,1,0,0,QQQ6,,,,,,,,English,5ed148a5177bf6073dddf293,2020-07-02_11h01.47.070,Experiment_English,3.2.4,Win32,60,,,1,0,340,158,1,339,ratio19_2_20_17.png,,,,,,,,,,,,
,,,,,,,,,,,,Few,More than half,None,Many,Half,All,Less than half,Some,Most,-0.426851845,0.293518501,1,0,0,QQQ7,,,,,,,,English,5ed148a5177bf6073dddf293,2020-07-02_11h01.47.070,Experiment_English,3.2.4,Win32,60,,,1,0,340,13,1,339,ratio12_5_15_3.png,,,,,,,,,,,,
,,,,,,,,,,,,Many,Less than half,More than half,Half,None,All,Few,Some,Most,-0.517592559,0.033333326,1,0,0,QQQ8,,,,,,,,English,5ed148a5177bf6073dddf293,2020-07-02_11h01.47.070,Experiment_English,3.2.4,Win32,60,,,1,0,340,135,1,339,ratio15_3_18_7.png,,,,,,,,,,,,
,,,,,,,,,,,,Half,None,Many,All,Less than half,More than half,Few,Most,Some,0.013888902,-0.004629637,1,0,0,QQQ5,,,,,,,,English,5ed148a5177bf6073dddf293,2020-07-02_11h01.47.070,Experiment_English,3.2.4,Win32,60,,,1,0,340,19,1,339,ratio12_6_18_9.png,,,,,,,,,,,,
,,,,,,,,,,,,Less than half,All,Few,Some,None,Most,More than half,Many,Half,-0.032407395,0.284259242,1,0,0,QQQ4,,,,,,,,English,5ed148a5177bf6073dddf293,2020-07-02_11h01.47.070,Experiment_English,3.2.4,Win32,60,,,1,0,340,118,1,339,ratio14_4_20_8.png,,,,,,,,,,,,
,,,,,,,,,,,,Many,Half,All,None,Some,More than half,Most,Few,Less than half,-0.37314814,0.055555549,1,0,0,QQQ8,,,,,,,,English,5ed148a5177bf6073dddf293,2020-07-02_11h01.47.070,Experiment_English,3.2.4,Win32,60,,,1,0,340,151,1,339,ratio19_2_20_4.png,0.311111129,-0.399074087,1,0,0,continue_button_pause,1,0,1,0,1,0
,,,,,,,,,,,,,,,,,,,,,,,,,,,,,,,,,,English,5ed148a5177bf6073dddf293,2020-07-02_11h01.47.070,Experiment_English,3.2.4,Win32,60,,,1,0,340,151,1,339,ratio19_2_20_4.png,,,,,,,,,,,,
,,,,,,,,,,,,More than half,Most,All,Many,Some,None,Half,Less than half,Few,0.393518538,0.28333333,1,0,0,QQQ1,,,,,,,,English,5ed148a5177bf6073dddf293,2020-07-02_11h01.47.070,Experiment_English,3.2.4,Win32,60,,,1,0,340,226,1,339,ratio32_6_10_5.png,,,,,,,,,,,,
,,,,,,,,,,,,Few,None,More than half,Some,Many,Most,Half,All,Less than half,0.006481551,0.024074067,1,0,0,QQQ5,,,,,,,,English,5ed148a5177bf6073dddf293,2020-07-02_11h01.47.070,Experiment_English,3.2.4,Win32,60,,,1,0,340,267,1,339,ratio41_8_10_4.png,,,,,,,,,,,,
,,,,,,,,,,,,Some,None,Half,Few,Less than half,All,Many,More than half,Most,0.426851871,0.374074072,1,0,0,QQQ1,,,,,,,,English,5ed148a5177bf6073dddf293,2020-07-02_11h01.47.070,Experiment_English,3.2.4,Win32,60,,,1,0,340,10,1,339,ratio12_4_12_4.png,,,,,,,,,,,,
,,,,,,,,,,,,More than half,Half,Many,All,None,Some,Most,Less than half,Few,-0.413888882,0.029629623,1,0,0,QQQ8,,,,,,,,English,5ed148a5177bf6073dddf293,2020-07-02_11h01.47.070,Experiment_English,3.2.4,Win32,60,,,1,0,340,36,1,339,ratio11_9_18_1.png,,,,,,,,,,,,
,,,,,,,,,,,,Many,Half,Most,Less than half,Some,More than half,All,None,Few,0.419444464,0.060185179,1,0,0,QQQ2,,,,,,,,English,5ed148a5177bf6073dddf293,2020-07-02_11h01.47.070,Experiment_English,3.2.4,Win32,60,,,1,0,340,296,1,339,ratio43_8_14_12.png,,,,,,,,,,,,
,,,,,,,,,,,,Less than half,Most,All,None,Few,More than half,Half,Many,Some,-0.44629629,-0.275925937,1,0,0,QQQ9,,,,,,,,English,5ed148a5177bf6073dddf293,2020-07-02_11h01.47.070,Experiment_English,3.2.4,Win32,60,,,1,0,340,4,1,339,ratio12_2_6_5.png,,,,,,,,,,,,
,,,,,,,,,,,,Some,None,Few,Many,Half,Less than half,More than half,All,Most,-0.472222216,0.299074071,1,0,0,QQQ7,,,,,,,,English,5ed148a5177bf6073dddf293,2020-07-02_11h01.47.070,Experiment_English,3.2.4,Win32,60,,,1,0,340,26,1,339,ratio11_5_10_4.png,,,,,,,,,,,,
,,,,,,,,,,,,Many,Few,More than half,Less than half,Most,Half,All,Some,None,0.387963095,0.352777776,1,0,0,QQQ1,,,,,,,,English,5ed148a5177bf6073dddf293,2020-07-02_11h01.47.070,Experiment_English,3.2.4,Win32,60,,,1,0,340,319,1,339,ratio51_15_18_20.png,,,,,,,,,,,,
,,,,,,,,,,,,Some,Half,More than half,Many,Few,Most,Less than half,None,All,-0.094444433,-0.011111119,1,0,0,QQQ5,,,,,,,,English,5ed148a5177bf6073dddf293,2020-07-02_11h01.47.070,Experiment_English,3.2.4,Win32,60,,,1,0,340,127,1,339,ratio15_2_12_2.png,,,,,,,,,,,,
,,,,,,,,,,,,Many,Some,Few,None,Most,More than half,Less than half,All,Half,-0.019444431,0.30833333,1,0,0,QQQ4,,,,,,,,English,5ed148a5177bf6073dddf293,2020-07-02_11h01.47.070,Experiment_English,3.2.4,Win32,60,,,1,0,340,75,1,339,ratio0Y_0_16_10.png,,,,,,,,,,,,
,,,,,,,,,,,,Half,Many,Few,All,Most,None,Less than half,Some,More than half,0.562037059,0.230555552,1,0,0,QQQ1,,,,,,,,English,5ed148a5177bf6073dddf293,2020-07-02_11h01.47.070,Experiment_English,3.2.4,Win32,60,,,1,0,340,31,1,339,ratio11_6_12_9.png,,,,,,,,,,,,
,,,,,,,,,,,,More than half,Most,None,All,Few,Many,Some,Half,Less than half,-0.041666654,-0.292592604,1,0,0,QQQ6,,,,,,,,English,5ed148a5177bf6073dddf293,2020-07-02_11h01.47.070,Experiment_English,3.2.4,Win32,60,,,1,0,340,318,1,339,ratio51_15_18_18.png,,,,,,,,,,,,
,,,,,,,,,,,,Half,More than half,Some,Many,Few,None,Less than half,All,Most,-0.442592586,-0.287037049,1,0,0,QQQ9,,,,,,,,English,5ed148a5177bf6073dddf293,2020-07-02_11h01.47.070,Experiment_English,3.2.4,Win32,60,,,1,0,340,304,1,339,ratio51_5_6_13.png,,,,,,,,,,,,
,,,,,,,,,,,,Less than half,Half,None,Some,All,Many,More than half,Few,Most,0.006481551,0.335185169,1,0,0,QQQ4,,,,,,,,English,5ed148a5177bf6073dddf293,2020-07-02_11h01.47.070,Experiment_English,3.2.4,Win32,60,,,1,0,340,130,1,339,ratio15_2_12_12.png,,,,,,,,,,,,
,,,,,,,,,,,,Many,Few,Half,Less than half,Most,None,More than half,Some,All,-0.059259247,0.005555548,1,0,0,QQQ5,,,,,,,,English,5ed148a5177bf6073dddf293,2020-07-02_11h01.47.070,Experiment_English,3.2.4,Win32,60,,,1,0,340,309,1,339,ratio51_10_12_10.png,,,,,,,,,,,,
,,,,,,,,,,,,Some,None,Most,Less than half,All,More than half,Many,Half,Few,-0.059259247,0.005555548,1,0,0,QQQ5,,,,,,,,English,5ed148a5177bf6073dddf293,2020-07-02_11h01.47.070,Experiment_English,3.2.4,Win32,60,,,1,0,340,50,1,339,ratioX0_12_12_3.png,,,,,,,,,,,,
,,,,,,,,,,,,Half,None,Some,Few,Many,All,More than half,Most,Less than half,0.369444576,0.026851817,1,0,0,QQQ2,,,,,,,,English,5ed148a5177bf6073dddf293,2020-07-02_11h01.47.070,Experiment_English,3.2.4,Win32,60,,,1,0,340,79,1,339,ratio0Y_0_20_4.png,,,,,,,,,,,,
,,,,,,,,,,,,All,Some,More than half,Less than half,Half,Many,Most,None,Few,0.014814828,0.346296294,1,0,0,QQQ4,,,,,,,,English,5ed148a5177bf6073dddf293,2020-07-02_11h01.47.070,Experiment_English,3.2.4,Win32,60,,,1,0,340,198,1,339,ratio23_8_20_7.png,,,,,,,,,,,,
,,,,,,,,,,,,Most,None,Less than half,Some,Half,All,Few,More than half,Many,0.398148167,0.355555553,1,0,0,QQQ1,,,,,,,,English,5ed148a5177bf6073dddf293,2020-07-02_11h01.47.070,Experiment_English,3.2.4,Win32,60,,,1,0,340,305,1,339,ratio51_5_6_14.png,,,,,,,,,,,,
,,,,,,,,,,,,Many,Few,None,More than half,Less than half,Some,Most,All,Half,0.401851984,0.00277777,1,0,0,QQQ2,,,,,,,,English,5ed148a5177bf6073dddf293,2020-07-02_11h01.47.070,Experiment_English,3.2.4,Win32,60,,,1,0,340,100,1,339,ratio14_1_5_3.png,,,,,,,,,,,,
,,,,,,,,,,,,All,Most,Some,More than half,Few,Less than half,Half,None,Many,-0.020370357,-0.011111119,1,0,0,QQQ5,,,,,,,,English,5ed148a5177bf6073dddf293,2020-07-02_11h01.47.070,Experiment_English,3.2.4,Win32,60,,,1,0,340,142,1,339,ratio19_1_10_6.png,,,,,,,,,,,,
,,,,,,,,,,,,Less than half,Some,Many,Few,All,None,More than half,Half,Most,0.040740755,0.220370366,1,0,0,QQQ4,,,,,,,,English,5ed148a5177bf6073dddf293,2020-07-02_11h01.47.070,Experiment_English,3.2.4,Win32,60,,,1,0,340,121,1,339,ratio15_1_6_4.png,,,,,,,,,,,,
,,,,,,,,,,,,Many,Most,More than half,Some,All,Half,None,Less than half,Few,0.427777797,-0.382407421,1,0,0,QQQ3,,,,,,,,English,5ed148a5177bf6073dddf293,2020-07-02_11h01.47.070,Experiment_English,3.2.4,Win32,60,,,1,0,340,286,1,339,ratio43_4_7_15.png,,,,,,,,,,,,
,,,,,,,,,,,,Most,Few,Less than half,Some,Half,More than half,All,Many,None,-0.071296284,-0.33703705,1,0,0,QQQ6,,,,,,,,English,5ed148a5177bf6073dddf293,2020-07-02_11h01.47.070,Experiment_English,3.2.4,Win32,60,,,1,0,340,252,1,339,ratio34_6_14_3.png,,,,,,,,,,,,
,,,,,,,,,,,,None,All,Some,Most,Many,Few,Half,More than half,Less than half,-0.395370363,0.21944444,1,0,0,QQQ7,,,,,,,,English,5ed148a5177bf6073dddf293,2020-07-02_11h01.47.070,Experiment_English,3.2.4,Win32,60,,,1,0,340,20,1,339,ratio11_2_4_3.png,,,,,,,,,,,,
,,,,,,,,,,,,Some,Few,None,All,Less than half,Half,Most,More than half,Many,-0.086111043,-0.002777785,1,0,0,QQQ5,,,,,,,,English,5ed148a5177bf6073dddf293,2020-07-02_11h01.47.070,Experiment_English,3.2.4,Win32,60,,,1,0,340,189,1,339,ratio23_4_10_8.png,,,,,,,,,,,,
,,,,,,,,,,,,Many,Most,Some,None,Less than half,Half,Few,All,More than half,-0.086111043,-0.002777785,1,0,0,QQQ5,,,,,,,,English,5ed148a5177bf6073dddf293,2020-07-02_11h01.47.070,Experiment_English,3.2.4,Win32,60,,,1,0,340,245,1,339,ratio34_3_7_10.png,,,,,,,,,,,,
,,,,,,,,,,,,All,None,Less than half,Few,More than half,Some,Most,Many,Half,0.423148168,-0.384259272,1,0,0,QQQ3,,,,,,,,English,5ed148a5177bf6073dddf293,2020-07-02_11h01.47.070,Experiment_English,3.2.4,Win32,60,,,1,0,340,229,1,339,ratio32_6_10_9.png,,,,,,,,,,,,
,,,,,,,,,,,,All,Few,None,Most,Some,Less than half,Half,Many,More than half,-0.517592559,0.260185182,1,0,0,QQQ7,,,,,,,,English,5ed148a5177bf6073dddf293,2020-07-02_11h01.47.070,Experiment_English,3.2.4,Win32,60,,,1,0,340,239,1,339,ratio32_12_20_10.png,,,,,,,,,,,,
,,,,,,,,,,,,Less than half,Some,More than half,None,Few,Half,Many,Most,All,0.407407427,0.019444437,1,0,0,QQQ2,,,,,,,,English,5ed148a5177bf6073dddf293,2020-07-02_11h01.47.070,Experiment_English,3.2.4,Win32,60,,,1,0,340,14,1,339,ratio12_5_15_4.png,,,,,,,,,,,,
,,,,,,,,,,,,Many,Half,Some,Less than half,All,Few,Most,None,More than half,-0.016666597,0.244444441,1,0,0,QQQ4,,,,,,,,English,5ed148a5177bf6073dddf293,2020-07-02_11h01.47.070,Experiment_English,3.2.4,Win32,60,,,1,0,340,249,1,339,ratio34_3_7_20.png,,,,,,,,,,,,
,,,,,,,,,,,,All,Most,More than half,None,Less than half,Some,Many,Half,Few,0.403703723,-0.277777789,1,0,0,QQQ3,,,,,,,,English,5ed148a5177bf6073dddf293,2020-07-02_11h01.47.070,Experiment_English,3.2.4,Win32,60,,,1,0,340,223,1,339,ratio32_3_5_5.png,,,,,,,,,,,,
,,,,,,,,,,,,Few,Half,More than half,Many,Most,All,Some,Less than half,None,0.503703837,0.2287037,1,0,0,QQQ1,,,,,,,,English,5ed148a5177bf6073dddf293,2020-07-02_11h01.47.070,Experiment_English,3.2.4,Win32,60,,,1,0,340,105,1,339,ratio14_2_10_1.png,,,,,,,,,,,,
,,,,,,,,,,,,All,Many,Few,Less than half,Half,Most,Some,More than half,None,0.068518533,0.31666665,1,0,0,QQQ4,,,,,,,,English,5ed148a5177bf6073dddf293,2020-07-02_11h01.47.070,Experiment_English,3.2.4,Win32,60,,,1,0,340,259,1,339,ratio34_6_14_19.png,0.38611113,-0.369444457,1,0,0,continue_button_pause,1,0,1,0,1,0
,,,,,,,,,,,,,,,,,,,,,,,,,,,,,,,,,,English,5ed148a5177bf6073dddf293,2020-07-02_11h01.47.070,Experiment_English,3.2.4,Win32,60,,,1,0,340,259,1,339,ratio34_6_14_19.png,,,,,,,,,,,,
,,,,,,,,,,,,Few,Less than half,All,None,Most,More than half,Half,Some,Many,0.487037058,-0.256481549,1,0,0,QQQ3,,,,,,,,English,5ed148a5177bf6073dddf293,2020-07-02_11h01.47.070,Experiment_English,3.2.4,Win32,60,,,1,0,340,46,1,339,ratioX0_9_9_3.png,,,,,,,,,,,,
,,,,,,,,,,,,Few,Many,None,More than half,Most,Half,Less than half,Some,All,0.487037058,-0.256481549,1,0,0,QQQ3,,,,,,,,English,5ed148a5177bf6073dddf293,2020-07-02_11h01.47.070,Experiment_English,3.2.4,Win32,60,,,1,0,340,71,1,339,ratio0Y_0_12_10.png,,,,,,,,,,,,
,,,,,,,,,,,,None,Few,Most,Many,More than half,Less than half,Some,All,Half,0.47129643,0.031481446,1,0,0,QQQ2,,,,,,,,English,5ed148a5177bf6073dddf293,2020-07-02_11h01.47.070,Experiment_English,3.2.4,Win32,60,,,1,0,340,123,1,339,ratio15_1_6_12.png,,,,,,,,,,,,
,,,,,,,,,,,,More than half,Some,Most,Few,Many,All,None,Half,Less than half,0.432407427,0.297222219,1,0,0,QQQ1,,,,,,,,English,5ed148a5177bf6073dddf293,2020-07-02_11h01.47.070,Experiment_English,3.2.4,Win32,60,,,1,0,340,287,1,339,ratio43_4_7_17.png,,,,,,,,,,,,
,,,,,,,,,,,,All,Some,Half,Many,Most,Few,More than half,None,Less than half,0.011111181,-0.267592604,1,0,0,QQQ6,,,,,,,,English,5ed148a5177bf6073dddf293,2020-07-02_11h01.47.070,Experiment_English,3.2.4,Win32,60,,,1,0,340,143,1,339,ratio19_1_10_9.png,,,,,,,,,,,,
,,,,,,,,,,,,More than half,All,Most,Half,Few,Many,Some,Less than half,None,-0.411111104,0.023148141,1,0,0,QQQ8,,,,,,,,English,5ed148a5177bf6073dddf293,2020-07-02_11h01.47.070,Experiment_English,3.2.4,Win32,60,,,1,0,340,8,1,339,ratio12_3_9_4.png,,,,,,,,,,,,
,,,,,,,,,,,,Few,Most,Some,All,Less than half,Half,More than half,None,Many,-0.405555548,0.015740734,1,0,0,QQQ8,,,,,,,,English,5ed148a5177bf6073dddf293,2020-07-02_11h01.47.070,Experiment_English,3.2.4,Win32,60,,,1,0,340,67,1,339,ratio0Y_0_10_10.png,,,,,,,,,,,,
,,,,,,,,,,,,Many,Half,Some,Less than half,None,Most,All,More than half,Few,0.435185205,0.30740739,1,0,0,QQQ1,,,,,,,,English,5ed148a5177bf6073dddf293,2020-07-02_11h01.47.070,Experiment_English,3.2.4,Win32,60,,,1,0,340,307,1,339,ratio51_10_12_1.png,,,,,,,,,,,,
,,,,,,,,,,,,Most,Few,Less than half,Many,Half,More than half,Some,None,All,0.009259273,-0.032407415,1,0,0,QQQ5,,,,,,,,English,5ed148a5177bf6073dddf293,2020-07-02_11h01.47.070,Experiment_English,3.2.4,Win32,60,,,1,0,340,282,1,339,ratio43_4_7_7.png,,,,,,,,,,,,
,,,,,,,,,,,,None,Most,Half,More than half,Many,Less than half,Few,Some,All,0.03425933,0.273148145,1,0,0,QQQ4,,,,,,,,English,5ed148a5177bf6073dddf293,2020-07-02_11h01.47.070,Experiment_English,3.2.4,Win32,60,,,1,0,340,289,1,339,ratio43_4_7_20.png,,,,,,,,,,,,
,,,,,,,,,,,,Some,Most,All,Half,Many,More than half,Few,Less than half,None,0.396296315,0.073148114,1,0,0,QQQ2,,,,,,,,English,5ed148a5177bf6073dddf293,2020-07-02_11h01.47.070,Experiment_English,3.2.4,Win32,60,,,1,0,340,262,1,339,ratio41_4_5_4.png,,,,,,,,,,,,
,,,,,,,,,,,,Many,More than half,Some,Most,Half,Less than half,Few,None,All,0.03425933,0.300925923,1,0,0,QQQ4,,,,,,,,English,5ed148a5177bf6073dddf293,2020-07-02_11h01.47.070,Experiment_English,3.2.4,Win32,60,,,1,0,340,333,1,339,ratio91_18_20_6.png,,,,,,,,,,,,
,,,,,,,,,,,,Half,Some,Many,All,Most,Few,None,More than half,Less than half,0.433333353,0.052777771,1,0,0,QQQ2,,,,,,,,English,5ed148a5177bf6073dddf293,2020-07-02_11h01.47.070,Experiment_English,3.2.4,Win32,60,,,1,0,340,109,1,339,ratio14_2_10_9.png,,,,,,,,,,,,
,,,,,,,,,,,,Many,More than half,Half,Less than half,All,Most,Few,None,Some,0.083333348,-0.042592601,1,0,0,QQQ5,,,,,,,,English,5ed148a5177bf6073dddf293,2020-07-02_11h01.47.070,Experiment_English,3.2.4,Win32,60,,,1,0,340,56,1,339,ratioX0_17_17_10.png,,,,,,,,,,,,
,,,,,,,,,,,,All,Some,Half,Few,None,Most,More than half,Many,Less than half,0.408333353,-0.023148156,1,0,0,QQQ2,,,,,,,,English,5ed148a5177bf6073dddf293,2020-07-02_11h01.47.070,Experiment_English,3.2.4,Win32,60,,,1,0,340,138,1,339,ratio15_3_18_17.png,,,,,,,,,,,,
,,,,,,,,,,,,Half,All,Most,None,Few,Less than half,Some,Many,More than half,0.45000002,0.250925922,1,0,0,QQQ1,,,,,,,,English,5ed148a5177bf6073dddf293,2020-07-02_11h01.47.070,Experiment_English,3.2.4,Win32,60,,,1,0,340,22,1,339,ratio11_3_6_6.png,,,,,,,,,,,,
,,,,,,,,,,,,Less than half,Most,Few,None,More than half,Many,All,Half,Some,-0.041666654,-0.25185192,1,0,0,QQQ6,,,,,,,,English,5ed148a5177bf6073dddf293,2020-07-02_11h01.47.070,Experiment_English,3.2.4,Win32,60,,,1,0,340,312,1,339,ratio51_10_12_16.png,,,,,,,,,,,,
,,,,,,,,,,,,Few,Most,More than half,None,All,Less than half,Some,Many,Half,0.089814829,-0.271296308,1,0,0,QQQ6,,,,,,,,English,5ed148a5177bf6073dddf293,2020-07-02_11h01.47.070,Experiment_English,3.2.4,Win32,60,,,1,0,340,192,1,339,ratio23_6_15_8.png,,,,,,,,,,,,
,,,,,,,,,,,,Less than half,All,More than half,None,Some,Many,Few,Half,Most,-0.611111107,-0.337962975,1,0,0,QQQ9,,,,,,,,English,5ed148a5177bf6073dddf293,2020-07-02_11h01.47.070,Experiment_English,3.2.4,Win32,60,,,1,0,340,203,1,339,ratio31_3_4_9.png,,,,,,,,,,,,
,,,,,,,,,,,,More than half,Less than half,Half,Some,Few,All,Many,Most,None,-0.059259247,-0.283333345,1,0,0,QQQ6,,,,,,,,English,5ed148a5177bf6073dddf293,2020-07-02_11h01.47.070,Experiment_English,3.2.4,Win32,60,,,1,0,340,52,1,339,ratioX0_13_13_10.png,,,,,,,,,,,,
,,,,,,,,,,,,All,Many,Some,Most,More than half,Half,Few,Less than half,None,0.437037057,0.290740738,1,0,0,QQQ1,,,,,,,,English,5ed148a5177bf6073dddf293,2020-07-02_11h01.47.070,Experiment_English,3.2.4,Win32,60,,,1,0,340,41,1,339,ratioX0_4_4_9.png,,,,,,,,,,,,
,,,,,,,,,,,,More than half,None,Some,Half,All,Few,Less than half,Many,Most,-0.410185178,0.064814808,1,0,0,QQQ8,,,,,,,,English,5ed148a5177bf6073dddf293,2020-07-02_11h01.47.070,Experiment_English,3.2.4,Win32,60,,,1,0,340,216,1,339,ratio31_15_20_3.png,,,,,,,,,,,,
,,,,,,,,,,,,Less than half,None,Many,Some,Half,More than half,Few,Most,All,0.05555557,0.327777775,1,0,0,QQQ4,,,,,,,,English,5ed148a5177bf6073dddf293,2020-07-02_11h01.47.070,Experiment_English,3.2.4,Win32,60,,,1,0,340,114,1,339,ratio14_3_15_10.png,,,,,,,,,,,,
,,,,,,,,,,,,Most,All,Half,More than half,Many,Less than half,None,Few,Some,0.392592725,-0.256481549,1,0,0,QQQ3,,,,,,,,English,5ed148a5177bf6073dddf293,2020-07-02_11h01.47.070,Experiment_English,3.2.4,Win32,60,,,1,0,340,191,1,339,ratio23_6_15_7.png,,,,,,,,,,,,
,,,,,,,,,,,,More than half,All,Less than half,Most,None,Few,Some,Half,Many,-0.449074068,-0.283333345,1,0,0,QQQ9,,,,,,,,English,5ed148a5177bf6073dddf293,2020-07-02_11h01.47.070,Experiment_English,3.2.4,Win32,60,,,1,0,340,278,1,339,ratio41_16_20_9.png,,,,,,,,,,,,
,,,,,,,,,,,,Most,More than half,Less than half,None,Some,Half,Few,All,Many,0.009259273,-0.226851863,1,0,0,QQQ6,,,,,,,,English,5ed148a5177bf6073dddf293,2020-07-02_11h01.47.070,Experiment_English,3.2.4,Win32,60,,,1,0,340,30,1,339,ratio11_6_12_6.png,,,,,,,,,,,,
,,,,,,,,,,,,None,Less than half,Many,Most,Few,Half,More than half,All,Some,-0.479629624,-0.325000012,1,0,0,QQQ9,,,,,,,,English,5ed148a5177bf6073dddf293,2020-07-02_11h01.47.070,Experiment_English,3.2.4,Win32,60,,,1,0,340,133,1,339,ratio15_3_18_3.png,,,,,,,,,,,,
,,,,,,,,,,,,None,Most,Some,Many,Few,Half,Less than half,All,More than half,0.414814834,0.062037031,1,0,0,QQQ2,,,,,,,,English,5ed148a5177bf6073dddf293,2020-07-02_11h01.47.070,Experiment_English,3.2.4,Win32,60,,,1,0,340,324,1,339,ratio91_9_10_7.png,,,,,,,,,,,,
,,,,,,,,,,,,Half,Many,More than half,Some,Less than half,Few,None,Most,All,0.088888903,0.01203703,1,0,0,QQQ5,,,,,,,,English,5ed148a5177bf6073dddf293,2020-07-02_11h01.47.070,Experiment_English,3.2.4,Win32,60,,,1,0,340,184,1,339,ratio23_2_5_10.png,,,,,,,,,,,,
,,,,,,,,,,,,Some,Less than half,None,Many,Few,All,Most,More than half,Half,-0.34351851,0.016666659,1,0,0,QQQ8,,,,,,,,English,5ed148a5177bf6073dddf293,2020-07-02_11h01.47.070,Experiment_English,3.2.4,Win32,60,,,1,0,340,221,1,339,ratio32_3_5_3.png,,,,,,,,,,,,
,,,,,,,,,,,,Few,Half,None,Some,All,Many,Most,Less than half,More than half,-0.108333322,-0.250925937,1,0,0,QQQ6,,,,,,,,English,5ed148a5177bf6073dddf293,2020-07-02_11h01.47.070,Experiment_English,3.2.4,Win32,60,,,1,0,340,330,1,339,ratio91_18_20_2.png,,,,,,,,,,,,
,,,,,,,,,,,,More than half,Most,Some,Many,None,Less than half,Half,Few,All,-0.475925892,-0.015740748,1,0,0,QQQ8,,,,,,,,English,5ed148a5177bf6073dddf293,2020-07-02_11h01.47.070,Experiment_English,3.2.4,Win32,60,,,1,0,340,122,1,339,ratio15_1_6_7.png,,,,,,,,,,,,
,,,,,,,,,,,,Half,Less than half,None,More than half,Some,Many,All,Few,Most,0.375000019,0.022222215,1,0,0,QQQ2,,,,,,,,English,5ed148a5177bf6073dddf293,2020-07-02_11h01.47.070,Experiment_English,3.2.4,Win32,60,,,1,0,340,186,1,339,ratio23_4_10_2.png,,,,,,,,,,,,
,,,,,,,,,,,,None,Few,More than half,Some,Most,Many,Half,Less than half,All,-0.467592586,-0.351851865,1,0,0,QQQ9,,,,,,,,English,5ed148a5177bf6073dddf293,2020-07-02_11h01.47.070,Experiment_English,3.2.4,Win32,60,,,1,0,340,43,1,339,ratioX0_6_6_9.png,,,,,,,,,,,,
