continue_mouse.x,continue_mouse.y,continue_mouse.leftButton,continue_mouse.midButton,continue_mouse.rightButton,continue_mouse.clicked_name,continue_mouse_2.x,continue_mouse_2.y,continue_mouse_2.leftButton,continue_mouse_2.midButton,continue_mouse_2.rightButton,continue_mouse_2.clicked_name,Q1,Q2,Q3,Q4,Q5,Q6,Q7,Q8,Q9,select_answer.x,select_answer.y,select_answer.leftButton,select_answer.midButton,select_answer.rightButton,select_answer.clicked_name,trial.thisRepN,trial.thisTrialN,trial.thisN,trial.thisIndex,trial.ran,trial.order,trials,Native tongue*,date,expName,psychopyVersion,OS,frameRate,key_resp.keys,key_resp.rt,Actual_Experiment.thisRepN,Actual_Experiment.thisTrialN,Actual_Experiment.thisN,Actual_Experiment.thisIndex,Actual_Experiment.ran,Actual_Experiment.order,Pic,mouse_pause.x,mouse_pause.y,mouse_pause.leftButton,mouse_pause.midButton,mouse_pause.rightButton,mouse_pause.clicked_name,pause.thisRepN,pause.thisTrialN,pause.thisN,pause.thisIndex,pause.ran,pause.order
0.351851852,-0.425925926,1,0,0,continue_button,0.319444444,-0.429398148,1,0,0,continue_button_2,Few,Most,More than half,Many,None,All,Half,Some,Less than half,0.003472222,0.275462963,1,0,0,QQQ4,1,0,16,8,1,15,ratio21_12_18_3.png,English,2020-07-02_11h09.42.662,Experiment_English,3.2.4,Win32,60,,,,,,,,,,,,,,,,,,,,,
,,,,,,,,,,,,Some,Less than half,More than half,Half,Most,Few,All,Many,None,0.074074074,-0.329861111,1,0,0,QQQ6,1,0,16,11,1,15,ratio14_1_5_7.png,English,2020-07-02_11h09.42.662,Experiment_English,3.2.4,Win32,60,,,,,,,,,,,,,,,,,,,,,
,,,,,,,,,,,,None,Many,Few,More than half,Less than half,Half,All,Most,Some,-0.003472222,0.290509259,1,0,0,QQQ4,1,0,16,2,1,15,ratio43_8_14_19.png,English,2020-07-02_11h09.42.662,Experiment_English,3.2.4,Win32,60,,,,,,,,,,,,,,,,,,,,,
,,,,,,,,,,,,None,Few,Less than half,Half,Most,Many,All,More than half,Some,0,-0.016203704,1,0,0,QQQ5,1,0,16,3,1,15,ratio41_8_10_8.png,English,2020-07-02_11h09.42.662,Experiment_English,3.2.4,Win32,60,,,,,,,,,,,,,,,,,,,,,
,,,,,,,,,,,,Many,Half,Some,Most,Few,More than half,All,None,Less than half,-0.458333333,-0.046296296,1,0,0,QQQ8,1,0,16,15,1,15,ratio0Y_0_14_10.png,English,2020-07-02_11h09.42.662,Experiment_English,3.2.4,Win32,60,,,,,,,,,,,,,,,,,,,,,
,,,,,,,,,,,,Half,More than half,Few,Many,Less than half,Most,None,Some,All,0.502314815,-0.010416667,1,0,0,QQQ2,,,,,,,,English,2020-07-02_11h09.42.662,Experiment_English,3.2.4,Win32,60,b,6.778000116,1,0,340,208,1,339,ratio31_9_12_3.png,,,,,,,,,,,,
,,,,,,,,,,,,All,Most,More than half,Half,Some,Many,Less than half,Few,None,-0.479166667,-0.010416667,1,0,0,QQQ8,,,,,,,,English,2020-07-02_11h09.42.662,Experiment_English,3.2.4,Win32,60,,,1,0,340,115,1,339,ratio14_4_20_1.png,,,,,,,,,,,,
,,,,,,,,,,,,Some,Many,None,Few,More than half,All,Half,Most,Less than half,0.041666667,0.326388889,1,0,0,QQQ4,,,,,,,,English,2020-07-02_11h09.42.662,Experiment_English,3.2.4,Win32,60,,,1,0,340,155,1,339,ratio19_2_20_13.png,,,,,,,,,,,,
,,,,,,,,,,,,More than half,Less than half,Most,Many,Half,Few,None,All,Some,0.484953704,0.28125,1,0,0,QQQ1,,,,,,,,English,2020-07-02_11h09.42.662,Experiment_English,3.2.4,Win32,60,,,1,0,340,302,1,339,ratio51_5_6_5.png,,,,,,,,,,,,
,,,,,,,,,,,,More than half,Many,Most,Less than half,Half,Few,Some,All,None,0.484953704,0.28125,1,0,0,QQQ1,,,,,,,,English,2020-07-02_11h09.42.662,Experiment_English,3.2.4,Win32,60,,,1,0,340,236,1,339,ratio32_12_20_2.png,,,,,,,,,,,,
,,,,,,,,,,,,None,All,Some,Half,Less than half,Few,Many,Most,More than half,-0.434027778,-0.256944444,1,0,0,QQQ9,,,,,,,,English,2020-07-02_11h09.42.662,Experiment_English,3.2.4,Win32,60,,,1,0,340,165,1,339,ratio21_4_6_10.png,,,,,,,,,,,,
,,,,,,,,,,,,Some,None,Many,Few,More than half,Most,Half,All,Less than half,-0.054398148,0.305555556,1,0,0,QQQ4,,,,,,,,English,2020-07-02_11h09.42.662,Experiment_English,3.2.4,Win32,60,,,1,0,340,154,1,339,ratio19_2_20_11.png,,,,,,,,,,,,
,,,,,,,,,,,,Some,Few,Many,Most,Less than half,None,Half,More than half,All,-0.425925926,0.273148148,1,0,0,QQQ7,,,,,,,,English,2020-07-02_11h09.42.662,Experiment_English,3.2.4,Win32,60,,,1,0,340,23,1,339,ratio11_3_6_9.png,,,,,,,,,,,,
,,,,,,,,,,,,None,Many,All,Half,Few,Most,Some,Less than half,More than half,-0.043981481,0.008101852,1,0,0,QQQ5,,,,,,,,English,2020-07-02_11h09.42.662,Experiment_English,3.2.4,Win32,60,,,1,0,340,14,1,339,ratio12_5_15_4.png,,,,,,,,,,,,
,,,,,,,,,,,,Most,None,Less than half,Some,Few,Many,Half,All,More than half,-0.043981481,0.008101852,1,0,0,QQQ5,,,,,,,,English,2020-07-02_11h09.42.662,Experiment_English,3.2.4,Win32,60,,,1,0,340,182,1,339,ratio23_2_5_7.png,,,,,,,,,,,,
,,,,,,,,,,,,More than half,Many,All,Less than half,Half,Most,None,Few,Some,-0.519675926,-0.003472222,1,0,0,QQQ8,,,,,,,,English,2020-07-02_11h09.42.662,Experiment_English,3.2.4,Win32,60,,,1,0,340,101,1,339,ratio14_1_5_7.png,,,,,,,,,,,,
,,,,,,,,,,,,Some,Few,Half,None,Many,Less than half,All,Most,More than half,-0.502314815,0.011574074,1,0,0,QQQ8,,,,,,,,English,2020-07-02_11h09.42.662,Experiment_English,3.2.4,Win32,60,,,1,0,340,319,1,339,ratio51_15_18_20.png,,,,,,,,,,,,
,,,,,,,,,,,,None,Many,More than half,Less than half,Few,Half,Most,Some,All,-0.488425926,0.303240741,1,0,0,QQQ7,,,,,,,,English,2020-07-02_11h09.42.662,Experiment_English,3.2.4,Win32,60,,,1,0,340,321,1,339,ratio91_9_10_2.png,,,,,,,,,,,,
,,,,,,,,,,,,Half,Most,Few,Many,None,Some,More than half,Less than half,All,0.518518519,-0.298611111,1,0,0,QQQ3,,,,,,,,English,2020-07-02_11h09.42.662,Experiment_English,3.2.4,Win32,60,,,1,0,340,103,1,339,ratio14_1_5_9.png,,,,,,,,,,,,
,,,,,,,,,,,,Half,Some,More than half,Less than half,Most,Few,All,None,Many,0.555555556,0.059027778,1,0,0,QQQ2,,,,,,,,English,2020-07-02_11h09.42.662,Experiment_English,3.2.4,Win32,60,,,1,0,340,37,1,339,ratio11_9_18_8.png,,,,,,,,,,,,
,,,,,,,,,,,,Half,None,Few,Most,Less than half,Many,Some,More than half,All,-0.497685185,-0.018518519,1,0,0,QQQ8,,,,,,,,English,2020-07-02_11h09.42.662,Experiment_English,3.2.4,Win32,60,,,1,0,340,206,1,339,ratio31_6_8_6.png,,,,,,,,,,,,
,,,,,,,,,,,,More than half,All,Some,Less than half,Most,None,Many,Half,Few,-0.127314815,0.246527778,1,0,0,QQQ4,,,,,,,,English,2020-07-02_11h09.42.662,Experiment_English,3.2.4,Win32,60,,,1,0,340,35,1,339,ratio11_8_16_10.png,,,,,,,,,,,,
,,,,,,,,,,,,Some,More than half,All,None,Less than half,Half,Few,Many,Most,-0.047453704,0.258101852,1,0,0,QQQ4,,,,,,,,English,2020-07-02_11h09.42.662,Experiment_English,3.2.4,Win32,60,,,1,0,340,75,1,339,ratio0Y_0_16_10.png,,,,,,,,,,,,
,,,,,,,,,,,,Most,Less than half,All,Half,More than half,None,Many,Some,Few,-0.047453704,0.258101852,1,0,0,QQQ4,,,,,,,,English,2020-07-02_11h09.42.662,Experiment_English,3.2.4,Win32,60,,,1,0,340,20,1,339,ratio11_2_4_3.png,,,,,,,,,,,,
,,,,,,,,,,,,Half,None,Most,Less than half,Few,All,Many,More than half,Some,-0.028935185,0.018518519,1,0,0,QQQ5,,,,,,,,English,2020-07-02_11h09.42.662,Experiment_English,3.2.4,Win32,60,,,1,0,340,107,1,339,ratio14_2_10_5.png,,,,,,,,,,,,
,,,,,,,,,,,,More than half,Many,All,Less than half,Some,Half,None,Few,Most,-0.03125,0.011574074,1,0,0,QQQ5,,,,,,,,English,2020-07-02_11h09.42.662,Experiment_English,3.2.4,Win32,60,,,1,0,340,4,1,339,ratio12_2_6_5.png,,,,,,,,,,,,
,,,,,,,,,,,,Many,Half,Some,None,Few,All,More than half,Most,Less than half,-0.03125,0.011574074,1,0,0,QQQ5,,,,,,,,English,2020-07-02_11h09.42.662,Experiment_English,3.2.4,Win32,60,,,1,0,340,91,1,339,ratio13_3_12_10.png,,,,,,,,,,,,
,,,,,,,,,,,,More than half,None,Less than half,Half,Few,Many,Most,All,Some,0.420138889,0.3125,1,0,0,QQQ1,,,,,,,,English,2020-07-02_11h09.42.662,Experiment_English,3.2.4,Win32,60,,,1,0,340,223,1,339,ratio32_3_5_5.png,,,,,,,,,,,,
,,,,,,,,,,,,Less than half,Most,More than half,All,Few,Half,Some,None,Many,-0.456018519,0.277777778,1,0,0,QQQ7,,,,,,,,English,2020-07-02_11h09.42.662,Experiment_English,3.2.4,Win32,60,,,1,0,340,99,1,339,ratio13_5_20_4.png,,,,,,,,,,,,
,,,,,,,,,,,,Many,Few,Half,More than half,None,Some,All,Most,Less than half,0.480324074,0.012731481,1,0,0,QQQ2,,,,,,,,English,2020-07-02_11h09.42.662,Experiment_English,3.2.4,Win32,60,,,1,0,340,130,1,339,ratio15_2_12_12.png,,,,,,,,,,,,
,,,,,,,,,,,,Some,More than half,None,Half,Many,Few,All,Less than half,Most,0.480324074,0.012731481,1,0,0,QQQ2,,,,,,,,English,2020-07-02_11h09.42.662,Experiment_English,3.2.4,Win32,60,,,1,0,340,166,1,339,ratio21_6_9_1.png,,,,,,,,,,,,
,,,,,,,,,,,,Few,Many,All,Most,Half,None,Less than half,More than half,Some,-0.021990741,-0.012731481,1,0,0,QQQ5,,,,,,,,English,2020-07-02_11h09.42.662,Experiment_English,3.2.4,Win32,60,,,1,0,340,25,1,339,ratio11_4_8_10.png,,,,,,,,,,,,
,,,,,,,,,,,,All,Less than half,More than half,Few,Some,Half,None,Many,Most,-0.4375,-0.261574074,1,0,0,QQQ9,,,,,,,,English,2020-07-02_11h09.42.662,Experiment_English,3.2.4,Win32,60,,,1,0,340,324,1,339,ratio91_9_10_7.png,,,,,,,,,,,,
,,,,,,,,,,,,Most,None,Few,Many,Less than half,Half,Some,More than half,All,-0.552083333,0.009259259,1,0,0,QQQ8,,,,,,,,English,2020-07-02_11h09.42.662,Experiment_English,3.2.4,Win32,60,,,1,0,340,226,1,339,ratio32_6_10_5.png,,,,,,,,,,,,
,,,,,,,,,,,,More than half,Less than half,Some,Few,Many,None,Most,All,Half,0.497685185,-0.030092593,1,0,0,QQQ2,,,,,,,,English,2020-07-02_11h09.42.662,Experiment_English,3.2.4,Win32,60,,,1,0,340,186,1,339,ratio23_4_10_2.png,,,,,,,,,,,,
,,,,,,,,,,,,All,Half,None,Some,Most,More than half,Less than half,Few,Many,0.033564815,-0.025462963,1,0,0,QQQ5,,,,,,,,English,2020-07-02_11h09.42.662,Experiment_English,3.2.4,Win32,60,,,1,0,340,322,1,339,ratio91_9_10_3.png,,,,,,,,,,,,
,,,,,,,,,,,,More than half,Most,Many,Some,Less than half,Half,All,None,Few,0.028935185,-0.023148148,1,0,0,QQQ5,,,,,,,,English,2020-07-02_11h09.42.662,Experiment_English,3.2.4,Win32,60,,,1,0,340,13,1,339,ratio12_5_15_3.png,,,,,,,,,,,,
,,,,,,,,,,,,None,Many,Less than half,More than half,Few,All,Most,Some,Half,0.528935185,-0.302083333,1,0,0,QQQ3,,,,,,,,English,2020-07-02_11h09.42.662,Experiment_English,3.2.4,Win32,60,,,1,0,340,188,1,339,ratio23_4_10_6.png,,,,,,,,,,,,
,,,,,,,,,,,,All,Few,Half,More than half,None,Less than half,Many,Most,Some,-0.045138889,0.321759259,1,0,0,QQQ4,,,,,,,,English,2020-07-02_11h09.42.662,Experiment_English,3.2.4,Win32,60,,,1,0,340,164,1,339,ratio21_4_6_6.png,0.385416667,-0.402777778,1,0,0,continue_button_pause,1,0,1,0,1,0
,,,,,,,,,,,,,,,,,,,,,,,,,,,,,,,,,,English,2020-07-02_11h09.42.662,Experiment_English,3.2.4,Win32,60,,,1,0,340,164,1,339,ratio21_4_6_6.png,,,,,,,,,,,,
,,,,,,,,,,,,All,None,Most,Few,Many,Less than half,Half,More than half,Some,0.033564815,-0.313657407,1,0,0,QQQ6,,,,,,,,English,2020-07-02_11h09.42.662,Experiment_English,3.2.4,Win32,60,,,1,0,340,92,1,339,ratio13_4_16_3.png,,,,,,,,,,,,
,,,,,,,,,,,,All,Few,Some,None,More than half,Most,Half,Many,Less than half,0.010416667,-0.31712963,1,0,0,QQQ6,,,,,,,,English,2020-07-02_11h09.42.662,Experiment_English,3.2.4,Win32,60,,,1,0,340,327,1,339,ratio91_9_10_11.png,,,,,,,,,,,,
,,,,,,,,,,,,Less than half,Few,More than half,None,Many,All,Most,Half,Some,0.481481481,-0.011574074,1,0,0,QQQ2,,,,,,,,English,2020-07-02_11h09.42.662,Experiment_English,3.2.4,Win32,60,,,1,0,340,132,1,339,ratio15_2_12_16.png,,,,,,,,,,,,
,,,,,,,,,,,,None,Some,Less than half,Half,More than half,Most,All,Many,Few,0.008101852,0.297453704,1,0,0,QQQ4,,,,,,,,English,2020-07-02_11h09.42.662,Experiment_English,3.2.4,Win32,60,,,1,0,340,254,1,339,ratio34_6_14_9.png,,,,,,,,,,,,
,,,,,,,,,,,,Many,Less than half,Few,More than half,Half,Some,None,All,Most,0.445601852,0.002314815,1,0,0,QQQ2,,,,,,,,English,2020-07-02_11h09.42.662,Experiment_English,3.2.4,Win32,60,,,1,0,340,29,1,339,ratio11_6_12_1.png,,,,,,,,,,,,
,,,,,,,,,,,,Most,Less than half,More than half,Few,All,Many,Some,None,Half,-0.511574074,0.292824074,1,0,0,QQQ7,,,,,,,,English,2020-07-02_11h09.42.662,Experiment_English,3.2.4,Win32,60,,,1,0,340,259,1,339,ratio34_6_14_19.png,,,,,,,,,,,,
,,,,,,,,,,,,Most,Less than half,Some,More than half,None,All,Half,Many,Few,0.493055556,0.010416667,1,0,0,QQQ2,,,,,,,,English,2020-07-02_11h09.42.662,Experiment_English,3.2.4,Win32,60,,,1,0,340,189,1,339,ratio23_4_10_8.png,,,,,,,,,,,,
,,,,,,,,,,,,Many,Some,All,Most,Less than half,None,More than half,Half,Few,-0.511574074,-0.296296296,1,0,0,QQQ9,,,,,,,,English,2020-07-02_11h09.42.662,Experiment_English,3.2.4,Win32,60,,,1,0,340,137,1,339,ratio15_3_18_16.png,,,,,,,,,,,,
,,,,,,,,,,,,More than half,Many,Less than half,Few,Some,Most,Half,All,None,0.5,0.302083333,1,0,0,QQQ1,,,,,,,,English,2020-07-02_11h09.42.662,Experiment_English,3.2.4,Win32,60,,,1,0,340,207,1,339,ratio31_6_8_9.png,,,,,,,,,,,,
,,,,,,,,,,,,None,Less than half,More than half,All,Many,Half,Some,Most,Few,0.550925926,-0.041666667,1,0,0,QQQ2,,,,,,,,English,2020-07-02_11h09.42.662,Experiment_English,3.2.4,Win32,60,,,1,0,340,89,1,339,ratio13_3_12_6.png,,,,,,,,,,,,
,,,,,,,,,,,,None,All,Most,Less than half,More than half,Half,Many,Some,Few,-0.059027778,0.270833333,1,0,0,QQQ4,,,,,,,,English,2020-07-02_11h09.42.662,Experiment_English,3.2.4,Win32,60,,,1,0,340,198,1,339,ratio23_8_20_7.png,,,,,,,,,,,,
,,,,,,,,,,,,Some,Half,More than half,Less than half,Many,All,None,Most,Few,-0.471064815,-0.300925926,1,0,0,QQQ9,,,,,,,,English,2020-07-02_11h09.42.662,Experiment_English,3.2.4,Win32,60,,,1,0,340,123,1,339,ratio15_1_6_12.png,,,,,,,,,,,,
,,,,,,,,,,,,Some,All,Half,Most,Few,Less than half,Many,None,More than half,0.515046296,0,1,0,0,QQQ2,,,,,,,,English,2020-07-02_11h09.42.662,Experiment_English,3.2.4,Win32,60,,,1,0,340,41,1,339,ratioX0_4_4_9.png,,,,,,,,,,,,
,,,,,,,,,,,,Most,Many,None,More than half,Few,Less than half,Half,All,Some,-0.479166667,0.009259259,1,0,0,QQQ8,,,,,,,,English,2020-07-02_11h09.42.662,Experiment_English,3.2.4,Win32,60,,,1,0,340,54,1,339,ratioX0_15_15_5.png,,,,,,,,,,,,
,,,,,,,,,,,,Few,Most,Less than half,More than half,Some,Half,All,None,Many,0.49537037,0.306712963,1,0,0,QQQ1,,,,,,,,English,2020-07-02_11h09.42.662,Experiment_English,3.2.4,Win32,60,,,1,0,340,128,1,339,ratio15_2_12_8.png,,,,,,,,,,,,
,,,,,,,,,,,,All,Most,More than half,None,Some,Half,Few,Many,Less than half,0.512731481,-0.318287037,1,0,0,QQQ3,,,,,,,,English,2020-07-02_11h09.42.662,Experiment_English,3.2.4,Win32,60,,,1,0,340,26,1,339,ratio11_5_10_4.png,,,,,,,,,,,,
,,,,,,,,,,,,Less than half,Some,More than half,Many,Few,None,Most,All,Half,0.484953704,0.289351852,1,0,0,QQQ1,,,,,,,,English,2020-07-02_11h09.42.662,Experiment_English,3.2.4,Win32,60,,,1,0,340,116,1,339,ratio14_4_20_3.png,,,,,,,,,,,,
,,,,,,,,,,,,None,Half,All,Few,Many,Some,More than half,Less than half,Most,-0.475694444,-0.300925926,1,0,0,QQQ9,,,,,,,,English,2020-07-02_11h09.42.662,Experiment_English,3.2.4,Win32,60,,,1,0,340,268,1,339,ratio41_8_10_5.png,,,,,,,,,,,,
,,,,,,,,,,,,Many,Some,Few,None,Half,More than half,Less than half,Most,All,0.471064815,-0.006944444,1,0,0,QQQ2,,,,,,,,English,2020-07-02_11h09.42.662,Experiment_English,3.2.4,Win32,60,,,1,0,340,114,1,339,ratio14_3_15_10.png,,,,,,,,,,,,
,,,,,,,,,,,,Few,More than half,Many,Most,Less than half,Some,None,All,Half,0.025462963,-0.012731481,1,0,0,QQQ5,,,,,,,,English,2020-07-02_11h09.42.662,Experiment_English,3.2.4,Win32,60,,,1,0,340,242,1,339,ratio34_3_7_6.png,,,,,,,,,,,,
,,,,,,,,,,,,More than half,Many,Some,Half,Few,Less than half,All,None,Most,0.50462963,-0.30787037,1,0,0,QQQ3,,,,,,,,English,2020-07-02_11h09.42.662,Experiment_English,3.2.4,Win32,60,,,1,0,340,95,1,339,ratio13_4_16_10.png,,,,,,,,,,,,
,,,,,,,,,,,,Less than half,Half,None,Some,More than half,Few,Most,All,Many,-0.496527778,0.005787037,1,0,0,QQQ8,,,,,,,,English,2020-07-02_11h09.42.662,Experiment_English,3.2.4,Win32,60,,,1,0,340,46,1,339,ratioX0_9_9_3.png,,,,,,,,,,,,
,,,,,,,,,,,,None,Less than half,Most,Many,Some,Few,Half,All,More than half,0.509259259,-0.00462963,1,0,0,QQQ2,,,,,,,,English,2020-07-02_11h09.42.662,Experiment_English,3.2.4,Win32,60,,,1,0,340,255,1,339,ratio34_6_14_10.png,,,,,,,,,,,,
,,,,,,,,,,,,Half,Less than half,Many,Most,All,Some,Few,More than half,None,0.006944444,0.298611111,1,0,0,QQQ4,,,,,,,,English,2020-07-02_11h09.42.662,Experiment_English,3.2.4,Win32,60,,,1,0,340,202,1,339,ratio31_3_4_8.png,,,,,,,,,,,,
,,,,,,,,,,,,All,Most,Many,Half,Few,Some,None,More than half,Less than half,-0.512731481,-0.290509259,1,0,0,QQQ9,,,,,,,,English,2020-07-02_11h09.42.662,Experiment_English,3.2.4,Win32,60,,,1,0,340,251,1,339,ratio34_6_14_2.png,,,,,,,,,,,,
,,,,,,,,,,,,All,Some,None,Half,Most,Few,Many,More than half,Less than half,-0.486111111,0.008101852,1,0,0,QQQ8,,,,,,,,English,2020-07-02_11h09.42.662,Experiment_English,3.2.4,Win32,60,,,1,0,340,217,1,339,ratio31_15_20_5.png,,,,,,,,,,,,
,,,,,,,,,,,,Most,Few,All,Some,Many,Half,None,More than half,Less than half,0.498842593,-0.296296296,1,0,0,QQQ3,,,,,,,,English,2020-07-02_11h09.42.662,Experiment_English,3.2.4,Win32,60,,,1,0,340,44,1,339,ratioX0_7_7_5.png,,,,,,,,,,,,
,,,,,,,,,,,,Many,Half,Most,None,All,Some,Less than half,More than half,Few,-0.006944444,0.00462963,1,0,0,QQQ5,,,,,,,,English,2020-07-02_11h09.42.662,Experiment_English,3.2.4,Win32,60,,,1,0,340,59,1,339,ratioX0_20_20_9.png,,,,,,,,,,,,
,,,,,,,,,,,,Some,Most,Half,Less than half,None,Many,More than half,Few,All,0.49537037,-0.006944444,1,0,0,QQQ2,,,,,,,,English,2020-07-02_11h09.42.662,Experiment_English,3.2.4,Win32,60,,,1,0,340,211,1,339,ratio31_9_12_10.png,,,,,,,,,,,,
,,,,,,,,,,,,Less than half,More than half,Some,Few,Most,None,Half,Many,All,-0.006944444,0.00462963,1,0,0,QQQ5,,,,,,,,English,2020-07-02_11h09.42.662,Experiment_English,3.2.4,Win32,60,,,1,0,340,139,1,339,ratio15_3_18_20.png,,,,,,,,,,,,
,,,,,,,,,,,,None,Less than half,Some,Most,Few,More than half,Many,Half,All,-0.009259259,0.293981481,1,0,0,QQQ4,,,,,,,,English,2020-07-02_11h09.42.662,Experiment_English,3.2.4,Win32,60,,,1,0,340,331,1,339,ratio91_18_20_3.png,,,,,,,,,,,,
,,,,,,,,,,,,Less than half,Some,Many,None,Most,More than half,Few,Half,All,0.002314815,0.00462963,1,0,0,QQQ5,,,,,,,,English,2020-07-02_11h09.42.662,Experiment_English,3.2.4,Win32,60,,,1,0,340,329,1,339,ratio91_9_10_20.png,,,,,,,,,,,,
,,,,,,,,,,,,Some,Less than half,All,Few,Many,None,Half,Most,More than half,-0.453703704,-0.305555556,1,0,0,QQQ9,,,,,,,,English,2020-07-02_11h09.42.662,Experiment_English,3.2.4,Win32,60,,,1,0,340,201,1,339,ratio31_3_4_7.png,,,,,,,,,,,,
,,,,,,,,,,,,Less than half,More than half,All,None,Many,Some,Half,Few,Most,-0.479166667,-0.273148148,1,0,0,QQQ9,,,,,,,,English,2020-07-02_11h09.42.662,Experiment_English,3.2.4,Win32,60,,,1,0,340,308,1,339,ratio51_10_12_9.png,0.331018519,-0.373842593,1,0,0,continue_button_pause,1,0,1,0,1,0
,,,,,,,,,,,,,,,,,,,,,,,,,,,,,,,,,,English,2020-07-02_11h09.42.662,Experiment_English,3.2.4,Win32,60,,,1,0,340,308,1,339,ratio51_10_12_9.png,,,,,,,,,,,,
,,,,,,,,,,,,More than half,Many,Some,Most,None,Few,All,Half,Less than half,-0.549768519,-0.293981481,1,0,0,QQQ9,,,,,,,,English,2020-07-02_11h09.42.662,Experiment_English,3.2.4,Win32,60,,,1,0,340,241,1,339,ratio34_3_7_5.png,,,,,,,,,,,,
,,,,,,,,,,,,Few,Many,All,None,Less than half,Half,More than half,Most,Some,-0.028935185,-0.303240741,1,0,0,QQQ6,,,,,,,,English,2020-07-02_11h09.42.662,Experiment_English,3.2.4,Win32,60,,,1,0,340,32,1,339,ratio11_7_14_5.png,,,,,,,,,,,,
,,,,,,,,,,,,Few,None,Less than half,Half,All,Many,Some,More than half,Most,-0.503472222,-0.299768519,1,0,0,QQQ9,,,,,,,,English,2020-07-02_11h09.42.662,Experiment_English,3.2.4,Win32,60,,,1,0,340,339,1,339,ratio91_18_20_19.png,,,,,,,,,,,,
,,,,,,,,,,,,Few,Some,More than half,All,Less than half,Many,None,Half,Most,-0.49537037,-0.288194444,1,0,0,QQQ9,,,,,,,,English,2020-07-02_11h09.42.662,Experiment_English,3.2.4,Win32,60,,,1,0,340,330,1,339,ratio91_18_20_2.png,,,,,,,,,,,,
,,,,,,,,,,,,Few,Many,More than half,Some,None,Less than half,All,Most,Half,-0.511574074,0.296296296,1,0,0,QQQ7,,,,,,,,English,2020-07-02_11h09.42.662,Experiment_English,3.2.4,Win32,60,,,1,0,340,48,1,339,ratioX0_10_10_1.png,,,,,,,,,,,,
,,,,,,,,,,,,More than half,None,Many,Few,Half,All,Most,Less than half,Some,-0.50462963,0.293981481,1,0,0,QQQ7,,,,,,,,English,2020-07-02_11h09.42.662,Experiment_English,3.2.4,Win32,60,,,1,0,340,209,1,339,ratio31_9_12_6.png,,,,,,,,,,,,
,,,,,,,,,,,,Many,None,More than half,Less than half,Half,Few,Most,All,Some,-0.010416667,-0.293981481,1,0,0,QQQ6,,,,,,,,English,2020-07-02_11h09.42.662,Experiment_English,3.2.4,Win32,60,,,1,0,340,145,1,339,ratio19_1_10_15.png,,,,,,,,,,,,
,,,,,,,,,,,,Most,None,All,More than half,Some,Less than half,Many,Few,Half,-0.513888889,-0.001157407,1,0,0,QQQ8,,,,,,,,English,2020-07-02_11h09.42.662,Experiment_English,3.2.4,Win32,60,,,1,0,340,131,1,339,ratio15_2_12_14.png,,,,,,,,,,,,
,,,,,,,,,,,,Few,Some,All,Half,More than half,Most,Many,Less than half,None,-0.002314815,-0.299768519,1,0,0,QQQ6,,,,,,,,English,2020-07-02_11h09.42.662,Experiment_English,3.2.4,Win32,60,,,1,0,340,204,1,339,ratio31_6_8_1.png,,,,,,,,,,,,
,,,,,,,,,,,,Few,None,Most,All,More than half,Many,Half,Some,Less than half,0.513888889,0.302083333,1,0,0,QQQ1,,,,,,,,English,2020-07-02_11h09.42.662,Experiment_English,3.2.4,Win32,60,,,1,0,340,183,1,339,ratio23_2_5_9.png,,,,,,,,,,,,
,,,,,,,,,,,,Less than half,Some,Many,Half,More than half,All,None,Few,Most,0.5,0.297453704,1,0,0,QQQ1,,,,,,,,English,2020-07-02_11h09.42.662,Experiment_English,3.2.4,Win32,60,,,1,0,340,96,1,339,ratio13_5_20_1.png,,,,,,,,,,,,
,,,,,,,,,,,,Many,Most,Few,Half,Some,All,Less than half,None,More than half,-0.476851852,0,1,0,0,QQQ8,,,,,,,,English,2020-07-02_11h09.42.662,Experiment_English,3.2.4,Win32,60,,,1,0,340,74,1,339,ratio0Y_0_15_10.png,,,,,,,,,,,,
,,,,,,,,,,,,Few,Many,None,Less than half,Half,Some,Most,All,More than half,0.542824074,0.275462963,1,0,0,QQQ1,,,,,,,,English,2020-07-02_11h09.42.662,Experiment_English,3.2.4,Win32,60,,,1,0,340,153,1,339,ratio19_2_20_8.png,,,,,,,,,,,,
,,,,,,,,,,,,None,Half,More than half,Few,Most,Many,Some,All,Less than half,0.491898148,-0.310185185,1,0,0,QQQ3,,,,,,,,English,2020-07-02_11h09.42.662,Experiment_English,3.2.4,Win32,60,,,1,0,340,231,1,339,ratio32_9_15_2.png,,,,,,,,,,,,
,,,,,,,,,,,,None,Few,Many,More than half,Most,All,Half,Less than half,Some,0.010416667,-0.288194444,1,0,0,QQQ6,,,,,,,,English,2020-07-02_11h09.42.662,Experiment_English,3.2.4,Win32,60,,,1,0,340,50,1,339,ratioX0_12_12_3.png,,,,,,,,,,,,
,,,,,,,,,,,,More than half,None,Some,Less than half,All,Most,Half,Many,Few,-0.032407407,0.291666667,1,0,0,QQQ4,,,,,,,,English,2020-07-02_11h09.42.662,Experiment_English,3.2.4,Win32,60,,,1,0,340,180,1,339,ratio23_2_5_4.png,,,,,,,,,,,,
,,,,,,,,,,,,All,Few,Some,More than half,Many,Less than half,Half,Most,None,-0.002314815,-0.274305556,1,0,0,QQQ6,,,,,,,,English,2020-07-02_11h09.42.662,Experiment_English,3.2.4,Win32,60,,,1,0,340,90,1,339,ratio13_3_12_7.png,,,,,,,,,,,,
,,,,,,,,,,,,None,Some,Many,Most,More than half,Half,Less than half,Few,All,-0.50462963,0.304398148,1,0,0,QQQ7,,,,,,,,English,2020-07-02_11h09.42.662,Experiment_English,3.2.4,Win32,60,,,1,0,340,117,1,339,ratio14_4_20_6.png,,,,,,,,,,,,
,,,,,,,,,,,,Many,None,Less than half,All,More than half,Half,Some,Few,Most,-0.518518519,-0.284722222,1,0,0,QQQ9,,,,,,,,English,2020-07-02_11h09.42.662,Experiment_English,3.2.4,Win32,60,,,1,0,340,205,1,339,ratio31_6_8_2.png,,,,,,,,,,,,
,,,,,,,,,,,,More than half,Most,Few,Some,Less than half,Many,None,Half,All,0.481481481,0.296296296,1,0,0,QQQ1,,,,,,,,English,2020-07-02_11h09.42.662,Experiment_English,3.2.4,Win32,60,,,1,0,340,280,1,339,ratio43_4_7_2.png,,,,,,,,,,,,
,,,,,,,,,,,,Half,All,Some,More than half,None,Few,Many,Less than half,Most,-0.475694444,-0.306712963,1,0,0,QQQ9,,,,,,,,English,2020-07-02_11h09.42.662,Experiment_English,3.2.4,Win32,60,,,1,0,340,307,1,339,ratio51_10_12_1.png,,,,,,,,,,,,
,,,,,,,,,,,,Few,All,Most,Half,Some,Many,None,Less than half,More than half,-0.530092593,-0.314814815,1,0,0,QQQ9,,,,,,,,English,2020-07-02_11h09.42.662,Experiment_English,3.2.4,Win32,60,,,1,0,340,174,1,339,ratio21_10_15_1.png,,,,,,,,,,,,
,,,,,,,,,,,,Less than half,Many,Half,More than half,All,Some,Few,None,Most,0.010416667,0.284722222,1,0,0,QQQ4,,,,,,,,English,2020-07-02_11h09.42.662,Experiment_English,3.2.4,Win32,60,,,1,0,340,294,1,339,ratio43_8_14_9.png,,,,,,,,,,,,
,,,,,,,,,,,,Few,Less than half,All,None,Most,Some,Many,More than half,Half,-0.486111111,0.001157407,1,0,0,QQQ8,,,,,,,,English,2020-07-02_11h09.42.662,Experiment_English,3.2.4,Win32,60,,,1,0,340,252,1,339,ratio34_6_14_3.png,,,,,,,,,,,,
,,,,,,,,,,,,Some,All,None,Less than half,More than half,Half,Many,Most,Few,-0.013888889,0.305555556,1,0,0,QQQ4,,,,,,,,English,2020-07-02_11h09.42.662,Experiment_English,3.2.4,Win32,60,,,1,0,340,195,1,339,ratio23_8_20_1.png,,,,,,,,,,,,
,,,,,,,,,,,,Less than half,Many,All,None,More than half,Half,Few,Most,Some,0.081018519,-0.005787037,1,0,0,QQQ5,,,,,,,,English,2020-07-02_11h09.42.662,Experiment_English,3.2.4,Win32,60,,,1,0,340,273,1,339,ratio41_12_15_8.png,,,,,,,,,,,,
,,,,,,,,,,,,Most,Less than half,Many,All,Some,Few,None,More than half,Half,-0.422453704,-0.006944444,1,0,0,QQQ8,,,,,,,,English,2020-07-02_11h09.42.662,Experiment_English,3.2.4,Win32,60,,,1,0,340,318,1,339,ratio51_15_18_18.png,,,,,,,,,,,,
,,,,,,,,,,,,Few,None,Some,Half,Many,More than half,Most,Less than half,All,0.481481481,0.295138889,1,0,0,QQQ1,,,,,,,,English,2020-07-02_11h09.42.662,Experiment_English,3.2.4,Win32,60,,,1,0,340,146,1,339,ratio19_1_10_17.png,,,,,,,,,,,,
,,,,,,,,,,,,Half,Most,Less than half,More than half,None,Many,Few,Some,All,0.517361111,-0.300925926,1,0,0,QQQ3,,,,,,,,English,2020-07-02_11h09.42.662,Experiment_English,3.2.4,Win32,60,,,1,0,340,94,1,339,ratio13_4_16_8.png,,,,,,,,,,,,
,,,,,,,,,,,,Less than half,Many,Most,None,All,Few,Some,More than half,Half,-0.009259259,-0.296296296,1,0,0,QQQ6,,,,,,,,English,2020-07-02_11h09.42.662,Experiment_English,3.2.4,Win32,60,,,1,0,340,83,1,339,ratio13_1_4_10.png,,,,,,,,,,,,
,,,,,,,,,,,,More than half,Some,Many,Most,All,Less than half,Few,None,Half,0.002314815,-0.002314815,1,0,0,QQQ5,,,,,,,,English,2020-07-02_11h09.42.662,Experiment_English,3.2.4,Win32,60,,,1,0,340,57,1,339,ratioX0_18_18_1.png,,,,,,,,,,,,
,,,,,,,,,,,,None,More than half,Half,Some,Many,All,Less than half,Most,Few,0.480324074,-0.00462963,1,0,0,QQQ2,,,,,,,,English,2020-07-02_11h09.42.662,Experiment_English,3.2.4,Win32,60,,,1,0,340,229,1,339,ratio32_6_10_9.png,,,,,,,,,,,,
,,,,,,,,,,,,Few,Less than half,More than half,Most,Many,Half,Some,None,All,-0.493055556,-0.002314815,1,0,0,QQQ8,,,,,,,,English,2020-07-02_11h09.42.662,Experiment_English,3.2.4,Win32,60,,,1,0,340,69,1,339,ratio0Y_0_11_6.png,,,,,,,,,,,,
,,,,,,,,,,,,Less than half,Most,All,Many,Some,More than half,Half,Few,None,-0.5,0.008101852,1,0,0,QQQ8,,,,,,,,English,2020-07-02_11h09.42.662,Experiment_English,3.2.4,Win32,60,,,1,0,340,120,1,339,ratio15_1_6_1.png,0.322916667,-0.422453704,1,0,0,continue_button_pause,1,0,1,0,1,0
,,,,,,,,,,,,,,,,,,,,,,,,,,,,,,,,,,English,2020-07-02_11h09.42.662,Experiment_English,3.2.4,Win32,60,,,1,0,340,120,1,339,ratio15_1_6_1.png,,,,,,,,,,,,
,,,,,,,,,,,,Half,All,None,Most,Less than half,Few,More than half,Some,Many,0.506944444,-0.293981481,1,0,0,QQQ3,,,,,,,,English,2020-07-02_11h09.42.662,Experiment_English,3.2.4,Win32,60,,,1,0,340,68,1,339,ratio0Y_0_11_3.png,,,,,,,,,,,,
,,,,,,,,,,,,All,None,Some,Most,Many,More than half,Few,Less than half,Half,-0.517361111,-0.006944444,1,0,0,QQQ8,,,,,,,,English,2020-07-02_11h09.42.662,Experiment_English,3.2.4,Win32,60,,,1,0,340,257,1,339,ratio34_6_14_12.png,,,,,,,,,,,,
,,,,,,,,,,,,Few,All,Some,Many,More than half,Most,None,Half,Less than half,-0.493055556,-0.319444444,1,0,0,QQQ9,,,,,,,,English,2020-07-02_11h09.42.662,Experiment_English,3.2.4,Win32,60,,,1,0,340,7,1,339,ratio12_3_9_2.png,,,,,,,,,,,,
,,,,,,,,,,,,Few,Half,Many,More than half,Most,All,Less than half,Some,None,0.518518519,0.275462963,1,0,0,QQQ1,,,,,,,,English,2020-07-02_11h09.42.662,Experiment_English,3.2.4,Win32,60,,,1,0,340,104,1,339,ratio14_1_5_10.png,,,,,,,,,,,,
,,,,,,,,,,,,Some,None,Few,Many,Most,Half,More than half,All,Less than half,-0.50462963,0.300925926,1,0,0,QQQ7,,,,,,,,English,2020-07-02_11h09.42.662,Experiment_English,3.2.4,Win32,60,,,1,0,340,287,1,339,ratio43_4_7_17.png,,,,,,,,,,,,
,,,,,,,,,,,,Many,Few,None,Some,All,Most,Half,Less than half,More than half,-0.49537037,0.303240741,1,0,0,QQQ7,,,,,,,,English,2020-07-02_11h09.42.662,Experiment_English,3.2.4,Win32,60,,,1,0,340,30,1,339,ratio11_6_12_6.png,,,,,,,,,,,,
,,,,,,,,,,,,Few,None,Less than half,All,Half,Most,Some,Many,More than half,0.541666667,-0.309027778,1,0,0,QQQ3,,,,,,,,English,2020-07-02_11h09.42.662,Experiment_English,3.2.4,Win32,60,,,1,0,340,135,1,339,ratio15_3_18_7.png,,,,,,,,,,,,
,,,,,,,,,,,,More than half,Many,All,Most,Half,Less than half,None,Few,Some,0.520833333,0.28587963,1,0,0,QQQ1,,,,,,,,English,2020-07-02_11h09.42.662,Experiment_English,3.2.4,Win32,60,,,1,0,340,175,1,339,ratio21_10_15_2.png,,,,,,,,,,,,
,,,,,,,,,,,,Some,Few,More than half,Most,Less than half,Half,None,Many,All,-0.00462963,0.298611111,1,0,0,QQQ4,,,,,,,,English,2020-07-02_11h09.42.662,Experiment_English,3.2.4,Win32,60,,,1,0,340,336,1,339,ratio91_18_20_12.png,,,,,,,,,,,,
,,,,,,,,,,,,All,Less than half,Some,Half,Most,More than half,Many,Few,None,-0.516203704,0.298611111,1,0,0,QQQ7,,,,,,,,English,2020-07-02_11h09.42.662,Experiment_English,3.2.4,Win32,60,,,1,0,340,274,1,339,ratio41_12_15_9.png,,,,,,,,,,,,
,,,,,,,,,,,,Most,All,Many,Half,Some,Few,More than half,None,Less than half,-0.517361111,-0.314814815,1,0,0,QQQ9,,,,,,,,English,2020-07-02_11h09.42.662,Experiment_English,3.2.4,Win32,60,,,1,0,340,15,1,339,ratio12_5_15_5.png,,,,,,,,,,,,
,,,,,,,,,,,,Some,Half,Most,More than half,None,Few,Many,Less than half,All,-0.494212963,-0.314814815,1,0,0,QQQ9,,,,,,,,English,2020-07-02_11h09.42.662,Experiment_English,3.2.4,Win32,60,,,1,0,340,53,1,339,ratioX0_14_14_8.png,,,,,,,,,,,,
,,,,,,,,,,,,More than half,Half,None,Less than half,Many,All,Some,Most,Few,-0.512731481,-0.31712963,1,0,0,QQQ9,,,,,,,,English,2020-07-02_11h09.42.662,Experiment_English,3.2.4,Win32,60,,,1,0,340,141,1,339,ratio19_1_10_2.png,,,,,,,,,,,,
,,,,,,,,,,,,All,Less than half,Half,Most,Some,Few,None,Many,More than half,-0.47337963,0.006944444,1,0,0,QQQ8,,,,,,,,English,2020-07-02_11h09.42.662,Experiment_English,3.2.4,Win32,60,,,1,0,340,210,1,339,ratio31_9_12_9.png,,,,,,,,,,,,
,,,,,,,,,,,,Some,Many,All,None,Few,More than half,Less than half,Most,Half,0.025462963,-0.319444444,1,0,0,QQQ6,,,,,,,,English,2020-07-02_11h09.42.662,Experiment_English,3.2.4,Win32,60,,,1,0,340,225,1,339,ratio32_6_10_4.png,,,,,,,,,,,,
,,,,,,,,,,,,Half,None,Some,Less than half,All,More than half,Most,Many,Few,-0.012731481,0.298611111,1,0,0,QQQ4,,,,,,,,English,2020-07-02_11h09.42.662,Experiment_English,3.2.4,Win32,60,,,1,0,340,192,1,339,ratio23_6_15_8.png,,,,,,,,,,,,
,,,,,,,,,,,,Many,More than half,Half,None,Most,Few,Less than half,All,Some,0.009259259,-0.310185185,1,0,0,QQQ6,,,,,,,,English,2020-07-02_11h09.42.662,Experiment_English,3.2.4,Win32,60,,,1,0,340,122,1,339,ratio15_1_6_7.png,,,,,,,,,,,,
,,,,,,,,,,,,All,More than half,Less than half,Some,Half,Many,Few,Most,None,-0.460648148,0.287037037,1,0,0,QQQ7,,,,,,,,English,2020-07-02_11h09.42.662,Experiment_English,3.2.4,Win32,60,,,1,0,340,1,1,339,ratio12_1_3_7.png,,,,,,,,,,,,
,,,,,,,,,,,,Less than half,Many,All,Most,None,Few,More than half,Some,Half,-0.483796296,-0.299768519,1,0,0,QQQ9,,,,,,,,English,2020-07-02_11h09.42.662,Experiment_English,3.2.4,Win32,60,,,1,0,340,297,1,339,ratio43_8_14_13.png,,,,,,,,,,,,
,,,,,,,,,,,,Many,Few,Less than half,Half,More than half,Most,Some,None,All,0.016203704,-0.021990741,1,0,0,QQQ5,,,,,,,,English,2020-07-02_11h09.42.662,Experiment_English,3.2.4,Win32,60,,,1,0,340,33,1,339,ratio11_7_14_8.png,,,,,,,,,,,,
,,,,,,,,,,,,Less than half,Many,Some,Few,More than half,Most,All,None,Half,0.001157407,0.003472222,1,0,0,QQQ5,,,,,,,,English,2020-07-02_11h09.42.662,Experiment_English,3.2.4,Win32,60,,,1,0,340,177,1,339,ratio21_12_18_1.png,,,,,,,,,,,,
,,,,,,,,,,,,Some,None,Half,More than half,All,Most,Many,Few,Less than half,0.013888889,-0.303240741,1,0,0,QQQ6,,,,,,,,English,2020-07-02_11h09.42.662,Experiment_English,3.2.4,Win32,60,,,1,0,340,267,1,339,ratio41_8_10_4.png,,,,,,,,,,,,
,,,,,,,,,,,,Many,None,Some,All,More than half,Half,Most,Less than half,Few,0.49537037,-0.293981481,1,0,0,QQQ3,,,,,,,,English,2020-07-02_11h09.42.662,Experiment_English,3.2.4,Win32,60,,,1,0,340,98,1,339,ratio13_5_20_3.png,,,,,,,,,,,,
,,,,,,,,,,,,All,Some,Many,Few,None,Most,More than half,Less than half,Half,-0.516203704,0.313657407,1,0,0,QQQ7,,,,,,,,English,2020-07-02_11h09.42.662,Experiment_English,3.2.4,Win32,60,,,1,0,340,286,1,339,ratio43_4_7_15.png,,,,,,,,,,,,
,,,,,,,,,,,,More than half,Few,Half,Most,Some,Many,Less than half,None,All,0.005787037,0.30787037,1,0,0,QQQ4,,,,,,,,English,2020-07-02_11h09.42.662,Experiment_English,3.2.4,Win32,60,,,1,0,340,262,1,339,ratio41_4_5_4.png,,,,,,,,,,,,
,,,,,,,,,,,,Many,Half,Few,Some,None,All,Less than half,More than half,Most,-0.474537037,-0.299768519,1,0,0,QQQ9,,,,,,,,English,2020-07-02_11h09.42.662,Experiment_English,3.2.4,Win32,60,,,1,0,340,334,1,339,ratio91_18_20_9.png,,,,,,,,,,,,
,,,,,,,,,,,,More than half,Less than half,Some,Many,All,Half,Most,Few,None,-0.475694444,-0.016203704,1,0,0,QQQ8,,,,,,,,English,2020-07-02_11h09.42.662,Experiment_English,3.2.4,Win32,60,,,1,0,340,86,1,339,ratio13_2_8_6.png,,,,,,,,,,,,
,,,,,,,,,,,,More than half,Half,Few,None,Some,Most,Less than half,Many,All,0.047453704,-0.299768519,1,0,0,QQQ6,,,,,,,,English,2020-07-02_11h09.42.662,Experiment_English,3.2.4,Win32,60,,,1,0,340,309,1,339,ratio51_10_12_10.png,,,,,,,,,,,,
,,,,,,,,,,,,More than half,Some,Many,Few,None,Half,Most,Less than half,All,0.023148148,-0.291666667,1,0,0,QQQ6,,,,,,,,English,2020-07-02_11h09.42.662,Experiment_English,3.2.4,Win32,60,,,1,0,340,237,1,339,ratio32_12_20_5.png,,,,,,,,,,,,
,,,,,,,,,,,,Less than half,Some,Few,All,None,More than half,Many,Half,Most,-0.516203704,-0.009259259,1,0,0,QQQ8,,,,,,,,English,2020-07-02_11h09.42.662,Experiment_English,3.2.4,Win32,60,,,1,0,340,197,1,339,ratio23_8_20_6.png,,,,,,,,,,,,
,,,,,,,,,,,,Some,More than half,Half,Less than half,Most,Few,Many,None,All,0.487268519,-0.287037037,1,0,0,QQQ3,,,,,,,,English,2020-07-02_11h09.42.662,Experiment_English,3.2.4,Win32,60,,,1,0,340,38,1,339,ratio11_10_20_5.png,,,,,,,,,,,,
,,,,,,,,,,,,All,Half,Some,Many,More than half,Less than half,Few,None,Most,0.013888889,-0.009259259,1,0,0,QQQ5,,,,,,,,English,2020-07-02_11h09.42.662,Experiment_English,3.2.4,Win32,60,,,1,0,340,168,1,339,ratio21_6_9_3.png,,,,,,,,,,,,
,,,,,,,,,,,,None,More than half,Many,Few,Half,Some,All,Less than half,Most,-0.493055556,-0.31712963,1,0,0,QQQ9,,,,,,,,English,2020-07-02_11h09.42.662,Experiment_English,3.2.4,Win32,60,,,1,0,340,260,1,339,ratio41_4_5_2.png,,,,,,,,,,,,
,,,,,,,,,,,,More than half,All,Some,Most,Few,None,Half,Less than half,Many,0.011574074,-0.001157407,1,0,0,QQQ5,,,,,,,,English,2020-07-02_11h09.42.662,Experiment_English,3.2.4,Win32,60,,,1,0,340,82,1,339,ratio13_1_4_7.png,0.298611111,-0.385416667,1,0,0,continue_button_pause,1,0,1,0,1,0
,,,,,,,,,,,,,,,,,,,,,,,,,,,,,,,,,,English,2020-07-02_11h09.42.662,Experiment_English,3.2.4,Win32,60,,,1,0,340,82,1,339,ratio13_1_4_7.png,,,,,,,,,,,,
,,,,,,,,,,,,None,More than half,All,Most,Less than half,Half,Many,Some,Few,-0.525462963,-0.295138889,1,0,0,QQQ9,,,,,,,,English,2020-07-02_11h09.42.662,Experiment_English,3.2.4,Win32,60,,,1,0,340,81,1,339,ratio13_1_4_5.png,,,,,,,,,,,,
,,,,,,,,,,,,Most,All,Half,None,Many,More than half,Less than half,Some,Few,-0.012731481,0.303240741,1,0,0,QQQ4,,,,,,,,English,2020-07-02_11h09.42.662,Experiment_English,3.2.4,Win32,60,,,1,0,340,61,1,339,ratio0Y_0_4_7.png,,,,,,,,,,,,
,,,,,,,,,,,,More than half,All,Few,None,Some,Most,Less than half,Many,Half,0.435185185,0.303240741,1,0,0,QQQ1,,,,,,,,English,2020-07-02_11h09.42.662,Experiment_English,3.2.4,Win32,60,,,1,0,340,222,1,339,ratio32_3_5_4.png,,,,,,,,,,,,
,,,,,,,,,,,,Half,Few,Less than half,More than half,None,Some,All,Most,Many,-0.055555556,0.300925926,1,0,0,QQQ4,,,,,,,,English,2020-07-02_11h09.42.662,Experiment_English,3.2.4,Win32,60,,,1,0,340,291,1,339,ratio43_8_14_5.png,,,,,,,,,,,,
,,,,,,,,,,,,None,Half,Some,Most,All,Few,Many,More than half,Less than half,-0.021990741,0.292824074,1,0,0,QQQ4,,,,,,,,English,2020-07-02_11h09.42.662,Experiment_English,3.2.4,Win32,60,,,1,0,340,313,1,339,ratio51_15_18_2.png,,,,,,,,,,,,
,,,,,,,,,,,,All,Half,Many,Few,Some,More than half,None,Most,Less than half,0.534722222,0.011574074,1,0,0,QQQ2,,,,,,,,English,2020-07-02_11h09.42.662,Experiment_English,3.2.4,Win32,60,,,1,0,340,299,1,339,ratio43_8_14_17.png,,,,,,,,,,,,
,,,,,,,,,,,,None,More than half,Half,Most,Many,Few,Some,All,Less than half,0.008101852,-0.306712963,1,0,0,QQQ6,,,,,,,,English,2020-07-02_11h09.42.662,Experiment_English,3.2.4,Win32,60,,,1,0,340,80,1,339,ratio13_1_4_3.png,,,,,,,,,,,,
,,,,,,,,,,,,Some,All,Many,Less than half,More than half,Few,Half,None,Most,-0.521990741,-0.306712963,1,0,0,QQQ9,,,,,,,,English,2020-07-02_11h09.42.662,Experiment_English,3.2.4,Win32,60,,,1,0,340,272,1,339,ratio41_12_15_7.png,,,,,,,,,,,,
,,,,,,,,,,,,None,Less than half,More than half,Some,All,Few,Half,Many,Most,-0.472222222,0.310185185,1,0,0,QQQ7,,,,,,,,English,2020-07-02_11h09.42.662,Experiment_English,3.2.4,Win32,60,,,1,0,340,190,1,339,ratio23_6_15_3.png,,,,,,,,,,,,
,,,,,,,,,,,,Many,Half,All,None,More than half,Less than half,Most,Some,Few,-0.009259259,-0.310185185,1,0,0,QQQ6,,,,,,,,English,2020-07-02_11h09.42.662,Experiment_English,3.2.4,Win32,60,,,1,0,340,248,1,339,ratio34_3_7_19.png,,,,,,,,,,,,
,,,,,,,,,,,,Many,Less than half,All,Half,Some,Most,More than half,None,Few,0.490740741,0.320601852,1,0,0,QQQ1,,,,,,,,English,2020-07-02_11h09.42.662,Experiment_English,3.2.4,Win32,60,,,1,0,340,178,1,339,ratio21_12_18_2.png,,,,,,,,,,,,
,,,,,,,,,,,,Most,More than half,Less than half,Few,Half,Some,None,All,Many,0.486111111,0.006944444,1,0,0,QQQ2,,,,,,,,English,2020-07-02_11h09.42.662,Experiment_English,3.2.4,Win32,60,,,1,0,340,239,1,339,ratio32_12_20_10.png,,,,,,,,,,,,
,,,,,,,,,,,,Half,Less than half,More than half,All,Many,Most,Some,None,Few,-0.487268519,-0.295138889,1,0,0,QQQ9,,,,,,,,English,2020-07-02_11h09.42.662,Experiment_English,3.2.4,Win32,60,,,1,0,340,5,1,339,ratio12_2_6_9.png,,,,,,,,,,,,
,,,,,,,,,,,,Many,Less than half,Few,More than half,Half,None,Most,Some,All,0.05787037,0.303240741,1,0,0,QQQ4,,,,,,,,English,2020-07-02_11h09.42.662,Experiment_English,3.2.4,Win32,60,,,1,0,340,292,1,339,ratio43_8_14_6.png,,,,,,,,,,,,
,,,,,,,,,,,,Some,More than half,Half,None,Few,Many,All,Less than half,Most,0.023148148,-0.006944444,1,0,0,QQQ5,,,,,,,,English,2020-07-02_11h09.42.662,Experiment_English,3.2.4,Win32,60,,,1,0,340,129,1,339,ratio15_2_12_9.png,,,,,,,,,,,,
,,,,,,,,,,,,Most,More than half,Some,Less than half,Many,Few,None,All,Half,-0.466435185,0.298611111,1,0,0,QQQ7,,,,,,,,English,2020-07-02_11h09.42.662,Experiment_English,3.2.4,Win32,60,,,1,0,340,71,1,339,ratio0Y_0_12_10.png,,,,,,,,,,,,
,,,,,,,,,,,,Less than half,Many,Half,Most,None,More than half,Some,All,Few,-0.454861111,0.305555556,1,0,0,QQQ7,,,,,,,,English,2020-07-02_11h09.42.662,Experiment_English,3.2.4,Win32,60,,,1,0,340,119,1,339,ratio14_4_20_10.png,,,,,,,,,,,,
,,,,,,,,,,,,More than half,Less than half,None,Many,Some,All,Half,Few,Most,-0.484953704,-0.291666667,1,0,0,QQQ9,,,,,,,,English,2020-07-02_11h09.42.662,Experiment_English,3.2.4,Win32,60,,,1,0,340,306,1,339,ratio51_5_6_18.png,,,,,,,,,,,,
,,,,,,,,,,,,Less than half,None,Few,Most,More than half,Some,All,Half,Many,-0.021990741,0.303240741,1,0,0,QQQ4,,,,,,,,English,2020-07-02_11h09.42.662,Experiment_English,3.2.4,Win32,60,,,1,0,340,266,1,339,ratio41_8_10_2.png,,,,,,,,,,,,
,,,,,,,,,,,,More than half,Less than half,Most,Many,Few,Some,None,All,Half,0.039351852,-0.006944444,1,0,0,QQQ5,,,,,,,,English,2020-07-02_11h09.42.662,Experiment_English,3.2.4,Win32,60,,,1,0,340,111,1,339,ratio14_3_15_3.png,,,,,,,,,,,,
,,,,,,,,,,,,Half,None,All,Some,Most,More than half,Few,Many,Less than half,-0.46875,-0.3125,1,0,0,QQQ9,,,,,,,,English,2020-07-02_11h09.42.662,Experiment_English,3.2.4,Win32,60,,,1,0,340,258,1,339,ratio34_6_14_14.png,,,,,,,,,,,,
,,,,,,,,,,,,More than half,Many,All,Half,Few,None,Some,Less than half,Most,0.506944444,-0.001157407,1,0,0,QQQ2,,,,,,,,English,2020-07-02_11h09.42.662,Experiment_English,3.2.4,Win32,60,,,1,0,340,310,1,339,ratio51_10_12_12.png,,,,,,,,,,,,
,,,,,,,,,,,,Less than half,Half,Most,More than half,None,All,Few,Many,Some,-0.488425926,0.322916667,1,0,0,QQQ7,,,,,,,,English,2020-07-02_11h09.42.662,Experiment_English,3.2.4,Win32,60,,,1,0,340,157,1,339,ratio19_2_20_16.png,,,,,,,,,,,,
,,,,,,,,,,,,Some,More than half,All,Less than half,Most,Many,None,Few,Half,0.5,-0.002314815,1,0,0,QQQ2,,,,,,,,English,2020-07-02_11h09.42.662,Experiment_English,3.2.4,Win32,60,,,1,0,340,163,1,339,ratio21_4_6_1.png,,,,,,,,,,,,
,,,,,,,,,,,,Few,None,All,Many,Less than half,Some,More than half,Most,Half,-0.486111111,-0.011574074,1,0,0,QQQ8,,,,,,,,English,2020-07-02_11h09.42.662,Experiment_English,3.2.4,Win32,60,,,1,0,340,215,1,339,ratio31_12_16_8.png,,,,,,,,,,,,
,,,,,,,,,,,,All,None,Many,Few,Less than half,Half,More than half,Most,Some,-0.530092593,0.293981481,1,0,0,QQQ7,,,,,,,,English,2020-07-02_11h09.42.662,Experiment_English,3.2.4,Win32,60,,,1,0,340,296,1,339,ratio43_8_14_12.png,,,,,,,,,,,,
,,,,,,,,,,,,Half,Some,Few,Less than half,Most,Many,All,More than half,None,0.510416667,-0.293981481,1,0,0,QQQ3,,,,,,,,English,2020-07-02_11h09.42.662,Experiment_English,3.2.4,Win32,60,,,1,0,340,100,1,339,ratio14_1_5_3.png,,,,,,,,,,,,
,,,,,,,,,,,,Many,Less than half,Half,Few,None,More than half,All,Most,Some,-0.483796296,0.009259259,1,0,0,QQQ8,,,,,,,,English,2020-07-02_11h09.42.662,Experiment_English,3.2.4,Win32,60,,,1,0,340,305,1,339,ratio51_5_6_14.png,,,,,,,,,,,,
,,,,,,,,,,,,More than half,All,Most,Half,Few,Many,Some,Less than half,None,0.511574074,-0.292824074,1,0,0,QQQ3,,,,,,,,English,2020-07-02_11h09.42.662,Experiment_English,3.2.4,Win32,60,,,1,0,340,304,1,339,ratio51_5_6_13.png,,,,,,,,,,,,
,,,,,,,,,,,,Many,Less than half,Some,Few,All,Half,None,Most,More than half,0.516203704,0.298611111,1,0,0,QQQ1,,,,,,,,English,2020-07-02_11h09.42.662,Experiment_English,3.2.4,Win32,60,,,1,0,340,216,1,339,ratio31_15_20_3.png,,,,,,,,,,,,
,,,,,,,,,,,,Most,Some,More than half,Half,None,Few,Many,All,Less than half,0.515046296,0.311342593,1,0,0,QQQ1,,,,,,,,English,2020-07-02_11h09.42.662,Experiment_English,3.2.4,Win32,60,,,1,0,340,200,1,339,ratio31_3_4_4.png,,,,,,,,,,,,
,,,,,,,,,,,,Some,All,Half,More than half,Many,Few,None,Most,Less than half,-0.50462963,0.300925926,1,0,0,QQQ7,,,,,,,,English,2020-07-02_11h09.42.662,Experiment_English,3.2.4,Win32,60,,,1,0,340,67,1,339,ratio0Y_0_10_10.png,,,,,,,,,,,,
,,,,,,,,,,,,More than half,None,Less than half,Many,Some,Half,Most,All,Few,-0.496527778,0.297453704,1,0,0,QQQ7,,,,,,,,English,2020-07-02_11h09.42.662,Experiment_English,3.2.4,Win32,60,,,1,0,340,213,1,339,ratio31_12_16_2.png,,,,,,,,,,,,
,,,,,,,,,,,,More than half,All,Less than half,Few,Many,Most,None,Some,Half,0.445601852,-0.296296296,1,0,0,QQQ3,,,,,,,,English,2020-07-02_11h09.42.662,Experiment_English,3.2.4,Win32,60,,,1,0,340,10,1,339,ratio12_4_12_4.png,0.275462963,-0.402777778,1,0,0,continue_button_pause,1,0,1,0,1,0
,,,,,,,,,,,,,,,,,,,,,,,,,,,,,,,,,,English,2020-07-02_11h09.42.662,Experiment_English,3.2.4,Win32,60,,,1,0,340,10,1,339,ratio12_4_12_4.png,,,,,,,,,,,,
,,,,,,,,,,,,Few,None,Less than half,Many,Most,More than half,All,Some,Half,0.003472222,0.006944444,1,0,0,QQQ5,,,,,,,,English,2020-07-02_11h09.42.662,Experiment_English,3.2.4,Win32,60,,,1,0,340,171,1,339,ratio21_8_12_4.png,,,,,,,,,,,,
,,,,,,,,,,,,Most,All,Half,Few,Less than half,Many,Some,None,More than half,0.494212963,-0.297453704,1,0,0,QQQ3,,,,,,,,English,2020-07-02_11h09.42.662,Experiment_English,3.2.4,Win32,60,,,1,0,340,22,1,339,ratio11_3_6_6.png,,,,,,,,,,,,
,,,,,,,,,,,,Some,Half,More than half,Less than half,Few,All,Most,None,Many,0.565972222,-0.302083333,1,0,0,QQQ3,,,,,,,,English,2020-07-02_11h09.42.662,Experiment_English,3.2.4,Win32,60,,,1,0,340,314,1,339,ratio51_15_18_4.png,,,,,,,,,,,,
,,,,,,,,,,,,Half,Most,Some,Few,None,Many,All,More than half,Less than half,-0.001157407,0.296296296,1,0,0,QQQ4,,,,,,,,English,2020-07-02_11h09.42.662,Experiment_English,3.2.4,Win32,60,,,1,0,340,125,1,339,ratio15_1_6_19.png,,,,,,,,,,,,
,,,,,,,,,,,,All,None,Few,Half,Many,Some,More than half,Most,Less than half,-0.481481481,-0.28587963,1,0,0,QQQ9,,,,,,,,English,2020-07-02_11h09.42.662,Experiment_English,3.2.4,Win32,60,,,1,0,340,288,1,339,ratio43_4_7_18.png,,,,,,,,,,,,
,,,,,,,,,,,,Most,Many,Less than half,All,Half,None,More than half,Few,Some,-0.519675926,0.290509259,1,0,0,QQQ7,,,,,,,,English,2020-07-02_11h09.42.662,Experiment_English,3.2.4,Win32,60,,,1,0,340,167,1,339,ratio21_6_9_2.png,,,,,,,,,,,,
,,,,,,,,,,,,Few,Less than half,Half,All,Many,Some,Most,None,More than half,-0.478009259,-0.310185185,1,0,0,QQQ9,,,,,,,,English,2020-07-02_11h09.42.662,Experiment_English,3.2.4,Win32,60,,,1,0,340,221,1,339,ratio32_3_5_3.png,,,,,,,,,,,,
,,,,,,,,,,,,Most,All,More than half,Few,None,Less than half,Half,Some,Many,0.010416667,-0.31712963,1,0,0,QQQ6,,,,,,,,English,2020-07-02_11h09.42.662,Experiment_English,3.2.4,Win32,60,,,1,0,340,194,1,339,ratio23_6_15_10.png,,,,,,,,,,,,
,,,,,,,,,,,,More than half,None,Few,All,Most,Some,Many,Half,Less than half,-0.475694444,-0.30787037,1,0,0,QQQ9,,,,,,,,English,2020-07-02_11h09.42.662,Experiment_English,3.2.4,Win32,60,,,1,0,340,243,1,339,ratio34_3_7_8.png,,,,,,,,,,,,
,,,,,,,,,,,,Some,Few,All,Half,Most,Many,None,Less than half,More than half,0.002314815,0.306712963,1,0,0,QQQ4,,,,,,,,English,2020-07-02_11h09.42.662,Experiment_English,3.2.4,Win32,60,,,1,0,340,21,1,339,ratio11_2_4_10.png,,,,,,,,,,,,
,,,,,,,,,,,,Less than half,Few,All,Many,Half,None,Some,More than half,Most,0.512731481,0.00462963,1,0,0,QQQ2,,,,,,,,English,2020-07-02_11h09.42.662,Experiment_English,3.2.4,Win32,60,,,1,0,340,102,1,339,ratio14_1_5_8.png,,,,,,,,,,,,
,,,,,,,,,,,,Many,Few,None,All,Half,More than half,Less than half,Most,Some,0.486111111,0.311342593,1,0,0,QQQ1,,,,,,,,English,2020-07-02_11h09.42.662,Experiment_English,3.2.4,Win32,60,,,1,0,340,279,1,339,ratio41_16_20_10.png,,,,,,,,,,,,
,,,,,,,,,,,,Half,Many,None,All,Most,Few,Some,Less than half,More than half,0.497685185,0,1,0,0,QQQ2,,,,,,,,English,2020-07-02_11h09.42.662,Experiment_English,3.2.4,Win32,60,,,1,0,340,218,1,339,ratio31_15_20_7.png,,,,,,,,,,,,
,,,,,,,,,,,,Many,More than half,Most,Few,All,None,Some,Less than half,Half,0.513888889,0.295138889,1,0,0,QQQ1,,,,,,,,English,2020-07-02_11h09.42.662,Experiment_English,3.2.4,Win32,60,,,1,0,340,34,1,339,ratio11_8_16_8.png,,,,,,,,,,,,
,,,,,,,,,,,,Some,More than half,Few,Less than half,All,Half,Most,Many,None,-0.501157407,-0.310185185,1,0,0,QQQ9,,,,,,,,English,2020-07-02_11h09.42.662,Experiment_English,3.2.4,Win32,60,,,1,0,340,65,1,339,ratio0Y_0_8_4.png,,,,,,,,,,,,
,,,,,,,,,,,,Most,Few,Many,None,More than half,Half,Less than half,All,Some,0.506944444,0.296296296,1,0,0,QQQ1,,,,,,,,English,2020-07-02_11h09.42.662,Experiment_English,3.2.4,Win32,60,,,1,0,340,315,1,339,ratio51_15_18_10.png,,,,,,,,,,,,
,,,,,,,,,,,,More than half,Most,All,Some,Few,None,Less than half,Half,Many,0.494212963,0.295138889,1,0,0,QQQ1,,,,,,,,English,2020-07-02_11h09.42.662,Experiment_English,3.2.4,Win32,60,,,1,0,340,203,1,339,ratio31_3_4_9.png,,,,,,,,,,,,
,,,,,,,,,,,,More than half,Some,All,Less than half,Few,None,Half,Most,Many,0.013888889,0.309027778,1,0,0,QQQ4,,,,,,,,English,2020-07-02_11h09.42.662,Experiment_English,3.2.4,Win32,60,,,1,0,340,193,1,339,ratio23_6_15_9.png,,,,,,,,,,,,
,,,,,,,,,,,,None,Most,Half,Some,Less than half,More than half,Many,All,Few,0.493055556,0.291666667,1,0,0,QQQ1,,,,,,,,English,2020-07-02_11h09.42.662,Experiment_English,3.2.4,Win32,60,,,1,0,340,62,1,339,ratio0Y_0_5_4.png,,,,,,,,,,,,
,,,,,,,,,,,,Few,More than half,Less than half,Many,Some,Most,Half,None,All,-0.490740741,0.290509259,1,0,0,QQQ7,,,,,,,,English,2020-07-02_11h09.42.662,Experiment_English,3.2.4,Win32,60,,,1,0,340,245,1,339,ratio34_3_7_10.png,,,,,,,,,,,,
,,,,,,,,,,,,Some,More than half,None,Few,All,Less than half,Most,Half,Many,-0.018518519,0.298611111,1,0,0,QQQ4,,,,,,,,English,2020-07-02_11h09.42.662,Experiment_English,3.2.4,Win32,60,,,1,0,340,151,1,339,ratio19_2_20_4.png,,,,,,,,,,,,
,,,,,,,,,,,,Many,Most,Some,All,Few,More than half,None,Less than half,Half,0.515046296,-0.302083333,1,0,0,QQQ3,,,,,,,,English,2020-07-02_11h09.42.662,Experiment_English,3.2.4,Win32,60,,,1,0,340,118,1,339,ratio14_4_20_8.png,,,,,,,,,,,,
,,,,,,,,,,,,Half,Less than half,All,Many,Some,Few,None,More than half,Most,0.015046296,-0.303240741,1,0,0,QQQ6,,,,,,,,English,2020-07-02_11h09.42.662,Experiment_English,3.2.4,Win32,60,,,1,0,340,2,1,339,ratio12_1_3_10.png,,,,,,,,,,,,
,,,,,,,,,,,,Few,None,Half,Some,Many,Most,Less than half,More than half,All,0.013888889,-0.300925926,1,0,0,QQQ6,,,,,,,,English,2020-07-02_11h09.42.662,Experiment_English,3.2.4,Win32,60,,,1,0,340,162,1,339,ratio21_2_3_9.png,,,,,,,,,,,,
,,,,,,,,,,,,Most,More than half,Less than half,Some,None,All,Few,Half,Many,-0.461805556,0.293981481,1,0,0,QQQ7,,,,,,,,English,2020-07-02_11h09.42.662,Experiment_English,3.2.4,Win32,60,,,1,0,340,121,1,339,ratio15_1_6_4.png,,,,,,,,,,,,
,,,,,,,,,,,,Most,Few,None,Half,Many,More than half,Some,Less than half,All,-0.079861111,0.296296296,1,0,0,QQQ4,,,,,,,,English,2020-07-02_11h09.42.662,Experiment_English,3.2.4,Win32,60,,,1,0,340,289,1,339,ratio43_4_7_20.png,,,,,,,,,,,,
,,,,,,,,,,,,All,Most,More than half,None,Some,Many,Less than half,Few,Half,0.525462963,-0.305555556,1,0,0,QQQ3,,,,,,,,English,2020-07-02_11h09.42.662,Experiment_English,3.2.4,Win32,60,,,1,0,340,281,1,339,ratio43_4_7_4.png,,,,,,,,,,,,
,,,,,,,,,,,,All,Less than half,Half,Most,Some,None,Few,More than half,Many,-0.516203704,0.005787037,1,0,0,QQQ8,,,,,,,,English,2020-07-02_11h09.42.662,Experiment_English,3.2.4,Win32,60,,,1,0,340,224,1,339,ratio32_3_5_10.png,,,,,,,,,,,,
,,,,,,,,,,,,Half,Some,More than half,Most,None,Less than half,Many,All,Few,-0.496527778,-0.289351852,1,0,0,QQQ9,,,,,,,,English,2020-07-02_11h09.42.662,Experiment_English,3.2.4,Win32,60,,,1,0,340,149,1,339,ratio19_1_10_20.png,,,,,,,,,,,,
,,,,,,,,,,,,Some,Many,More than half,All,Most,Less than half,Half,None,Few,-0.5,-0.305555556,1,0,0,QQQ9,,,,,,,,English,2020-07-02_11h09.42.662,Experiment_English,3.2.4,Win32,60,,,1,0,340,87,1,339,ratio13_2_8_8.png,,,,,,,,,,,,
,,,,,,,,,,,,Few,Most,Some,All,Less than half,More than half,Half,None,Many,0.046296296,0.013888889,1,0,0,QQQ5,,,,,,,,English,2020-07-02_11h09.42.662,Experiment_English,3.2.4,Win32,60,,,1,0,340,240,1,339,ratio34_3_7_4.png,,,,,,,,,,,,
,,,,,,,,,,,,All,Half,Most,Some,Few,None,Less than half,Many,More than half,0.028935185,-0.298611111,1,0,0,QQQ6,,,,,,,,English,2020-07-02_11h09.42.662,Experiment_English,3.2.4,Win32,60,,,1,0,340,60,1,339,ratio0Y_0_3_5.png,,,,,,,,,,,,
,,,,,,,,,,,,Few,Many,All,Less than half,More than half,Half,Some,None,Most,-0.483796296,0.295138889,1,0,0,QQQ7,,,,,,,,English,2020-07-02_11h09.42.662,Experiment_English,3.2.4,Win32,60,,,1,0,340,12,1,339,ratio12_4_12_10.png,,,,,,,,,,,,
,,,,,,,,,,,,Most,More than half,Less than half,Many,All,Some,Few,None,Half,0.481481481,0.310185185,1,0,0,QQQ1,,,,,,,,English,2020-07-02_11h09.42.662,Experiment_English,3.2.4,Win32,60,,,1,0,340,312,1,339,ratio51_10_12_16.png,0.331018519,-0.386574074,1,0,0,continue_button_pause,1,0,1,0,1,0
,,,,,,,,,,,,,,,,,,,,,,,,,,,,,,,,,,English,2020-07-02_11h09.42.662,Experiment_English,3.2.4,Win32,60,,,1,0,340,312,1,339,ratio51_10_12_16.png,,,,,,,,,,,,
,,,,,,,,,,,,More than half,All,Less than half,None,Most,Few,Some,Half,Many,0.100694444,-0.028935185,1,0,0,QQQ5,,,,,,,,English,2020-07-02_11h09.42.662,Experiment_English,3.2.4,Win32,60,,,1,0,340,338,1,339,ratio91_18_20_18.png,,,,,,,,,,,,
,,,,,,,,,,,,All,Half,None,Few,Some,Most,More than half,Many,Less than half,-0.590277778,0.282407407,1,0,0,QQQ7,,,,,,,,English,2020-07-02_11h09.42.662,Experiment_English,3.2.4,Win32,60,,,1,0,340,27,1,339,ratio11_5_10_7.png,,,,,,,,,,,,
,,,,,,,,,,,,More than half,Few,All,None,Some,Many,Half,Most,Less than half,-0.018518519,0.300925926,1,0,0,QQQ4,,,,,,,,English,2020-07-02_11h09.42.662,Experiment_English,3.2.4,Win32,60,,,1,0,340,73,1,339,ratio0Y_0_14_7.png,,,,,,,,,,,,
,,,,,,,,,,,,Less than half,Most,Some,More than half,Few,None,Many,All,Half,0,0.30787037,1,0,0,QQQ4,,,,,,,,English,2020-07-02_11h09.42.662,Experiment_English,3.2.4,Win32,60,,,1,0,340,28,1,339,ratio11_5_10_9.png,,,,,,,,,,,,
,,,,,,,,,,,,Half,Some,Less than half,Few,Most,All,None,Many,More than half,-0.550925926,0.027777778,1,0,0,QQQ8,,,,,,,,English,2020-07-02_11h09.42.662,Experiment_English,3.2.4,Win32,60,,,1,0,340,219,1,339,ratio31_15_20_10.png,,,,,,,,,,,,
,,,,,,,,,,,,Most,Less than half,All,Many,Some,Few,Half,None,More than half,0.027777778,-0.292824074,1,0,0,QQQ6,,,,,,,,English,2020-07-02_11h09.42.662,Experiment_English,3.2.4,Win32,60,,,1,0,340,109,1,339,ratio14_2_10_9.png,,,,,,,,,,,,
,,,,,,,,,,,,More than half,Few,None,All,Half,Less than half,Some,Most,Many,0.487268519,-0.020833333,1,0,0,QQQ2,,,,,,,,English,2020-07-02_11h09.42.662,Experiment_English,3.2.4,Win32,60,,,1,0,340,143,1,339,ratio19_1_10_9.png,,,,,,,,,,,,
,,,,,,,,,,,,More than half,Most,None,Half,All,Some,Less than half,Many,Few,0.516203704,0,1,0,0,QQQ2,,,,,,,,English,2020-07-02_11h09.42.662,Experiment_English,3.2.4,Win32,60,,,1,0,340,214,1,339,ratio31_12_16_5.png,,,,,,,,,,,,
,,,,,,,,,,,,More than half,None,Few,All,Many,Some,Less than half,Half,Most,0.523148148,-0.284722222,1,0,0,QQQ3,,,,,,,,English,2020-07-02_11h09.42.662,Experiment_English,3.2.4,Win32,60,,,1,0,340,160,1,339,ratio21_2_3_2.png,,,,,,,,,,,,
,,,,,,,,,,,,Few,More than half,Most,Half,Some,All,None,Less than half,Many,-0.565972222,0.016203704,1,0,0,QQQ8,,,,,,,,English,2020-07-02_11h09.42.662,Experiment_English,3.2.4,Win32,60,,,1,0,340,185,1,339,ratio23_4_10_1.png,,,,,,,,,,,,
,,,,,,,,,,,,Many,Less than half,More than half,Some,All,None,Few,Half,Most,-0.528935185,-0.303240741,1,0,0,QQQ9,,,,,,,,English,2020-07-02_11h09.42.662,Experiment_English,3.2.4,Win32,60,,,1,0,340,316,1,339,ratio51_15_18_11.png,,,,,,,,,,,,
,,,,,,,,,,,,All,Half,Many,Most,More than half,Few,Some,Less than half,None,-0.008101852,0.012731481,1,0,0,QQQ5,,,,,,,,English,2020-07-02_11h09.42.662,Experiment_English,3.2.4,Win32,60,,,1,0,340,295,1,339,ratio43_8_14_11.png,,,,,,,,,,,,
,,,,,,,,,,,,Many,Most,Less than half,More than half,Half,Some,All,None,Few,0.496527778,-0.017361111,1,0,0,QQQ2,,,,,,,,English,2020-07-02_11h09.42.662,Experiment_English,3.2.4,Win32,60,,,1,0,340,261,1,339,ratio41_4_5_3.png,,,,,,,,,,,,
,,,,,,,,,,,,None,More than half,Some,Half,All,Few,Many,Less than half,Most,-0.607638889,-0.008101852,1,0,0,QQQ8,,,,,,,,English,2020-07-02_11h09.42.662,Experiment_English,3.2.4,Win32,60,,,1,0,340,246,1,339,ratio34_3_7_11.png,,,,,,,,,,,,
,,,,,,,,,,,,Few,Many,More than half,Less than half,All,None,Some,Most,Half,0.488425926,0.311342593,1,0,0,QQQ1,,,,,,,,English,2020-07-02_11h09.42.662,Experiment_English,3.2.4,Win32,60,,,1,0,340,85,1,339,ratio13_2_8_5.png,,,,,,,,,,,,
,,,,,,,,,,,,Half,Few,Many,More than half,Most,Some,Less than half,All,None,0.493055556,-0.005787037,1,0,0,QQQ2,,,,,,,,English,2020-07-02_11h09.42.662,Experiment_English,3.2.4,Win32,60,,,1,0,340,150,1,339,ratio19_2_20_1.png,,,,,,,,,,,,
,,,,,,,,,,,,None,All,Many,Half,Less than half,Few,Most,More than half,Some,-0.009259259,-0.306712963,1,0,0,QQQ6,,,,,,,,English,2020-07-02_11h09.42.662,Experiment_English,3.2.4,Win32,60,,,1,0,340,108,1,339,ratio14_2_10_6.png,,,,,,,,,,,,
,,,,,,,,,,,,Less than half,Many,Some,More than half,Most,None,All,Few,Half,-0.482638889,0.288194444,1,0,0,QQQ7,,,,,,,,English,2020-07-02_11h09.42.662,Experiment_English,3.2.4,Win32,60,,,1,0,340,55,1,339,ratioX0_16_16_3.png,,,,,,,,,,,,
,,,,,,,,,,,,All,Few,Less than half,Some,More than half,Most,Half,Many,None,0.50462963,-0.292824074,1,0,0,QQQ3,,,,,,,,English,2020-07-02_11h09.42.662,Experiment_English,3.2.4,Win32,60,,,1,0,340,9,1,339,ratio12_3_9_5.png,,,,,,,,,,,,
,,,,,,,,,,,,Few,Many,All,More than half,Half,Most,Less than half,None,Some,0.472222222,-0.296296296,1,0,0,QQQ3,,,,,,,,English,2020-07-02_11h09.42.662,Experiment_English,3.2.4,Win32,60,,,1,0,340,58,1,339,ratioX0_19_19_4.png,,,,,,,,,,,,
,,,,,,,,,,,,Few,Less than half,Many,Some,Half,All,Most,None,More than half,-0.489583333,0.283564815,1,0,0,QQQ7,,,,,,,,English,2020-07-02_11h09.42.662,Experiment_English,3.2.4,Win32,60,,,1,0,340,335,1,339,ratio91_18_20_11.png,,,,,,,,,,,,
,,,,,,,,,,,,More than half,Most,Some,None,Many,All,Half,Few,Less than half,0.481481481,0.310185185,1,0,0,QQQ1,,,,,,,,English,2020-07-02_11h09.42.662,Experiment_English,3.2.4,Win32,60,,,1,0,340,220,1,339,ratio32_3_5_1.png,,,,,,,,,,,,
,,,,,,,,,,,,Few,More than half,Some,Most,Many,Half,All,Less than half,None,0.556712963,0.318287037,1,0,0,QQQ1,,,,,,,,English,2020-07-02_11h09.42.662,Experiment_English,3.2.4,Win32,60,,,1,0,340,142,1,339,ratio19_1_10_6.png,,,,,,,,,,,,
,,,,,,,,,,,,All,Some,More than half,Less than half,Most,Few,Half,None,Many,0.540509259,-0.328703704,1,0,0,QQQ3,,,,,,,,English,2020-07-02_11h09.42.662,Experiment_English,3.2.4,Win32,60,,,1,0,340,244,1,339,ratio34_3_7_9.png,,,,,,,,,,,,
,,,,,,,,,,,,Some,Half,Less than half,Few,All,More than half,Most,None,Many,0.506944444,-0.314814815,1,0,0,QQQ3,,,,,,,,English,2020-07-02_11h09.42.662,Experiment_English,3.2.4,Win32,60,,,1,0,340,253,1,339,ratio34_6_14_5.png,,,,,,,,,,,,
,,,,,,,,,,,,All,More than half,Some,Half,Many,None,Few,Most,Less than half,0.467592593,0.283564815,1,0,0,QQQ1,,,,,,,,English,2020-07-02_11h09.42.662,Experiment_English,3.2.4,Win32,60,,,1,0,340,40,1,339,ratioX0_3_3_5.png,,,,,,,,,,,,
,,,,,,,,,,,,Few,All,Some,Most,Half,None,More than half,Less than half,Many,-0.50462963,-0.012731481,1,0,0,QQQ8,,,,,,,,English,2020-07-02_11h09.42.662,Experiment_English,3.2.4,Win32,60,,,1,0,340,88,1,339,ratio13_3_12_5.png,,,,,,,,,,,,
,,,,,,,,,,,,Less than half,All,Few,More than half,Some,Half,Most,None,Many,0.5,-0.30787037,1,0,0,QQQ3,,,,,,,,English,2020-07-02_11h09.42.662,Experiment_English,3.2.4,Win32,60,,,1,0,340,158,1,339,ratio19_2_20_17.png,,,,,,,,,,,,
,,,,,,,,,,,,Less than half,Some,Few,Many,Most,Half,More than half,All,None,0.50462963,-0.305555556,1,0,0,QQQ3,,,,,,,,English,2020-07-02_11h09.42.662,Experiment_English,3.2.4,Win32,60,,,1,0,340,144,1,339,ratio19_1_10_11.png,,,,,,,,,,,,
,,,,,,,,,,,,More than half,All,Many,Less than half,Most,None,Some,Few,Half,-0.496527778,0,1,0,0,QQQ8,,,,,,,,English,2020-07-02_11h09.42.662,Experiment_English,3.2.4,Win32,60,,,1,0,340,112,1,339,ratio14_3_15_4.png,,,,,,,,,,,,
,,,,,,,,,,,,Many,Half,Some,Most,Few,All,Less than half,More than half,None,-0.469907407,0.30787037,1,0,0,QQQ7,,,,,,,,English,2020-07-02_11h09.42.662,Experiment_English,3.2.4,Win32,60,,,1,0,340,19,1,339,ratio12_6_18_9.png,,,,,,,,,,,,
,,,,,,,,,,,,Most,None,Some,Few,All,Less than half,Many,Half,More than half,-0.010416667,-0.300925926,1,0,0,QQQ6,,,,,,,,English,2020-07-02_11h09.42.662,Experiment_English,3.2.4,Win32,60,,,1,0,340,6,1,339,ratio12_3_9_1.png,,,,,,,,,,,,
,,,,,,,,,,,,Many,All,None,Less than half,Some,Most,Half,Few,More than half,0.502314815,-0.292824074,1,0,0,QQQ3,,,,,,,,English,2020-07-02_11h09.42.662,Experiment_English,3.2.4,Win32,60,,,1,0,340,63,1,339,ratio0Y_0_6_8.png,,,,,,,,,,,,
,,,,,,,,,,,,None,Less than half,Half,Most,All,Some,Many,More than half,Few,-0.469907407,0.003472222,1,0,0,QQQ8,,,,,,,,English,2020-07-02_11h09.42.662,Experiment_English,3.2.4,Win32,60,,,1,0,340,161,1,339,ratio21_2_3_8.png,0.303240741,-0.384259259,1,0,0,continue_button_pause,1,0,1,0,1,0
,,,,,,,,,,,,,,,,,,,,,,,,,,,,,,,,,,English,2020-07-02_11h09.42.662,Experiment_English,3.2.4,Win32,60,,,1,0,340,161,1,339,ratio21_2_3_8.png,,,,,,,,,,,,
,,,,,,,,,,,,Few,None,Some,More than half,Most,Less than half,Many,All,Half,0.525462963,-0.005787037,1,0,0,QQQ2,,,,,,,,English,2020-07-02_11h09.42.662,Experiment_English,3.2.4,Win32,60,,,1,0,340,79,1,339,ratio0Y_0_20_4.png,,,,,,,,,,,,
,,,,,,,,,,,,Some,All,None,Many,Few,Most,Half,More than half,Less than half,-0.50462963,-0.260416667,1,0,0,QQQ9,,,,,,,,English,2020-07-02_11h09.42.662,Experiment_English,3.2.4,Win32,60,,,1,0,340,196,1,339,ratio23_8_20_5.png,,,,,,,,,,,,
,,,,,,,,,,,,Less than half,All,More than half,Some,Half,Few,Many,None,Most,0.009259259,-0.299768519,1,0,0,QQQ6,,,,,,,,English,2020-07-02_11h09.42.662,Experiment_English,3.2.4,Win32,60,,,1,0,340,3,1,339,ratio12_2_6_3.png,,,,,,,,,,,,
,,,,,,,,,,,,None,More than half,Half,All,Less than half,Many,Some,Few,Most,-0.449074074,-0.304398148,1,0,0,QQQ9,,,,,,,,English,2020-07-02_11h09.42.662,Experiment_English,3.2.4,Win32,60,,,1,0,340,303,1,339,ratio51_5_6_6.png,,,,,,,,,,,,
,,,,,,,,,,,,Most,Some,All,Less than half,Half,More than half,Few,None,Many,-0.055555556,0.310185185,1,0,0,QQQ4,,,,,,,,English,2020-07-02_11h09.42.662,Experiment_English,3.2.4,Win32,60,,,1,0,340,191,1,339,ratio23_6_15_7.png,,,,,,,,,,,,
,,,,,,,,,,,,Some,Few,None,Many,More than half,All,Most,Less than half,Half,-0.027777778,-0.009259259,1,0,0,QQQ5,,,,,,,,English,2020-07-02_11h09.42.662,Experiment_English,3.2.4,Win32,60,,,1,0,340,238,1,339,ratio32_12_20_9.png,,,,,,,,,,,,
,,,,,,,,,,,,Half,Less than half,Many,Some,None,Most,Few,More than half,All,0.5,-0.002314815,1,0,0,QQQ2,,,,,,,,English,2020-07-02_11h09.42.662,Experiment_English,3.2.4,Win32,60,,,1,0,340,17,1,339,ratio12_6_18_5.png,,,,,,,,,,,,
,,,,,,,,,,,,None,Many,Half,Most,Few,Some,All,More than half,Less than half,-0.482638889,-0.027777778,1,0,0,QQQ8,,,,,,,,English,2020-07-02_11h09.42.662,Experiment_English,3.2.4,Win32,60,,,1,0,340,283,1,339,ratio43_4_7_8.png,,,,,,,,,,,,
,,,,,,,,,,,,Few,Many,All,Less than half,None,More than half,Most,Half,Some,0.010416667,-0.010416667,1,0,0,QQQ5,,,,,,,,English,2020-07-02_11h09.42.662,Experiment_English,3.2.4,Win32,60,,,1,0,340,64,1,339,ratio0Y_0_7_1.png,,,,,,,,,,,,
,,,,,,,,,,,,Some,Few,All,Less than half,None,Many,More than half,Half,Most,-0.002314815,-0.314814815,1,0,0,QQQ6,,,,,,,,English,2020-07-02_11h09.42.662,Experiment_English,3.2.4,Win32,60,,,1,0,340,275,1,339,ratio41_16_20_2.png,,,,,,,,,,,,
,,,,,,,,,,,,Less than half,None,All,Most,Many,Few,Some,Half,More than half,0.523148148,0.291666667,1,0,0,QQQ1,,,,,,,,English,2020-07-02_11h09.42.662,Experiment_English,3.2.4,Win32,60,,,1,0,340,249,1,339,ratio34_3_7_20.png,,,,,,,,,,,,
,,,,,,,,,,,,None,Many,More than half,All,Half,Some,Most,Few,Less than half,0.490740741,-0.002314815,1,0,0,QQQ2,,,,,,,,English,2020-07-02_11h09.42.662,Experiment_English,3.2.4,Win32,60,,,1,0,340,270,1,339,ratio41_12_15_3.png,,,,,,,,,,,,
,,,,,,,,,,,,All,Most,More than half,Some,Many,Less than half,Half,None,Few,-0.475694444,0.290509259,1,0,0,QQQ7,,,,,,,,English,2020-07-02_11h09.42.662,Experiment_English,3.2.4,Win32,60,,,1,0,340,230,1,339,ratio32_9_15_1.png,,,,,,,,,,,,
,,,,,,,,,,,,Some,Few,Most,Many,All,More than half,Half,None,Less than half,-0.459490741,0.282407407,1,0,0,QQQ7,,,,,,,,English,2020-07-02_11h09.42.662,Experiment_English,3.2.4,Win32,60,,,1,0,340,31,1,339,ratio11_6_12_9.png,,,,,,,,,,,,
,,,,,,,,,,,,Many,All,Half,None,Few,Most,More than half,Some,Less than half,0.03125,0.00462963,1,0,0,QQQ5,,,,,,,,English,2020-07-02_11h09.42.662,Experiment_English,3.2.4,Win32,60,,,1,0,340,159,1,339,ratio19_2_20_20.png,,,,,,,,,,,,
,,,,,,,,,,,,More than half,Few,Most,None,Less than half,Many,All,Half,Some,0.493055556,-0.311342593,1,0,0,QQQ3,,,,,,,,English,2020-07-02_11h09.42.662,Experiment_English,3.2.4,Win32,60,,,1,0,340,323,1,339,ratio91_9_10_5.png,,,,,,,,,,,,
,,,,,,,,,,,,Less than half,Most,More than half,Few,None,All,Some,Many,Half,0.509259259,-0.313657407,1,0,0,QQQ3,,,,,,,,English,2020-07-02_11h09.42.662,Experiment_English,3.2.4,Win32,60,,,1,0,340,179,1,339,ratio21_12_18_8.png,,,,,,,,,,,,
,,,,,,,,,,,,Some,Most,Less than half,All,Half,None,Few,More than half,Many,-0.564814815,-0.005787037,1,0,0,QQQ8,,,,,,,,English,2020-07-02_11h09.42.662,Experiment_English,3.2.4,Win32,60,,,1,0,340,298,1,339,ratio43_8_14_14.png,,,,,,,,,,,,
,,,,,,,,,,,,Less than half,Some,More than half,Half,None,Many,All,Few,Most,-0.515046296,-0.306712963,1,0,0,QQQ9,,,,,,,,English,2020-07-02_11h09.42.662,Experiment_English,3.2.4,Win32,60,,,1,0,340,311,1,339,ratio51_10_12_14.png,,,,,,,,,,,,
,,,,,,,,,,,,More than half,All,Less than half,Many,Half,None,Few,Most,Some,-0.474537037,-0.00462963,1,0,0,QQQ8,,,,,,,,English,2020-07-02_11h09.42.662,Experiment_English,3.2.4,Win32,60,,,1,0,340,263,1,339,ratio41_4_5_5.png,,,,,,,,,,,,
,,,,,,,,,,,,Few,All,Some,More than half,None,Many,Half,Less than half,Most,0.52662037,0.303240741,1,0,0,QQQ1,,,,,,,,English,2020-07-02_11h09.42.662,Experiment_English,3.2.4,Win32,60,,,1,0,340,134,1,339,ratio15_3_18_5.png,,,,,,,,,,,,
,,,,,,,,,,,,Half,Most,Less than half,None,Few,All,Many,More than half,Some,-0.451388889,-0.005787037,1,0,0,QQQ8,,,,,,,,English,2020-07-02_11h09.42.662,Experiment_English,3.2.4,Win32,60,,,1,0,340,293,1,339,ratio43_8_14_7.png,,,,,,,,,,,,
,,,,,,,,,,,,Less than half,Most,More than half,Few,Half,Some,All,None,Many,0.457175926,0.28587963,1,0,0,QQQ1,,,,,,,,English,2020-07-02_11h09.42.662,Experiment_English,3.2.4,Win32,60,,,1,0,340,113,1,339,ratio14_3_15_8.png,,,,,,,,,,,,
,,,,,,,,,,,,Some,All,Many,More than half,Few,Less than half,Most,Half,None,-0.020833333,-0.298611111,1,0,0,QQQ6,,,,,,,,English,2020-07-02_11h09.42.662,Experiment_English,3.2.4,Win32,60,,,1,0,340,8,1,339,ratio12_3_9_4.png,,,,,,,,,,,,
,,,,,,,,,,,,More than half,Many,Few,None,Half,Some,Less than half,Most,All,0.497685185,-0.290509259,1,0,0,QQQ3,,,,,,,,English,2020-07-02_11h09.42.662,Experiment_English,3.2.4,Win32,60,,,1,0,340,181,1,339,ratio23_2_5_6.png,,,,,,,,,,,,
,,,,,,,,,,,,Few,More than half,Many,None,Some,Half,Most,Less than half,All,-0.457175926,0.293981481,1,0,0,QQQ7,,,,,,,,English,2020-07-02_11h09.42.662,Experiment_English,3.2.4,Win32,60,,,1,0,340,320,1,339,ratio91_9_10_1.png,,,,,,,,,,,,
,,,,,,,,,,,,Some,Many,Half,None,Few,All,Less than half,Most,More than half,-0.510416667,0,1,0,0,QQQ8,,,,,,,,English,2020-07-02_11h09.42.662,Experiment_English,3.2.4,Win32,60,,,1,0,340,328,1,339,ratio91_9_10_15.png,,,,,,,,,,,,
,,,,,,,,,,,,All,Half,More than half,Most,Some,None,Many,Few,Less than half,-0.532407407,0.030092593,1,0,0,QQQ8,,,,,,,,English,2020-07-02_11h09.42.662,Experiment_English,3.2.4,Win32,60,,,1,0,340,106,1,339,ratio14_2_10_2.png,,,,,,,,,,,,
,,,,,,,,,,,,None,All,Less than half,More than half,Many,Half,Some,Few,Most,-0.072916667,0.319444444,1,0,0,QQQ4,,,,,,,,English,2020-07-02_11h09.42.662,Experiment_English,3.2.4,Win32,60,,,1,0,340,173,1,339,ratio21_8_12_9.png,,,,,,,,,,,,
,,,,,,,,,,,,More than half,Half,Many,Some,Few,Less than half,All,None,Most,0.519675926,-0.003472222,1,0,0,QQQ2,,,,,,,,English,2020-07-02_11h09.42.662,Experiment_English,3.2.4,Win32,60,,,1,0,340,256,1,339,ratio34_6_14_11.png,,,,,,,,,,,,
,,,,,,,,,,,,All,Less than half,Few,Many,Half,More than half,Most,None,Some,-0.523148148,0.299768519,1,0,0,QQQ7,,,,,,,,English,2020-07-02_11h09.42.662,Experiment_English,3.2.4,Win32,60,,,1,0,340,301,1,339,ratio51_5_6_4.png,,,,,,,,,,,,
,,,,,,,,,,,,Many,Most,More than half,Some,None,Less than half,Half,All,Few,-0.521990741,-0.011574074,1,0,0,QQQ8,,,,,,,,English,2020-07-02_11h09.42.662,Experiment_English,3.2.4,Win32,60,,,1,0,340,51,1,339,ratioX0_12_12_9.png,,,,,,,,,,,,
,,,,,,,,,,,,Many,Half,Some,Less than half,More than half,None,All,Most,Few,-0.50462963,-0.00462963,1,0,0,QQQ8,,,,,,,,English,2020-07-02_11h09.42.662,Experiment_English,3.2.4,Win32,60,,,1,0,340,333,1,339,ratio91_18_20_6.png,,,,,,,,,,,,
,,,,,,,,,,,,Half,Many,Some,Few,Most,Less than half,None,All,More than half,0.006944444,0.293981481,1,0,0,QQQ4,,,,,,,,English,2020-07-02_11h09.42.662,Experiment_English,3.2.4,Win32,60,,,1,0,340,0,1,339,ratio12_1_3_3.png,0.325231481,-0.398148148,1,0,0,continue_button_pause,1,0,1,0,1,0
,,,,,,,,,,,,,,,,,,,,,,,,,,,,,,,,,,English,2020-07-02_11h09.42.662,Experiment_English,3.2.4,Win32,60,,,1,0,340,0,1,339,ratio12_1_3_3.png,,,,,,,,,,,,
,,,,,,,,,,,,Most,Few,Less than half,Some,More than half,All,None,Many,Half,0.001157407,-0.305555556,1,0,0,QQQ6,,,,,,,,English,2020-07-02_11h09.42.662,Experiment_English,3.2.4,Win32,60,,,1,0,340,56,1,339,ratioX0_17_17_10.png,,,,,,,,,,,,
,,,,,,,,,,,,Few,Some,None,All,More than half,Half,Many,Most,Less than half,0.489583333,0.288194444,1,0,0,QQQ1,,,,,,,,English,2020-07-02_11h09.42.662,Experiment_English,3.2.4,Win32,60,,,1,0,340,124,1,339,ratio15_1_6_16.png,,,,,,,,,,,,
,,,,,,,,,,,,Many,Some,Most,Less than half,Half,None,More than half,Few,All,-0.480324074,0.313657407,1,0,0,QQQ7,,,,,,,,English,2020-07-02_11h09.42.662,Experiment_English,3.2.4,Win32,60,,,1,0,340,228,1,339,ratio32_6_10_7.png,,,,,,,,,,,,
,,,,,,,,,,,,Few,Some,Most,More than half,All,None,Half,Less than half,Many,0.511574074,-0.298611111,1,0,0,QQQ3,,,,,,,,English,2020-07-02_11h09.42.662,Experiment_English,3.2.4,Win32,60,,,1,0,340,326,1,339,ratio91_9_10_10.png,,,,,,,,,,,,
,,,,,,,,,,,,More than half,Half,Some,None,All,Many,Less than half,Most,Few,0.511574074,0.306712963,1,0,0,QQQ1,,,,,,,,English,2020-07-02_11h09.42.662,Experiment_English,3.2.4,Win32,60,,,1,0,340,233,1,339,ratio32_9_15_9.png,,,,,,,,,,,,
,,,,,,,,,,,,Half,Many,Some,Few,More than half,Less than half,None,All,Most,-0.018518519,-0.30787037,1,0,0,QQQ6,,,,,,,,English,2020-07-02_11h09.42.662,Experiment_English,3.2.4,Win32,60,,,1,0,340,93,1,339,ratio13_4_16_7.png,,,,,,,,,,,,
,,,,,,,,,,,,Less than half,Many,All,Some,Few,Most,Half,None,More than half,-0.013888889,-0.290509259,1,0,0,QQQ6,,,,,,,,English,2020-07-02_11h09.42.662,Experiment_English,3.2.4,Win32,60,,,1,0,340,264,1,339,ratio41_4_5_6.png,,,,,,,,,,,,
,,,,,,,,,,,,Some,Few,Half,All,None,Many,More than half,Less than half,Most,-0.053240741,0.03587963,1,0,0,QQQ5,,,,,,,,English,2020-07-02_11h09.42.662,Experiment_English,3.2.4,Win32,60,,,1,0,340,70,1,339,ratio0Y_0_12_5.png,,,,,,,,,,,,
,,,,,,,,,,,,More than half,Half,None,Few,Most,Many,Less than half,All,Some,-0.021990741,0.298611111,1,0,0,QQQ4,,,,,,,,English,2020-07-02_11h09.42.662,Experiment_English,3.2.4,Win32,60,,,1,0,340,148,1,339,ratio19_1_10_19.png,,,,,,,,,,,,
,,,,,,,,,,,,Many,Most,All,Some,None,More than half,Half,Less than half,Few,-0.49537037,-0.280092593,1,0,0,QQQ9,,,,,,,,English,2020-07-02_11h09.42.662,Experiment_English,3.2.4,Win32,60,,,1,0,340,84,1,339,ratio13_2_8_1.png,,,,,,,,,,,,
,,,,,,,,,,,,All,More than half,Less than half,Many,None,Most,Half,Few,Some,-0.028935185,-0.00462963,1,0,0,QQQ5,,,,,,,,English,2020-07-02_11h09.42.662,Experiment_English,3.2.4,Win32,60,,,1,0,340,78,1,339,ratio0Y_0_19_1.png,,,,,,,,,,,,
,,,,,,,,,,,,More than half,All,Many,Few,Some,Less than half,Half,None,Most,0.041666667,0.288194444,1,0,0,QQQ4,,,,,,,,English,2020-07-02_11h09.42.662,Experiment_English,3.2.4,Win32,60,,,1,0,340,184,1,339,ratio23_2_5_10.png,,,,,,,,,,,,
,,,,,,,,,,,,Few,All,Less than half,Half,None,Many,Some,More than half,Most,0.530092593,-0.009259259,1,0,0,QQQ2,,,,,,,,English,2020-07-02_11h09.42.662,Experiment_English,3.2.4,Win32,60,,,1,0,340,45,1,339,ratioX0_8_8_3.png,,,,,,,,,,,,
,,,,,,,,,,,,Half,Most,Less than half,More than half,Few,Some,Many,None,All,0.494212963,-0.295138889,1,0,0,QQQ3,,,,,,,,English,2020-07-02_11h09.42.662,Experiment_English,3.2.4,Win32,60,,,1,0,340,36,1,339,ratio11_9_18_1.png,,,,,,,,,,,,
,,,,,,,,,,,,None,Some,More than half,Few,All,Less than half,Most,Half,Many,0.009259259,0.282407407,1,0,0,QQQ4,,,,,,,,English,2020-07-02_11h09.42.662,Experiment_English,3.2.4,Win32,60,,,1,0,340,152,1,339,ratio19_2_20_6.png,,,,,,,,,,,,
,,,,,,,,,,,,Less than half,Some,Many,Most,None,All,More than half,Half,Few,0.493055556,-0.297453704,1,0,0,QQQ3,,,,,,,,English,2020-07-02_11h09.42.662,Experiment_English,3.2.4,Win32,60,,,1,0,340,212,1,339,ratio31_12_16_1.png,,,,,,,,,,,,
,,,,,,,,,,,,Most,Half,More than half,All,Less than half,Some,None,Many,Few,-0.525462963,-0.277777778,1,0,0,QQQ9,,,,,,,,English,2020-07-02_11h09.42.662,Experiment_English,3.2.4,Win32,60,,,1,0,340,126,1,339,ratio15_2_12_1.png,,,,,,,,,,,,
,,,,,,,,,,,,Most,Less than half,All,Some,None,Half,More than half,Many,Few,0.511574074,0.300925926,1,0,0,QQQ1,,,,,,,,English,2020-07-02_11h09.42.662,Experiment_English,3.2.4,Win32,60,,,1,0,340,337,1,339,ratio91_18_20_16.png,,,,,,,,,,,,
,,,,,,,,,,,,None,Some,More than half,Many,Most,All,Few,Half,Less than half,0.546296296,0.046296296,1,0,0,QQQ2,,,,,,,,English,2020-07-02_11h09.42.662,Experiment_English,3.2.4,Win32,60,,,1,0,340,97,1,339,ratio13_5_20_2.png,,,,,,,,,,,,
,,,,,,,,,,,,Most,None,All,Some,Few,More than half,Half,Many,Less than half,0.023148148,-0.003472222,1,0,0,QQQ5,,,,,,,,English,2020-07-02_11h09.42.662,Experiment_English,3.2.4,Win32,60,,,1,0,340,110,1,339,ratio14_3_15_2.png,,,,,,,,,,,,
,,,,,,,,,,,,Many,Some,Less than half,All,More than half,Half,None,Most,Few,-0.512731481,-0.027777778,1,0,0,QQQ8,,,,,,,,English,2020-07-02_11h09.42.662,Experiment_English,3.2.4,Win32,60,,,1,0,340,269,1,339,ratio41_8_10_6.png,,,,,,,,,,,,
,,,,,,,,,,,,All,Some,None,Few,More than half,Less than half,Most,Many,Half,-0.005787037,-0.300925926,1,0,0,QQQ6,,,,,,,,English,2020-07-02_11h09.42.662,Experiment_English,3.2.4,Win32,60,,,1,0,340,18,1,339,ratio12_6_18_7.png,,,,,,,,,,,,
,,,,,,,,,,,,Few,All,Less than half,Most,Half,None,More than half,Some,Many,-0.018518519,0.304398148,1,0,0,QQQ4,,,,,,,,English,2020-07-02_11h09.42.662,Experiment_English,3.2.4,Win32,60,,,1,0,340,325,1,339,ratio91_9_10_8.png,,,,,,,,,,,,
,,,,,,,,,,,,Many,Most,More than half,Some,Half,Less than half,Few,None,All,-0.5,0.336805556,1,0,0,QQQ7,,,,,,,,English,2020-07-02_11h09.42.662,Experiment_English,3.2.4,Win32,60,,,1,0,340,133,1,339,ratio15_3_18_3.png,,,,,,,,,,,,
,,,,,,,,,,,,Many,Less than half,Few,None,All,Most,More than half,Half,Some,0.509259259,0.273148148,1,0,0,QQQ1,,,,,,,,English,2020-07-02_11h09.42.662,Experiment_English,3.2.4,Win32,60,,,1,0,340,232,1,339,ratio32_9_15_8.png,,,,,,,,,,,,
,,,,,,,,,,,,More than half,None,Less than half,Most,Many,Some,All,Half,Few,-0.457175926,0.287037037,1,0,0,QQQ7,,,,,,,,English,2020-07-02_11h09.42.662,Experiment_English,3.2.4,Win32,60,,,1,0,340,52,1,339,ratioX0_13_13_10.png,,,,,,,,,,,,
,,,,,,,,,,,,Many,All,More than half,None,Few,Less than half,Most,Some,Half,-0.09375,-0.311342593,1,0,0,QQQ6,,,,,,,,English,2020-07-02_11h09.42.662,Experiment_English,3.2.4,Win32,60,,,1,0,340,16,1,339,ratio12_5_15_6.png,,,,,,,,,,,,
,,,,,,,,,,,,Some,Half,Few,All,Many,None,Less than half,Most,More than half,0.008101852,-0.013888889,1,0,0,QQQ5,,,,,,,,English,2020-07-02_11h09.42.662,Experiment_English,3.2.4,Win32,60,,,1,0,340,169,1,339,ratio21_6_9_7.png,,,,,,,,,,,,
,,,,,,,,,,,,All,Some,Less than half,More than half,Half,None,Most,Many,Few,-0.011574074,0,1,0,0,QQQ5,,,,,,,,English,2020-07-02_11h09.42.662,Experiment_English,3.2.4,Win32,60,,,1,0,340,282,1,339,ratio43_4_7_7.png,,,,,,,,,,,,
,,,,,,,,,,,,More than half,Less than half,All,Some,Half,Most,Many,Few,None,0.5,0.292824074,1,0,0,QQQ1,,,,,,,,English,2020-07-02_11h09.42.662,Experiment_English,3.2.4,Win32,60,,,1,0,340,227,1,339,ratio32_6_10_6.png,,,,,,,,,,,,
,,,,,,,,,,,,Few,Half,Some,Most,None,More than half,All,Many,Less than half,0.025462963,0.295138889,1,0,0,QQQ4,,,,,,,,English,2020-07-02_11h09.42.662,Experiment_English,3.2.4,Win32,60,,,1,0,340,276,1,339,ratio41_16_20_4.png,,,,,,,,,,,,
,,,,,,,,,,,,Less than half,More than half,Few,Half,Most,Many,All,Some,None,0.46875,0.030092593,1,0,0,QQQ2,,,,,,,,English,2020-07-02_11h09.42.662,Experiment_English,3.2.4,Win32,60,,,1,0,340,284,1,339,ratio43_4_7_11.png,,,,,,,,,,,,
,,,,,,,,,,,,Most,Some,Many,More than half,All,Few,None,Half,Less than half,-0.003472222,0,1,0,0,QQQ5,,,,,,,,English,2020-07-02_11h09.42.662,Experiment_English,3.2.4,Win32,60,,,1,0,340,42,1,339,ratioX0_5_5_5.png,,,,,,,,,,,,
,,,,,,,,,,,,Half,Most,None,Many,Few,Less than half,More than half,Some,All,-0.016203704,0.290509259,1,0,0,QQQ4,,,,,,,,English,2020-07-02_11h09.42.662,Experiment_English,3.2.4,Win32,60,,,1,0,340,278,1,339,ratio41_16_20_9.png,0.344907407,-0.378472222,1,0,0,continue_button_pause,1,0,1,0,1,0
,,,,,,,,,,,,,,,,,,,,,,,,,,,,,,,,,,English,2020-07-02_11h09.42.662,Experiment_English,3.2.4,Win32,60,,,1,0,340,278,1,339,ratio41_16_20_9.png,,,,,,,,,,,,
,,,,,,,,,,,,Most,Half,All,Less than half,Some,Few,More than half,None,Many,0.016203704,-0.287037037,1,0,0,QQQ6,,,,,,,,English,2020-07-02_11h09.42.662,Experiment_English,3.2.4,Win32,60,,,1,0,340,147,1,339,ratio19_1_10_18.png,,,,,,,,,,,,
,,,,,,,,,,,,Half,Some,Most,Many,Less than half,None,All,Few,More than half,-0.594907407,-0.313657407,1,0,0,QQQ9,,,,,,,,English,2020-07-02_11h09.42.662,Experiment_English,3.2.4,Win32,60,,,1,0,340,271,1,339,ratio41_12_15_6.png,,,,,,,,,,,,
,,,,,,,,,,,,Some,Half,Less than half,Many,None,More than half,Few,All,Most,0.050925926,-0.309027778,1,0,0,QQQ6,,,,,,,,English,2020-07-02_11h09.42.662,Experiment_English,3.2.4,Win32,60,,,1,0,340,300,1,339,ratio51_5_6_1.png,,,,,,,,,,,,
,,,,,,,,,,,,Some,Most,None,Less than half,All,More than half,Many,Half,Few,-0.041666667,0.296296296,1,0,0,QQQ4,,,,,,,,English,2020-07-02_11h09.42.662,Experiment_English,3.2.4,Win32,60,,,1,0,340,138,1,339,ratio15_3_18_17.png,,,,,,,,,,,,
,,,,,,,,,,,,More than half,Half,Many,None,Most,Some,Few,All,Less than half,-0.451388889,0.319444444,1,0,0,QQQ7,,,,,,,,English,2020-07-02_11h09.42.662,Experiment_English,3.2.4,Win32,60,,,1,0,340,156,1,339,ratio19_2_20_14.png,,,,,,,,,,,,
,,,,,,,,,,,,Less than half,Few,None,Many,Most,Half,More than half,All,Some,-0.002314815,-0.005787037,1,0,0,QQQ5,,,,,,,,English,2020-07-02_11h09.42.662,Experiment_English,3.2.4,Win32,60,,,1,0,340,265,1,339,ratio41_8_10_1.png,,,,,,,,,,,,
,,,,,,,,,,,,None,Some,Half,More than half,Most,Many,All,Few,Less than half,-0.002314815,-0.002314815,1,0,0,QQQ5,,,,,,,,English,2020-07-02_11h09.42.662,Experiment_English,3.2.4,Win32,60,,,1,0,340,317,1,339,ratio51_15_18_13.png,,,,,,,,,,,,
,,,,,,,,,,,,Many,Half,All,Most,More than half,Less than half,None,Some,Few,-0.474537037,-0.28587963,1,0,0,QQQ9,,,,,,,,English,2020-07-02_11h09.42.662,Experiment_English,3.2.4,Win32,60,,,1,0,340,127,1,339,ratio15_2_12_2.png,,,,,,,,,,,,
,,,,,,,,,,,,Many,Most,Few,None,Half,All,Some,More than half,Less than half,-0.008101852,-0.00462963,1,0,0,QQQ5,,,,,,,,English,2020-07-02_11h09.42.662,Experiment_English,3.2.4,Win32,60,,,1,0,340,285,1,339,ratio43_4_7_14.png,,,,,,,,,,,,
,,,,,,,,,,,,Most,Some,Many,Less than half,All,More than half,None,Few,Half,-0.513888889,0.305555556,1,0,0,QQQ7,,,,,,,,English,2020-07-02_11h09.42.662,Experiment_English,3.2.4,Win32,60,,,1,0,340,66,1,339,ratio0Y_0_9_8.png,,,,,,,,,,,,
,,,,,,,,,,,,Most,More than half,Many,Less than half,Few,Half,Some,All,None,-0.018518519,0,1,0,0,QQQ5,,,,,,,,English,2020-07-02_11h09.42.662,Experiment_English,3.2.4,Win32,60,,,1,0,340,140,1,339,ratio19_1_10_1.png,,,,,,,,,,,,
,,,,,,,,,,,,Few,Some,More than half,Many,Half,All,None,Most,Less than half,-0.482638889,-0.289351852,1,0,0,QQQ9,,,,,,,,English,2020-07-02_11h09.42.662,Experiment_English,3.2.4,Win32,60,,,1,0,340,247,1,339,ratio34_3_7_12.png,,,,,,,,,,,,
,,,,,,,,,,,,Some,Half,Most,Less than half,Few,More than half,None,Many,All,-0.037037037,0.3125,1,0,0,QQQ4,,,,,,,,English,2020-07-02_11h09.42.662,Experiment_English,3.2.4,Win32,60,,,1,0,340,250,1,339,ratio34_6_14_1.png,,,,,,,,,,,,
,,,,,,,,,,,,None,Many,All,Half,More than half,Some,Most,Less than half,Few,-0.005787037,-0.023148148,1,0,0,QQQ5,,,,,,,,English,2020-07-02_11h09.42.662,Experiment_English,3.2.4,Win32,60,,,1,0,340,235,1,339,ratio32_12_20_1.png,,,,,,,,,,,,
,,,,,,,,,,,,Some,Half,Many,Less than half,Most,More than half,None,All,Few,-0.02662037,-0.302083333,1,0,0,QQQ6,,,,,,,,English,2020-07-02_11h09.42.662,Experiment_English,3.2.4,Win32,60,,,1,0,340,176,1,339,ratio21_10_15_3.png,,,,,,,,,,,,
,,,,,,,,,,,,Many,More than half,Some,Half,Few,Less than half,All,None,Most,-0.502314815,0.27662037,1,0,0,QQQ7,,,,,,,,English,2020-07-02_11h09.42.662,Experiment_English,3.2.4,Win32,60,,,1,0,340,49,1,339,ratioX0_11_11_2.png,,,,,,,,,,,,
,,,,,,,,,,,,Few,Less than half,None,Some,More than half,Many,All,Half,Most,-0.065972222,-0.011574074,1,0,0,QQQ5,,,,,,,,English,2020-07-02_11h09.42.662,Experiment_English,3.2.4,Win32,60,,,1,0,340,170,1,339,ratio21_6_9_8.png,,,,,,,,,,,,
,,,,,,,,,,,,Most,Half,All,Many,More than half,Less than half,Few,Some,None,0.50462963,-0.299768519,1,0,0,QQQ3,,,,,,,,English,2020-07-02_11h09.42.662,Experiment_English,3.2.4,Win32,60,,,1,0,340,43,1,339,ratioX0_6_6_9.png,,,,,,,,,,,,
,,,,,,,,,,,,Few,None,Half,More than half,Less than half,Most,Some,Many,All,0.00462963,0.282407407,1,0,0,QQQ4,,,,,,,,English,2020-07-02_11h09.42.662,Experiment_English,3.2.4,Win32,60,,,1,0,340,332,1,339,ratio91_18_20_4.png,,,,,,,,,,,,
,,,,,,,,,,,,All,Most,More than half,Half,Few,Many,Some,Less than half,None,0.540509259,-0.289351852,1,0,0,QQQ3,,,,,,,,English,2020-07-02_11h09.42.662,Experiment_English,3.2.4,Win32,60,,,1,0,340,277,1,339,ratio41_16_20_8.png,,,,,,,,,,,,
,,,,,,,,,,,,All,Most,None,Few,Half,Less than half,More than half,Many,Some,0.020833333,-0.309027778,1,0,0,QQQ6,,,,,,,,English,2020-07-02_11h09.42.662,Experiment_English,3.2.4,Win32,60,,,1,0,340,11,1,339,ratio12_4_12_7.png,,,,,,,,,,,,
,,,,,,,,,,,,Less than half,Half,None,Many,Some,Most,All,More than half,Few,0.458333333,0.303240741,1,0,0,QQQ1,,,,,,,,English,2020-07-02_11h09.42.662,Experiment_English,3.2.4,Win32,60,,,1,0,340,187,1,339,ratio23_4_10_5.png,,,,,,,,,,,,
,,,,,,,,,,,,Half,More than half,Most,Some,Less than half,All,Many,Few,None,0.486111111,-0.005787037,1,0,0,QQQ2,,,,,,,,English,2020-07-02_11h09.42.662,Experiment_English,3.2.4,Win32,60,,,1,0,340,39,1,339,ratio11_10_20_6.png,,,,,,,,,,,,
,,,,,,,,,,,,Half,Few,Most,More than half,Less than half,All,Some,Many,None,0.047453704,-0.032407407,1,0,0,QQQ5,,,,,,,,English,2020-07-02_11h09.42.662,Experiment_English,3.2.4,Win32,60,,,1,0,340,136,1,339,ratio15_3_18_8.png,,,,,,,,,,,,
,,,,,,,,,,,,Less than half,More than half,None,Few,Half,Some,All,Most,Many,0.016203704,0.304398148,1,0,0,QQQ4,,,,,,,,English,2020-07-02_11h09.42.662,Experiment_English,3.2.4,Win32,60,,,1,0,340,105,1,339,ratio14_2_10_1.png,,,,,,,,,,,,
,,,,,,,,,,,,Some,Few,None,Many,More than half,Half,Less than half,Most,All,0,0.003472222,1,0,0,QQQ5,,,,,,,,English,2020-07-02_11h09.42.662,Experiment_English,3.2.4,Win32,60,,,1,0,340,172,1,339,ratio21_8_12_6.png,,,,,,,,,,,,
,,,,,,,,,,,,Many,Half,All,Few,Less than half,None,Most,More than half,Some,-0.414351852,-0.016203704,1,0,0,QQQ8,,,,,,,,English,2020-07-02_11h09.42.662,Experiment_English,3.2.4,Win32,60,,,1,0,340,290,1,339,ratio43_8_14_3.png,,,,,,,,,,,,
,,,,,,,,,,,,Many,Less than half,All,None,Half,Few,Some,More than half,Most,0.458333333,0.002314815,1,0,0,QQQ2,,,,,,,,English,2020-07-02_11h09.42.662,Experiment_English,3.2.4,Win32,60,,,1,0,340,199,1,339,ratio23_8_20_8.png,,,,,,,,,,,,
,,,,,,,,,,,,Few,Most,None,All,Less than half,Some,Many,More than half,Half,0.121527778,-0.001157407,1,0,0,QQQ5,,,,,,,,English,2020-07-02_11h09.42.662,Experiment_English,3.2.4,Win32,60,,,1,0,340,234,1,339,ratio32_9_15_10.png,,,,,,,,,,,,
,,,,,,,,,,,,Few,Most,Less than half,All,Some,Many,None,More than half,Half,-0.508101852,-0.325231481,1,0,0,QQQ9,,,,,,,,English,2020-07-02_11h09.42.662,Experiment_English,3.2.4,Win32,60,,,1,0,340,24,1,339,ratio11_4_8_3.png,,,,,,,,,,,,
,,,,,,,,,,,,All,None,Less than half,Few,Many,Some,More than half,Half,Most,0.497685185,0.297453704,1,0,0,QQQ1,,,,,,,,English,2020-07-02_11h09.42.662,Experiment_English,3.2.4,Win32,60,,,1,0,340,47,1,339,ratioX0_9_9_4.png,,,,,,,,,,,,
,,,,,,,,,,,,None,Less than half,All,Most,Many,Some,Few,More than half,Half,0.523148148,0.293981481,1,0,0,QQQ1,,,,,,,,English,2020-07-02_11h09.42.662,Experiment_English,3.2.4,Win32,60,,,1,0,340,77,1,339,ratio0Y_0_18_3.png,,,,,,,,,,,,
,,,,,,,,,,,,Less than half,None,Few,Half,Most,All,Some,Many,More than half,0.513888889,-0.023148148,1,0,0,QQQ2,,,,,,,,English,2020-07-02_11h09.42.662,Experiment_English,3.2.4,Win32,60,,,1,0,340,72,1,339,ratio0Y_0_13_4.png,,,,,,,,,,,,
,,,,,,,,,,,,Most,Half,Many,Less than half,Some,Few,More than half,None,All,-0.480324074,0.013888889,1,0,0,QQQ8,,,,,,,,English,2020-07-02_11h09.42.662,Experiment_English,3.2.4,Win32,60,,,1,0,340,76,1,339,ratio0Y_0_17_10.png,,,,,,,,,,,,
