continue_mouse.x,continue_mouse.y,continue_mouse.leftButton,continue_mouse.midButton,continue_mouse.rightButton,continue_mouse.clicked_name,continue_mouse_2.x,continue_mouse_2.y,continue_mouse_2.leftButton,continue_mouse_2.midButton,continue_mouse_2.rightButton,continue_mouse_2.clicked_name,Q1,Q2,Q3,Q4,Q5,Q6,Q7,Q8,Q9,select_answer.x,select_answer.y,select_answer.leftButton,select_answer.midButton,select_answer.rightButton,select_answer.clicked_name,trial.thisRepN,trial.thisTrialN,trial.thisN,trial.thisIndex,trial.ran,trial.order,trials,Native tongue*,date,expName,psychopyVersion,OS,frameRate,key_resp.keys,key_resp.rt,Actual_Experiment.thisRepN,Actual_Experiment.thisTrialN,Actual_Experiment.thisN,Actual_Experiment.thisIndex,Actual_Experiment.ran,Actual_Experiment.order,Pic,mouse_pause.x,mouse_pause.y,mouse_pause.leftButton,mouse_pause.midButton,mouse_pause.rightButton,mouse_pause.clicked_name,pause.thisRepN,pause.thisTrialN,pause.thisN,pause.thisIndex,pause.ran,pause.order
0.388652344,-0.412177734,1,0,0,continue_button,0.33953125,-0.430678711,1,0,0,continue_button_2,Half,Many,More than half,None,Less than half,Most,Few,All,Some,-0.403466797,0.303291016,1,0,0,QQQ7,1,0,16,11,1,15,ratio14_1_5_7.png,English,2020-07-02_11h01.21.475,Experiment_English,3.2.4,MacIntel,60,,,,,,,,,,,,,,,,,,,,,
,,,,,,,,,,,,Less than half,Many,Most,All,None,Few,Some,More than half,Half,0.492739258,-0.288081055,1,0,0,QQQ3,1,0,16,1,1,15,ratio51_5_6_8.png,English,2020-07-02_11h01.21.475,Experiment_English,3.2.4,MacIntel,60,,,,,,,,,,,,,,,,,,,,,
,,,,,,,,,,,,Half,None,More than half,Few,Most,Less than half,Many,All,Some,0.565688477,0.3171875,1,0,0,QQQ1,1,0,16,6,1,15,ratio31_12_16_7.png,English,2020-07-02_11h01.21.475,Experiment_English,3.2.4,MacIntel,60,,,,,,,,,,,,,,,,,,,,,
,,,,,,,,,,,,None,Half,Many,All,Some,Less than half,More than half,Few,Most,-0.451176758,0.01887207,1,0,0,QQQ8,1,0,16,9,1,15,ratio19_1_10_8.png,English,2020-07-02_11h01.21.475,Experiment_English,3.2.4,MacIntel,60,,,,,,,,,,,,,,,,,,,,,
,,,,,,,,,,,,Most,Many,Half,Less than half,None,Some,All,More than half,Few,0.406772461,-0.279604492,1,0,0,QQQ3,1,0,16,2,1,15,ratio43_8_14_19.png,English,2020-07-02_11h01.21.475,Experiment_English,3.2.4,MacIntel,60,,,,,,,,,,,,,,,,,,,,,
,,,,,,,,,,,,Many,Some,All,Few,Half,Most,None,Less than half,More than half,-0.449111328,-0.012592773,1,0,0,QQQ8,,,,,,,,English,2020-07-02_11h01.21.475,Experiment_English,3.2.4,MacIntel,60,b,14.46600008,1,0,340,155,1,339,ratio19_2_20_13.png,,,,,,,,,,,,
,,,,,,,,,,,,Some,More than half,Half,Less than half,Many,Most,Few,None,All,0.482592773,-0.009658203,1,0,0,QQQ2,,,,,,,,English,2020-07-02_11h01.21.475,Experiment_English,3.2.4,MacIntel,60,,,1,0,340,167,1,339,ratio21_6_9_2.png,,,,,,,,,,,,
,,,,,,,,,,,,Few,Most,Half,Many,More than half,All,None,Less than half,Some,0.110615234,-0.009169922,1,0,0,QQQ5,,,,,,,,English,2020-07-02_11h01.21.475,Experiment_English,3.2.4,MacIntel,60,,,1,0,340,279,1,339,ratio41_16_20_10.png,,,,,,,,,,,,
,,,,,,,,,,,,All,Many,Half,Most,Less than half,More than half,None,Few,Some,-0.409599609,-0.267539062,1,0,0,QQQ9,,,,,,,,English,2020-07-02_11h01.21.475,Experiment_English,3.2.4,MacIntel,60,,,1,0,340,190,1,339,ratio23_6_15_3.png,,,,,,,,,,,,
,,,,,,,,,,,,None,Half,All,More than half,Less than half,Many,Most,Some,Few,-0.027470703,0.00125,1,0,0,QQQ5,,,,,,,,English,2020-07-02_11h01.21.475,Experiment_English,3.2.4,MacIntel,60,,,1,0,340,17,1,339,ratio12_6_18_5.png,,,,,,,,,,,,
,,,,,,,,,,,,Most,None,More than half,Some,Many,Half,Less than half,Few,All,-0.071225586,0.26027832,1,0,0,QQQ4,,,,,,,,English,2020-07-02_11h01.21.475,Experiment_English,3.2.4,MacIntel,60,,,1,0,340,153,1,339,ratio19_2_20_8.png,,,,,,,,,,,,
,,,,,,,,,,,,Most,More than half,Many,Half,Less than half,Some,Few,All,None,-0.025629883,-0.305961914,1,0,0,QQQ6,,,,,,,,English,2020-07-02_11h01.21.475,Experiment_English,3.2.4,MacIntel,60,,,1,0,340,108,1,339,ratio14_2_10_6.png,,,,,,,,,,,,
,,,,,,,,,,,,Less than half,All,Some,Few,None,Many,More than half,Most,Half,-0.435927734,0.052001953,1,0,0,QQQ8,,,,,,,,English,2020-07-02_11h01.21.475,Experiment_English,3.2.4,MacIntel,60,,,1,0,340,339,1,339,ratio91_18_20_19.png,,,,,,,,,,,,
,,,,,,,,,,,,More than half,Most,Few,Less than half,Some,Many,All,Half,None,-0.454399414,-0.323344727,1,0,0,QQQ9,,,,,,,,English,2020-07-02_11h01.21.475,Experiment_English,3.2.4,MacIntel,60,,,1,0,340,73,1,339,ratio0Y_0_14_7.png,,,,,,,,,,,,
,,,,,,,,,,,,Few,Some,Most,Many,Less than half,More than half,None,All,Half,-0.008007812,0.266132812,1,0,0,QQQ4,,,,,,,,English,2020-07-02_11h01.21.475,Experiment_English,3.2.4,MacIntel,60,,,1,0,340,267,1,339,ratio41_8_10_4.png,,,,,,,,,,,,
,,,,,,,,,,,,Less than half,Some,More than half,Most,Half,Few,Many,None,All,-0.428349609,-0.286645508,1,0,0,QQQ9,,,,,,,,English,2020-07-02_11h01.21.475,Experiment_English,3.2.4,MacIntel,60,,,1,0,340,41,1,339,ratioX0_4_4_9.png,,,,,,,,,,,,
,,,,,,,,,,,,Few,Some,More than half,All,Half,Most,Less than half,Many,None,0.420180664,0.009448242,1,0,0,QQQ2,,,,,,,,English,2020-07-02_11h01.21.475,Experiment_English,3.2.4,MacIntel,60,,,1,0,340,7,1,339,ratio12_3_9_2.png,,,,,,,,,,,,
,,,,,,,,,,,,Half,All,Less than half,More than half,Most,Many,Few,Some,None,0.568349609,-0.025673828,1,0,0,QQQ2,,,,,,,,English,2020-07-02_11h01.21.475,Experiment_English,3.2.4,MacIntel,60,,,1,0,340,59,1,339,ratioX0_20_20_9.png,,,,,,,,,,,,
,,,,,,,,,,,,Many,Some,More than half,Most,Less than half,All,Few,None,Half,0.544360352,-0.03043457,1,0,0,QQQ2,,,,,,,,English,2020-07-02_11h01.21.475,Experiment_English,3.2.4,MacIntel,60,,,1,0,340,307,1,339,ratio51_10_12_1.png,,,,,,,,,,,,
,,,,,,,,,,,,Many,More than half,Most,All,Half,Some,Few,Less than half,None,0.465991211,-0.309516602,1,0,0,QQQ3,,,,,,,,English,2020-07-02_11h01.21.475,Experiment_English,3.2.4,MacIntel,60,,,1,0,340,314,1,339,ratio51_15_18_4.png,,,,,,,,,,,,
,,,,,,,,,,,,Some,Most,Many,Less than half,None,More than half,Few,Half,All,0.568852539,0.334780273,1,0,0,QQQ1,,,,,,,,English,2020-07-02_11h01.21.475,Experiment_English,3.2.4,MacIntel,60,,,1,0,340,119,1,339,ratio14_4_20_10.png,,,,,,,,,,,,
,,,,,,,,,,,,More than half,Few,Most,Half,Some,Many,None,All,Less than half,0.064755859,0.076411133,1,0,0,QQQ5,,,,,,,,English,2020-07-02_11h01.21.475,Experiment_English,3.2.4,MacIntel,60,,,1,0,340,244,1,339,ratio34_3_7_9.png,,,,,,,,,,,,
,,,,,,,,,,,,Most,Less than half,Many,Half,More than half,All,None,Few,Some,-0.429755859,-0.274121094,1,0,0,QQQ9,,,,,,,,English,2020-07-02_11h01.21.475,Experiment_English,3.2.4,MacIntel,60,,,1,0,340,84,1,339,ratio13_2_8_1.png,,,,,,,,,,,,
,,,,,,,,,,,,Half,None,Few,Some,Most,Many,More than half,Less than half,All,-0.482651367,-0.007924805,1,0,0,QQQ8,,,,,,,,English,2020-07-02_11h01.21.475,Experiment_English,3.2.4,MacIntel,60,,,1,0,340,112,1,339,ratio14_3_15_4.png,,,,,,,,,,,,
,,,,,,,,,,,,Less than half,Half,None,Few,Some,Most,More than half,Many,All,0.106166992,-0.266518555,1,0,0,QQQ6,,,,,,,,English,2020-07-02_11h01.21.475,Experiment_English,3.2.4,MacIntel,60,,,1,0,340,229,1,339,ratio32_6_10_9.png,,,,,,,,,,,,
,,,,,,,,,,,,Some,Many,Few,Less than half,Most,Half,All,None,More than half,0.456162109,-0.353203125,1,0,0,QQQ3,,,,,,,,English,2020-07-02_11h01.21.475,Experiment_English,3.2.4,MacIntel,60,,,1,0,340,106,1,339,ratio14_2_10_2.png,,,,,,,,,,,,
,,,,,,,,,,,,Few,More than half,Some,Most,Many,All,None,Half,Less than half,0.46440918,0.252338867,1,0,0,QQQ1,,,,,,,,English,2020-07-02_11h01.21.475,Experiment_English,3.2.4,MacIntel,60,,,1,0,340,9,1,339,ratio12_3_9_5.png,,,,,,,,,,,,
,,,,,,,,,,,,More than half,All,None,Most,Few,Less than half,Many,Some,Half,0.431025391,-0.398364258,1,0,0,QQQ3,,,,,,,,English,2020-07-02_11h01.21.475,Experiment_English,3.2.4,MacIntel,60,,,1,0,340,74,1,339,ratio0Y_0_15_10.png,,,,,,,,,,,,
,,,,,,,,,,,,Less than half,Most,Few,More than half,Some,Half,Many,All,None,0.05769043,-0.02953125,1,0,0,QQQ5,,,,,,,,English,2020-07-02_11h01.21.475,Experiment_English,3.2.4,MacIntel,60,,,1,0,340,10,1,339,ratio12_4_12_4.png,,,,,,,,,,,,
,,,,,,,,,,,,Some,Few,Many,None,Most,All,More than half,Half,Less than half,-0.468149414,0.236694336,1,0,0,QQQ7,,,,,,,,English,2020-07-02_11h01.21.475,Experiment_English,3.2.4,MacIntel,60,,,1,0,340,209,1,339,ratio31_9_12_6.png,,,,,,,,,,,,
,,,,,,,,,,,,Many,Less than half,More than half,All,None,Half,Few,Most,Some,-0.435043945,0.008720703,1,0,0,QQQ8,,,,,,,,English,2020-07-02_11h01.21.475,Experiment_English,3.2.4,MacIntel,60,,,1,0,340,319,1,339,ratio51_15_18_20.png,,,,,,,,,,,,
,,,,,,,,,,,,Most,None,Few,Many,More than half,Less than half,Half,All,Some,-0.07625,0.007036133,1,0,0,QQQ5,,,,,,,,English,2020-07-02_11h01.21.475,Experiment_English,3.2.4,MacIntel,60,,,1,0,340,234,1,339,ratio32_9_15_10.png,,,,,,,,,,,,
,,,,,,,,,,,,More than half,Most,Half,None,Few,Many,Some,Less than half,All,-0.45652832,0.231508789,1,0,0,QQQ7,,,,,,,,English,2020-07-02_11h01.21.475,Experiment_English,3.2.4,MacIntel,60,,,1,0,340,24,1,339,ratio11_4_8_3.png,,,,,,,,,,,,
,,,,,,,,,,,,Many,Most,More than half,Less than half,Few,Half,Some,All,None,0.449858398,-0.269384766,1,0,0,QQQ3,,,,,,,,English,2020-07-02_11h01.21.475,Experiment_English,3.2.4,MacIntel,60,,,1,0,340,227,1,339,ratio32_6_10_6.png,,,,,,,,,,,,
,,,,,,,,,,,,Many,Few,None,Half,All,Less than half,Some,Most,More than half,-0.458505859,0.280249023,1,0,0,QQQ7,,,,,,,,English,2020-07-02_11h01.21.475,Experiment_English,3.2.4,MacIntel,60,,,1,0,340,138,1,339,ratio15_3_18_17.png,,,,,,,,,,,,
,,,,,,,,,,,,None,Few,Most,All,Half,More than half,Many,Some,Less than half,-0.069155273,0.054936523,1,0,0,QQQ5,,,,,,,,English,2020-07-02_11h01.21.475,Experiment_English,3.2.4,MacIntel,60,,,1,0,340,200,1,339,ratio31_3_4_4.png,,,,,,,,,,,,
,,,,,,,,,,,,Half,Most,Less than half,Some,More than half,None,Many,All,Few,-0.538349609,-0.274213867,1,0,0,QQQ9,,,,,,,,English,2020-07-02_11h01.21.475,Experiment_English,3.2.4,MacIntel,60,,,1,0,340,156,1,339,ratio19_2_20_14.png,,,,,,,,,,,,
,,,,,,,,,,,,Many,More than half,Less than half,All,Few,Half,Some,Most,None,-0.42659668,0.003486328,1,0,0,QQQ8,,,,,,,,English,2020-07-02_11h01.21.475,Experiment_English,3.2.4,MacIntel,60,,,1,0,340,310,1,339,ratio51_10_12_12.png,,,,,,,,,,,,
,,,,,,,,,,,,All,Half,More than half,Many,Most,Few,Less than half,Some,None,-0.425292969,-0.061665039,1,0,0,QQQ8,,,,,,,,English,2020-07-02_11h01.21.475,Experiment_English,3.2.4,MacIntel,60,,,1,0,340,109,1,339,ratio14_2_10_9.png,0.232358398,-0.416811523,1,0,0,continue_button_pause,1,0,1,0,1,0
,,,,,,,,,,,,,,,,,,,,,,,,,,,,,,,,,,English,2020-07-02_11h01.21.475,Experiment_English,3.2.4,MacIntel,60,,,1,0,340,109,1,339,ratio14_2_10_9.png,,,,,,,,,,,,
,,,,,,,,,,,,None,More than half,Half,All,Some,Few,Most,Many,Less than half,0.465976563,-0.303305664,1,0,0,QQQ3,,,,,,,,English,2020-07-02_11h01.21.475,Experiment_English,3.2.4,MacIntel,60,,,1,0,340,296,1,339,ratio43_8_14_12.png,,,,,,,,,,,,
,,,,,,,,,,,,Half,All,Some,Most,More than half,Few,None,Many,Less than half,-0.435004883,-0.240776367,1,0,0,QQQ9,,,,,,,,English,2020-07-02_11h01.21.475,Experiment_English,3.2.4,MacIntel,60,,,1,0,340,184,1,339,ratio23_2_5_10.png,,,,,,,,,,,,
,,,,,,,,,,,,Few,Some,All,None,Half,Most,Less than half,Many,More than half,0.077666016,0.234389648,1,0,0,QQQ4,,,,,,,,English,2020-07-02_11h01.21.475,Experiment_English,3.2.4,MacIntel,60,,,1,0,340,77,1,339,ratio0Y_0_18_3.png,,,,,,,,,,,,
,,,,,,,,,,,,Most,Some,Few,Many,None,Half,Less than half,More than half,All,0.455820312,0.271445312,1,0,0,QQQ1,,,,,,,,English,2020-07-02_11h01.21.475,Experiment_English,3.2.4,MacIntel,60,,,1,0,340,308,1,339,ratio51_10_12_9.png,,,,,,,,,,,,
,,,,,,,,,,,,All,None,Some,Half,More than half,Many,Few,Most,Less than half,-0.505957031,-0.328662109,1,0,0,QQQ9,,,,,,,,English,2020-07-02_11h01.21.475,Experiment_English,3.2.4,MacIntel,60,,,1,0,340,2,1,339,ratio12_1_3_10.png,,,,,,,,,,,,
,,,,,,,,,,,,Half,More than half,Few,Less than half,Most,None,Some,All,Many,-0.084316406,-0.026489258,1,0,0,QQQ5,,,,,,,,English,2020-07-02_11h01.21.475,Experiment_English,3.2.4,MacIntel,60,,,1,0,340,265,1,339,ratio41_8_10_1.png,,,,,,,,,,,,
,,,,,,,,,,,,Some,Most,Half,Few,Many,None,More than half,Less than half,All,-0.438979492,-0.021279297,1,0,0,QQQ8,,,,,,,,English,2020-07-02_11h01.21.475,Experiment_English,3.2.4,MacIntel,60,,,1,0,340,144,1,339,ratio19_1_10_11.png,,,,,,,,,,,,
,,,,,,,,,,,,Most,Few,Many,Some,All,More than half,None,Half,Less than half,-0.434355469,-0.338427734,1,0,0,QQQ9,,,,,,,,English,2020-07-02_11h01.21.475,Experiment_English,3.2.4,MacIntel,60,,,1,0,340,148,1,339,ratio19_1_10_19.png,,,,,,,,,,,,
,,,,,,,,,,,,Most,Less than half,All,Some,Few,None,Half,More than half,Many,-0.524570312,-0.018505859,1,0,0,QQQ8,,,,,,,,English,2020-07-02_11h01.21.475,Experiment_English,3.2.4,MacIntel,60,,,1,0,340,290,1,339,ratio43_8_14_3.png,,,,,,,,,,,,
,,,,,,,,,,,,Many,Few,All,Most,Some,Less than half,None,More than half,Half,-0.070800781,0.253657227,1,0,0,QQQ4,,,,,,,,English,2020-07-02_11h01.21.475,Experiment_English,3.2.4,MacIntel,60,,,1,0,340,294,1,339,ratio43_8_14_9.png,,,,,,,,,,,,
,,,,,,,,,,,,Few,All,Half,More than half,Many,Most,None,Some,Less than half,0.388779297,-0.293862305,1,0,0,QQQ3,,,,,,,,English,2020-07-02_11h01.21.475,Experiment_English,3.2.4,MacIntel,60,,,1,0,340,25,1,339,ratio11_4_8_10.png,,,,,,,,,,,,
,,,,,,,,,,,,Most,Some,Few,More than half,Half,All,Less than half,None,Many,0.525942383,0.275800781,1,0,0,QQQ1,,,,,,,,English,2020-07-02_11h01.21.475,Experiment_English,3.2.4,MacIntel,60,,,1,0,340,210,1,339,ratio31_9_12_9.png,,,,,,,,,,,,
,,,,,,,,,,,,All,Most,Half,None,Few,Many,Some,More than half,Less than half,0.000297852,0.037290039,1,0,0,QQQ5,,,,,,,,English,2020-07-02_11h01.21.475,Experiment_English,3.2.4,MacIntel,60,,,1,0,340,141,1,339,ratio19_1_10_2.png,,,,,,,,,,,,
,,,,,,,,,,,,Half,Most,More than half,Few,Many,All,Less than half,None,Some,-0.464555664,0.014658203,1,0,0,QQQ8,,,,,,,,English,2020-07-02_11h01.21.475,Experiment_English,3.2.4,MacIntel,60,,,1,0,340,76,1,339,ratio0Y_0_17_10.png,,,,,,,,,,,,
,,,,,,,,,,,,Few,Many,Most,None,More than half,All,Less than half,Some,Half,-0.444145508,0.324213867,1,0,0,QQQ7,,,,,,,,English,2020-07-02_11h01.21.475,Experiment_English,3.2.4,MacIntel,60,,,1,0,340,31,1,339,ratio11_6_12_9.png,,,,,,,,,,,,
,,,,,,,,,,,,Many,Half,All,Most,Few,More than half,None,Less than half,Some,-0.445014648,0.071645508,1,0,0,QQQ8,,,,,,,,English,2020-07-02_11h01.21.475,Experiment_English,3.2.4,MacIntel,60,,,1,0,340,98,1,339,ratio13_5_20_3.png,,,,,,,,,,,,
,,,,,,,,,,,,Less than half,All,More than half,Some,None,Few,Most,Many,Half,0.53934082,0.338041992,1,0,0,QQQ1,,,,,,,,English,2020-07-02_11h01.21.475,Experiment_English,3.2.4,MacIntel,60,,,1,0,340,143,1,339,ratio19_1_10_9.png,,,,,,,,,,,,
,,,,,,,,,,,,Many,None,Less than half,Most,All,Few,Half,More than half,Some,0.451411133,-0.265869141,1,0,0,QQQ3,,,,,,,,English,2020-07-02_11h01.21.475,Experiment_English,3.2.4,MacIntel,60,,,1,0,340,90,1,339,ratio13_3_12_7.png,,,,,,,,,,,,
,,,,,,,,,,,,Less than half,All,Half,Many,Most,None,Some,Few,More than half,0.049692383,0.021972656,1,0,0,QQQ5,,,,,,,,English,2020-07-02_11h01.21.475,Experiment_English,3.2.4,MacIntel,60,,,1,0,340,206,1,339,ratio31_6_8_6.png,,,,,,,,,,,,
,,,,,,,,,,,,Most,Less than half,Few,Many,Some,Half,More than half,All,None,0.447001953,-0.021728516,1,0,0,QQQ2,,,,,,,,English,2020-07-02_11h01.21.475,Experiment_English,3.2.4,MacIntel,60,,,1,0,340,87,1,339,ratio13_2_8_8.png,,,,,,,,,,,,
,,,,,,,,,,,,Many,Few,All,Less than half,Some,None,More than half,Half,Most,0.049838867,0.263999023,1,0,0,QQQ4,,,,,,,,English,2020-07-02_11h01.21.475,Experiment_English,3.2.4,MacIntel,60,,,1,0,340,95,1,339,ratio13_4_16_10.png,,,,,,,,,,,,
,,,,,,,,,,,,Few,Some,Less than half,Many,None,Most,More than half,All,Half,-0.409262695,0.254443359,1,0,0,QQQ7,,,,,,,,English,2020-07-02_11h01.21.475,Experiment_English,3.2.4,MacIntel,60,,,1,0,340,297,1,339,ratio43_8_14_13.png,,,,,,,,,,,,
,,,,,,,,,,,,All,Less than half,Some,More than half,Most,Half,Many,None,Few,0.394291992,0.013881836,1,0,0,QQQ2,,,,,,,,English,2020-07-02_11h01.21.475,Experiment_English,3.2.4,MacIntel,60,,,1,0,340,180,1,339,ratio23_2_5_4.png,,,,,,,,,,,,
,,,,,,,,,,,,Some,Less than half,Many,Half,Few,Most,More than half,None,All,0.080390625,0.250537109,1,0,0,QQQ4,,,,,,,,English,2020-07-02_11h01.21.475,Experiment_English,3.2.4,MacIntel,60,,,1,0,340,235,1,339,ratio32_12_20_1.png,,,,,,,,,,,,
,,,,,,,,,,,,Half,Less than half,Most,Many,Few,More than half,All,None,Some,0.432871094,0.050722656,1,0,0,QQQ2,,,,,,,,English,2020-07-02_11h01.21.475,Experiment_English,3.2.4,MacIntel,60,,,1,0,340,199,1,339,ratio23_8_20_8.png,,,,,,,,,,,,
,,,,,,,,,,,,Most,Few,Many,More than half,Half,All,Some,None,Less than half,0.040864258,0.261435547,1,0,0,QQQ4,,,,,,,,English,2020-07-02_11h01.21.475,Experiment_English,3.2.4,MacIntel,60,,,1,0,340,174,1,339,ratio21_10_15_1.png,,,,,,,,,,,,
,,,,,,,,,,,,Most,None,Few,Half,More than half,Less than half,Many,All,Some,0.388198242,-0.271264648,1,0,0,QQQ3,,,,,,,,English,2020-07-02_11h01.21.475,Experiment_English,3.2.4,MacIntel,60,,,1,0,340,151,1,339,ratio19_2_20_4.png,,,,,,,,,,,,
,,,,,,,,,,,,None,Some,Less than half,Most,More than half,Half,All,Few,Many,0.479018555,-0.309331055,1,0,0,QQQ3,,,,,,,,English,2020-07-02_11h01.21.475,Experiment_English,3.2.4,MacIntel,60,,,1,0,340,242,1,339,ratio34_3_7_6.png,,,,,,,,,,,,
,,,,,,,,,,,,Some,None,Few,Half,Less than half,More than half,Most,All,Many,-0.478149414,-0.273959961,1,0,0,QQQ9,,,,,,,,English,2020-07-02_11h01.21.475,Experiment_English,3.2.4,MacIntel,60,,,1,0,340,317,1,339,ratio51_15_18_13.png,,,,,,,,,,,,
,,,,,,,,,,,,All,Many,Most,Few,Less than half,More than half,Half,None,Some,0.432001953,-0.238208008,1,0,0,QQQ3,,,,,,,,English,2020-07-02_11h01.21.475,Experiment_English,3.2.4,MacIntel,60,,,1,0,340,326,1,339,ratio91_9_10_10.png,,,,,,,,,,,,
,,,,,,,,,,,,All,None,Many,Less than half,Most,Some,More than half,Half,Few,-0.398251953,-0.284672852,1,0,0,QQQ9,,,,,,,,English,2020-07-02_11h01.21.475,Experiment_English,3.2.4,MacIntel,60,,,1,0,340,83,1,339,ratio13_1_4_10.png,,,,,,,,,,,,
,,,,,,,,,,,,More than half,Half,None,Few,All,Less than half,Most,Some,Many,-0.098066406,-0.36578125,1,0,0,QQQ6,,,,,,,,English,2020-07-02_11h01.21.475,Experiment_English,3.2.4,MacIntel,60,,,1,0,340,4,1,339,ratio12_2_6_5.png,,,,,,,,,,,,
,,,,,,,,,,,,Some,Many,None,More than half,Half,Less than half,All,Few,Most,-0.425112305,0.231894531,1,0,0,QQQ7,,,,,,,,English,2020-07-02_11h01.21.475,Experiment_English,3.2.4,MacIntel,60,,,1,0,340,44,1,339,ratioX0_7_7_5.png,,,,,,,,,,,,
,,,,,,,,,,,,Few,All,More than half,Some,Half,Less than half,None,Most,Many,-0.523681641,0.072099609,1,0,0,QQQ8,,,,,,,,English,2020-07-02_11h01.21.475,Experiment_English,3.2.4,MacIntel,60,,,1,0,340,172,1,339,ratio21_8_12_6.png,0.268041992,-0.382441406,1,0,0,continue_button_pause,1,0,1,0,1,0
,,,,,,,,,,,,,,,,,,,,,,,,,,,,,,,,,,English,2020-07-02_11h01.21.475,Experiment_English,3.2.4,MacIntel,60,,,1,0,340,172,1,339,ratio21_8_12_6.png,,,,,,,,,,,,
,,,,,,,,,,,,None,All,Less than half,More than half,Most,Some,Many,Half,Few,-0.462890625,-0.294829102,1,0,0,QQQ9,,,,,,,,English,2020-07-02_11h01.21.475,Experiment_English,3.2.4,MacIntel,60,,,1,0,340,135,1,339,ratio15_3_18_7.png,,,,,,,,,,,,
,,,,,,,,,,,,Less than half,None,Half,Some,All,Most,Many,More than half,Few,0.497636719,0.283515625,1,0,0,QQQ1,,,,,,,,English,2020-07-02_11h01.21.475,Experiment_English,3.2.4,MacIntel,60,,,1,0,340,97,1,339,ratio13_5_20_2.png,,,,,,,,,,,,
,,,,,,,,,,,,More than half,None,Few,Less than half,Many,Most,Half,All,Some,0.002714844,-0.267314453,1,0,0,QQQ6,,,,,,,,English,2020-07-02_11h01.21.475,Experiment_English,3.2.4,MacIntel,60,,,1,0,340,332,1,339,ratio91_18_20_4.png,,,,,,,,,,,,
,,,,,,,,,,,,More than half,None,Most,Less than half,Few,Many,Half,All,Some,-0.449492187,0.243515625,1,0,0,QQQ7,,,,,,,,English,2020-07-02_11h01.21.475,Experiment_English,3.2.4,MacIntel,60,,,1,0,340,113,1,339,ratio14_3_15_8.png,,,,,,,,,,,,
,,,,,,,,,,,,Many,None,Less than half,Half,Some,Few,More than half,All,Most,-0.459477539,-0.346992187,1,0,0,QQQ9,,,,,,,,English,2020-07-02_11h01.21.475,Experiment_English,3.2.4,MacIntel,60,,,1,0,340,325,1,339,ratio91_9_10_8.png,,,,,,,,,,,,
,,,,,,,,,,,,Most,Half,Many,Some,None,Few,Less than half,All,More than half,-0.011782227,0.248569336,1,0,0,QQQ4,,,,,,,,English,2020-07-02_11h01.21.475,Experiment_English,3.2.4,MacIntel,60,,,1,0,340,93,1,339,ratio13_4_16_7.png,,,,,,,,,,,,
,,,,,,,,,,,,More than half,None,Half,Many,Few,Less than half,Most,All,Some,-0.418662109,-0.265947266,1,0,0,QQQ9,,,,,,,,English,2020-07-02_11h01.21.475,Experiment_English,3.2.4,MacIntel,60,,,1,0,340,6,1,339,ratio12_3_9_1.png,,,,,,,,,,,,
,,,,,,,,,,,,All,Less than half,More than half,Many,Some,Few,None,Half,Most,0.519614258,-0.052304688,1,0,0,QQQ2,,,,,,,,English,2020-07-02_11h01.21.475,Experiment_English,3.2.4,MacIntel,60,,,1,0,340,252,1,339,ratio34_6_14_3.png,,,,,,,,,,,,
,,,,,,,,,,,,Half,Less than half,None,Some,More than half,Many,Most,All,Few,0.453032227,0.301162109,1,0,0,QQQ1,,,,,,,,English,2020-07-02_11h01.21.475,Experiment_English,3.2.4,MacIntel,60,,,1,0,340,22,1,339,ratio11_3_6_6.png,,,,,,,,,,,,
,,,,,,,,,,,,All,Less than half,None,Most,More than half,Half,Some,Many,Few,0.46909668,0.316791992,1,0,0,QQQ1,,,,,,,,English,2020-07-02_11h01.21.475,Experiment_English,3.2.4,MacIntel,60,,,1,0,340,48,1,339,ratioX0_10_10_1.png,,,,,,,,,,,,
,,,,,,,,,,,,Many,Less than half,Few,Some,Half,All,Most,None,More than half,-0.525415039,0.029331055,1,0,0,QQQ8,,,,,,,,English,2020-07-02_11h01.21.475,Experiment_English,3.2.4,MacIntel,60,,,1,0,340,62,1,339,ratio0Y_0_5_4.png,,,,,,,,,,,,
,,,,,,,,,,,,Half,More than half,Most,None,Some,All,Few,Many,Less than half,-0.037768555,0.263710938,1,0,0,QQQ4,,,,,,,,English,2020-07-02_11h01.21.475,Experiment_English,3.2.4,MacIntel,60,,,1,0,340,71,1,339,ratio0Y_0_12_10.png,,,,,,,,,,,,
,,,,,,,,,,,,Less than half,Half,None,More than half,Few,Many,Most,All,Some,0.528642578,0.268920898,1,0,0,QQQ1,,,,,,,,English,2020-07-02_11h01.21.475,Experiment_English,3.2.4,MacIntel,60,,,1,0,340,139,1,339,ratio15_3_18_20.png,,,,,,,,,,,,
,,,,,,,,,,,,Half,All,Less than half,Some,Few,More than half,Most,None,Many,0.50215332,-0.274301758,1,0,0,QQQ3,,,,,,,,English,2020-07-02_11h01.21.475,Experiment_English,3.2.4,MacIntel,60,,,1,0,340,94,1,339,ratio13_4_16_8.png,,,,,,,,,,,,
,,,,,,,,,,,,Many,More than half,All,Most,Few,None,Half,Some,Less than half,-0.421367188,-0.262392578,1,0,0,QQQ9,,,,,,,,English,2020-07-02_11h01.21.475,Experiment_English,3.2.4,MacIntel,60,,,1,0,340,188,1,339,ratio23_4_10_6.png,,,,,,,,,,,,
,,,,,,,,,,,,Few,All,Most,More than half,Some,Many,None,Half,Less than half,-0.055795898,-0.338227539,1,0,0,QQQ6,,,,,,,,English,2020-07-02_11h01.21.475,Experiment_English,3.2.4,MacIntel,60,,,1,0,340,316,1,339,ratio51_15_18_11.png,,,,,,,,,,,,
,,,,,,,,,,,,None,Most,All,Few,Less than half,Many,More than half,Half,Some,-0.055795898,-0.338227539,1,0,0,QQQ6,,,,,,,,English,2020-07-02_11h01.21.475,Experiment_English,3.2.4,MacIntel,60,,,1,0,340,324,1,339,ratio91_9_10_7.png,,,,,,,,,,,,
,,,,,,,,,,,,None,All,Most,More than half,Many,Half,Less than half,Some,Few,-0.459580078,0.279960938,1,0,0,QQQ7,,,,,,,,English,2020-07-02_11h01.21.475,Experiment_English,3.2.4,MacIntel,60,,,1,0,340,195,1,339,ratio23_8_20_1.png,,,,,,,,,,,,
,,,,,,,,,,,,More than half,Some,All,Most,Less than half,Many,Half,None,Few,-0.39324707,-0.335571289,1,0,0,QQQ9,,,,,,,,English,2020-07-02_11h01.21.475,Experiment_English,3.2.4,MacIntel,60,,,1,0,340,100,1,339,ratio14_1_5_3.png,,,,,,,,,,,,
,,,,,,,,,,,,Half,Some,None,All,Most,Many,More than half,Few,Less than half,-0.447963867,-0.05168457,1,0,0,QQQ8,,,,,,,,English,2020-07-02_11h01.21.475,Experiment_English,3.2.4,MacIntel,60,,,1,0,340,121,1,339,ratio15_1_6_4.png,,,,,,,,,,,,
,,,,,,,,,,,,Some,None,More than half,Most,Few,Half,All,Less than half,Many,-0.031416016,-0.273525391,1,0,0,QQQ6,,,,,,,,English,2020-07-02_11h01.21.475,Experiment_English,3.2.4,MacIntel,60,,,1,0,340,287,1,339,ratio43_4_7_17.png,,,,,,,,,,,,
,,,,,,,,,,,,Less than half,None,All,More than half,Many,Most,Few,Some,Half,0.007338867,0.204931641,1,0,0,QQQ4,,,,,,,,English,2020-07-02_11h01.21.475,Experiment_English,3.2.4,MacIntel,60,,,1,0,340,212,1,339,ratio31_12_16_1.png,,,,,,,,,,,,
,,,,,,,,,,,,More than half,None,Some,Few,Half,Less than half,Many,All,Most,-0.467871094,0.283134766,1,0,0,QQQ7,,,,,,,,English,2020-07-02_11h01.21.475,Experiment_English,3.2.4,MacIntel,60,,,1,0,340,179,1,339,ratio21_12_18_8.png,,,,,,,,,,,,
,,,,,,,,,,,,Most,Less than half,Many,Few,All,Half,More than half,Some,None,0.410043945,0.050922852,1,0,0,QQQ2,,,,,,,,English,2020-07-02_11h01.21.475,Experiment_English,3.2.4,MacIntel,60,,,1,0,340,12,1,339,ratio12_4_12_10.png,,,,,,,,,,,,
,,,,,,,,,,,,Half,Less than half,Few,Most,Some,None,More than half,All,Many,0.026342773,0.259736328,1,0,0,QQQ4,,,,,,,,English,2020-07-02_11h01.21.475,Experiment_English,3.2.4,MacIntel,60,,,1,0,340,334,1,339,ratio91_18_20_9.png,,,,,,,,,,,,
,,,,,,,,,,,,More than half,Few,Many,Half,Some,None,Most,All,Less than half,0.524682617,0.353041992,1,0,0,QQQ1,,,,,,,,English,2020-07-02_11h01.21.475,Experiment_English,3.2.4,MacIntel,60,,,1,0,340,223,1,339,ratio32_3_5_5.png,,,,,,,,,,,,
,,,,,,,,,,,,Many,Less than half,Half,Most,Some,None,All,More than half,Few,-0.02940918,0.266630859,1,0,0,QQQ4,,,,,,,,English,2020-07-02_11h01.21.475,Experiment_English,3.2.4,MacIntel,60,,,1,0,340,309,1,339,ratio51_10_12_10.png,,,,,,,,,,,,
,,,,,,,,,,,,Half,Most,All,More than half,Less than half,Few,Some,None,Many,-0.076176758,-0.326689453,1,0,0,QQQ6,,,,,,,,English,2020-07-02_11h01.21.475,Experiment_English,3.2.4,MacIntel,60,,,1,0,340,152,1,339,ratio19_2_20_6.png,,,,,,,,,,,,
,,,,,,,,,,,,Most,Many,Some,Half,Less than half,More than half,Few,None,All,-0.473066406,-0.314150391,1,0,0,QQQ9,,,,,,,,English,2020-07-02_11h01.21.475,Experiment_English,3.2.4,MacIntel,60,,,1,0,340,47,1,339,ratioX0_9_9_4.png,,,,,,,,,,,,
,,,,,,,,,,,,Most,None,Some,Less than half,Few,Half,More than half,Many,All,-0.010253906,0.000341797,1,0,0,QQQ5,,,,,,,,English,2020-07-02_11h01.21.475,Experiment_English,3.2.4,MacIntel,60,,,1,0,340,147,1,339,ratio19_1_10_18.png,,,,,,,,,,,,
,,,,,,,,,,,,None,Half,All,Less than half,Few,Some,More than half,Many,Most,0.4490625,-0.296845703,1,0,0,QQQ3,,,,,,,,English,2020-07-02_11h01.21.475,Experiment_English,3.2.4,MacIntel,60,,,1,0,340,42,1,339,ratioX0_5_5_5.png,,,,,,,,,,,,
,,,,,,,,,,,,Few,More than half,Many,Less than half,Some,All,Half,None,Most,0.438203125,0.250234375,1,0,0,QQQ1,,,,,,,,English,2020-07-02_11h01.21.475,Experiment_English,3.2.4,MacIntel,60,,,1,0,340,130,1,339,ratio15_2_12_12.png,,,,,,,,,,,,
,,,,,,,,,,,,Less than half,More than half,Most,Many,Some,All,Half,None,Few,0.438203125,0.250234375,1,0,0,QQQ1,,,,,,,,English,2020-07-02_11h01.21.475,Experiment_English,3.2.4,MacIntel,60,,,1,0,340,15,1,339,ratio12_5_15_5.png,,,,,,,,,,,,
,,,,,,,,,,,,Less than half,Some,All,Half,None,Few,More than half,Many,Most,-0.43722168,-0.017827148,1,0,0,QQQ8,,,,,,,,English,2020-07-02_11h01.21.475,Experiment_English,3.2.4,MacIntel,60,,,1,0,340,178,1,339,ratio21_12_18_2.png,0.367211914,-0.378188477,1,0,0,continue_button_pause,1,0,1,0,1,0
,,,,,,,,,,,,,,,,,,,,,,,,,,,,,,,,,,English,2020-07-02_11h01.21.475,Experiment_English,3.2.4,MacIntel,60,,,1,0,340,178,1,339,ratio21_12_18_2.png,,,,,,,,,,,,
,,,,,,,,,,,,All,Most,More than half,Many,Few,Less than half,None,Half,Some,0.463178711,0.27050293,1,0,0,QQQ1,,,,,,,,English,2020-07-02_11h01.21.475,Experiment_English,3.2.4,MacIntel,60,,,1,0,340,46,1,339,ratioX0_9_9_3.png,,,,,,,,,,,,
,,,,,,,,,,,,Most,None,Half,Some,Less than half,Few,All,Many,More than half,0.029379883,-0.030419922,1,0,0,QQQ5,,,,,,,,English,2020-07-02_11h01.21.475,Experiment_English,3.2.4,MacIntel,60,,,1,0,340,30,1,339,ratio11_6_12_6.png,,,,,,,,,,,,
,,,,,,,,,,,,Half,Less than half,Most,Some,Few,None,All,More than half,Many,0.443203125,-0.297148437,1,0,0,QQQ3,,,,,,,,English,2020-07-02_11h01.21.475,Experiment_English,3.2.4,MacIntel,60,,,1,0,340,329,1,339,ratio91_9_10_20.png,,,,,,,,,,,,
,,,,,,,,,,,,All,More than half,Less than half,Half,Most,Few,None,Some,Many,0.433100586,-0.059726562,1,0,0,QQQ2,,,,,,,,English,2020-07-02_11h01.21.475,Experiment_English,3.2.4,MacIntel,60,,,1,0,340,221,1,339,ratio32_3_5_3.png,,,,,,,,,,,,
,,,,,,,,,,,,All,None,Less than half,More than half,Many,Half,Most,Few,Some,0.011235352,-0.00940918,1,0,0,QQQ5,,,,,,,,English,2020-07-02_11h01.21.475,Experiment_English,3.2.4,MacIntel,60,,,1,0,340,217,1,339,ratio31_15_20_5.png,,,,,,,,,,,,
,,,,,,,,,,,,Some,None,Most,Few,All,More than half,Many,Less than half,Half,-0.553071289,-0.031474609,1,0,0,QQQ8,,,,,,,,English,2020-07-02_11h01.21.475,Experiment_English,3.2.4,MacIntel,60,,,1,0,340,91,1,339,ratio13_3_12_10.png,,,,,,,,,,,,
,,,,,,,,,,,,Less than half,Some,All,More than half,Most,Many,Few,Half,None,-0.035952148,-0.311123047,1,0,0,QQQ6,,,,,,,,English,2020-07-02_11h01.21.475,Experiment_English,3.2.4,MacIntel,60,,,1,0,340,168,1,339,ratio21_6_9_3.png,,,,,,,,,,,,
,,,,,,,,,,,,Less than half,All,Few,None,Many,Some,More than half,Most,Half,0.535932617,0.317382813,1,0,0,QQQ1,,,,,,,,English,2020-07-02_11h01.21.475,Experiment_English,3.2.4,MacIntel,60,,,1,0,340,251,1,339,ratio34_6_14_2.png,,,,,,,,,,,,
,,,,,,,,,,,,None,Half,More than half,Few,Most,Some,Many,All,Less than half,0.468193359,0.278735352,1,0,0,QQQ1,,,,,,,,English,2020-07-02_11h01.21.475,Experiment_English,3.2.4,MacIntel,60,,,1,0,340,66,1,339,ratio0Y_0_9_8.png,,,,,,,,,,,,
,,,,,,,,,,,,Less than half,More than half,None,Most,Few,Many,Some,Half,All,0.496088867,0.310004883,1,0,0,QQQ1,,,,,,,,English,2020-07-02_11h01.21.475,Experiment_English,3.2.4,MacIntel,60,,,1,0,340,118,1,339,ratio14_4_20_8.png,,,,,,,,,,,,
,,,,,,,,,,,,Half,Few,Most,Less than half,None,More than half,All,Many,Some,0.436274414,-0.261289063,1,0,0,QQQ3,,,,,,,,English,2020-07-02_11h01.21.475,Experiment_English,3.2.4,MacIntel,60,,,1,0,340,301,1,339,ratio51_5_6_4.png,,,,,,,,,,,,
,,,,,,,,,,,,Most,More than half,Half,All,None,Few,Less than half,Many,Some,-0.410810547,0.246328125,1,0,0,QQQ7,,,,,,,,English,2020-07-02_11h01.21.475,Experiment_English,3.2.4,MacIntel,60,,,1,0,340,305,1,339,ratio51_5_6_14.png,,,,,,,,,,,,
,,,,,,,,,,,,Half,Less than half,More than half,Many,Some,Few,None,All,Most,0.45230957,0.024804687,1,0,0,QQQ2,,,,,,,,English,2020-07-02_11h01.21.475,Experiment_English,3.2.4,MacIntel,60,,,1,0,340,14,1,339,ratio12_5_15_4.png,,,,,,,,,,,,
,,,,,,,,,,,,Few,Some,Most,Less than half,None,More than half,Half,All,Many,-0.448876953,0.287592773,1,0,0,QQQ7,,,,,,,,English,2020-07-02_11h01.21.475,Experiment_English,3.2.4,MacIntel,60,,,1,0,340,288,1,339,ratio43_4_7_18.png,,,,,,,,,,,,
,,,,,,,,,,,,All,Few,Some,Less than half,None,Many,Half,Most,More than half,-0.461904297,-0.238696289,1,0,0,QQQ9,,,,,,,,English,2020-07-02_11h01.21.475,Experiment_English,3.2.4,MacIntel,60,,,1,0,340,284,1,339,ratio43_4_7_11.png,,,,,,,,,,,,
,,,,,,,,,,,,Some,Few,More than half,All,Most,None,Many,Less than half,Half,-0.427680664,-0.036386719,1,0,0,QQQ8,,,,,,,,English,2020-07-02_11h01.21.475,Experiment_English,3.2.4,MacIntel,60,,,1,0,340,193,1,339,ratio23_6_15_9.png,,,,,,,,,,,,
,,,,,,,,,,,,Many,More than half,Some,Less than half,Most,All,None,Few,Half,-0.033066406,0.017026367,1,0,0,QQQ5,,,,,,,,English,2020-07-02_11h01.21.475,Experiment_English,3.2.4,MacIntel,60,,,1,0,340,275,1,339,ratio41_16_20_2.png,,,,,,,,,,,,
,,,,,,,,,,,,Many,None,Some,Half,All,Most,Few,Less than half,More than half,0.033803711,0.008525391,1,0,0,QQQ5,,,,,,,,English,2020-07-02_11h01.21.475,Experiment_English,3.2.4,MacIntel,60,,,1,0,340,54,1,339,ratioX0_15_15_5.png,,,,,,,,,,,,
,,,,,,,,,,,,All,Less than half,None,Few,Many,Most,Half,Some,More than half,0.465869141,0.031538086,1,0,0,QQQ2,,,,,,,,English,2020-07-02_11h01.21.475,Experiment_English,3.2.4,MacIntel,60,,,1,0,340,254,1,339,ratio34_6_14_9.png,,,,,,,,,,,,
,,,,,,,,,,,,All,Few,Some,Half,More than half,Most,Less than half,None,Many,-0.460429688,0.252841797,1,0,0,QQQ7,,,,,,,,English,2020-07-02_11h01.21.475,Experiment_English,3.2.4,MacIntel,60,,,1,0,340,241,1,339,ratio34_3_7_5.png,,,,,,,,,,,,
,,,,,,,,,,,,More than half,Many,All,Less than half,Half,Few,Most,Some,None,-0.466230469,0.247431641,1,0,0,QQQ7,,,,,,,,English,2020-07-02_11h01.21.475,Experiment_English,3.2.4,MacIntel,60,,,1,0,340,262,1,339,ratio41_4_5_4.png,,,,,,,,,,,,
,,,,,,,,,,,,Many,More than half,None,Some,Few,Most,All,Less than half,Half,0.057412109,-0.336992187,1,0,0,QQQ6,,,,,,,,English,2020-07-02_11h01.21.475,Experiment_English,3.2.4,MacIntel,60,,,1,0,340,333,1,339,ratio91_18_20_6.png,,,,,,,,,,,,
,,,,,,,,,,,,Some,Many,Less than half,Half,None,Most,All,Few,More than half,0.008344727,-0.261000977,1,0,0,QQQ6,,,,,,,,English,2020-07-02_11h01.21.475,Experiment_English,3.2.4,MacIntel,60,,,1,0,340,313,1,339,ratio51_15_18_2.png,,,,,,,,,,,,
,,,,,,,,,,,,Most,Half,Some,Many,Few,None,Less than half,All,More than half,0.108388672,-0.05027832,1,0,0,QQQ5,,,,,,,,English,2020-07-02_11h01.21.475,Experiment_English,3.2.4,MacIntel,60,,,1,0,340,140,1,339,ratio19_1_10_1.png,,,,,,,,,,,,
,,,,,,,,,,,,Few,Many,Less than half,More than half,Half,Most,All,Some,None,0.09796875,-0.226577148,1,0,0,QQQ6,,,,,,,,English,2020-07-02_11h01.21.475,Experiment_English,3.2.4,MacIntel,60,,,1,0,340,323,1,339,ratio91_9_10_5.png,,,,,,,,,,,,
,,,,,,,,,,,,Less than half,Many,Few,More than half,Some,All,Half,Most,None,0.412407227,-0.289277344,1,0,0,QQQ3,,,,,,,,English,2020-07-02_11h01.21.475,Experiment_English,3.2.4,MacIntel,60,,,1,0,340,89,1,339,ratio13_3_12_6.png,,,,,,,,,,,,
,,,,,,,,,,,,All,Few,Most,Less than half,Some,Half,Many,None,More than half,-0.441298828,0.281435547,1,0,0,QQQ7,,,,,,,,English,2020-07-02_11h01.21.475,Experiment_English,3.2.4,MacIntel,60,,,1,0,340,176,1,339,ratio21_10_15_3.png,,,,,,,,,,,,
,,,,,,,,,,,,None,Many,Few,Less than half,More than half,Half,Most,All,Some,0.574873047,0.285776367,1,0,0,QQQ1,,,,,,,,English,2020-07-02_11h01.21.475,Experiment_English,3.2.4,MacIntel,60,,,1,0,340,60,1,339,ratio0Y_0_3_5.png,,,,,,,,,,,,
,,,,,,,,,,,,More than half,None,Few,Most,Less than half,Many,Some,Half,All,-0.432983398,0.03652832,1,0,0,QQQ8,,,,,,,,English,2020-07-02_11h01.21.475,Experiment_English,3.2.4,MacIntel,60,,,1,0,340,137,1,339,ratio15_3_18_16.png,,,,,,,,,,,,
,,,,,,,,,,,,Many,Some,Half,All,Most,More than half,Less than half,None,Few,-0.476801758,0.233217773,1,0,0,QQQ7,,,,,,,,English,2020-07-02_11h01.21.475,Experiment_English,3.2.4,MacIntel,60,,,1,0,340,250,1,339,ratio34_6_14_1.png,,,,,,,,,,,,
,,,,,,,,,,,,None,All,Less than half,Many,Some,Few,More than half,Most,Half,-0.511118164,-0.029477539,1,0,0,QQQ8,,,,,,,,English,2020-07-02_11h01.21.475,Experiment_English,3.2.4,MacIntel,60,,,1,0,340,161,1,339,ratio21_2_3_8.png,,,,,,,,,,,,
,,,,,,,,,,,,None,Half,Some,Few,All,Most,More than half,Less than half,Many,-0.462211914,-0.294360352,1,0,0,QQQ9,,,,,,,,English,2020-07-02_11h01.21.475,Experiment_English,3.2.4,MacIntel,60,,,1,0,340,270,1,339,ratio41_12_15_3.png,,,,,,,,,,,,
,,,,,,,,,,,,Many,All,More than half,Few,Half,Less than half,Some,Most,None,-0.01527832,-0.301743164,1,0,0,QQQ6,,,,,,,,English,2020-07-02_11h01.21.475,Experiment_English,3.2.4,MacIntel,60,,,1,0,340,186,1,339,ratio23_4_10_2.png,,,,,,,,,,,,
,,,,,,,,,,,,Few,None,Half,Less than half,Many,More than half,All,Most,Some,0.05359375,0.261533203,1,0,0,QQQ4,,,,,,,,English,2020-07-02_11h01.21.475,Experiment_English,3.2.4,MacIntel,60,,,1,0,340,35,1,339,ratio11_8_16_10.png,0.3484375,-0.388300781,1,0,0,continue_button_pause,1,0,1,0,1,0
,,,,,,,,,,,,,,,,,,,,,,,,,,,,,,,,,,English,2020-07-02_11h01.21.475,Experiment_English,3.2.4,MacIntel,60,,,1,0,340,35,1,339,ratio11_8_16_10.png,,,,,,,,,,,,
,,,,,,,,,,,,Some,None,Less than half,Half,Many,All,Few,Most,More than half,0.077475586,-0.013979492,1,0,0,QQQ5,,,,,,,,English,2020-07-02_11h01.21.475,Experiment_English,3.2.4,MacIntel,60,,,1,0,340,56,1,339,ratioX0_17_17_10.png,,,,,,,,,,,,
,,,,,,,,,,,,All,Some,None,More than half,Few,Many,Less than half,Half,Most,-0.038793945,0.327548828,1,0,0,QQQ4,,,,,,,,English,2020-07-02_11h01.21.475,Experiment_English,3.2.4,MacIntel,60,,,1,0,340,291,1,339,ratio43_8_14_5.png,,,,,,,,,,,,
,,,,,,,,,,,,More than half,Many,All,Some,Most,Less than half,Half,Few,None,-0.472587891,0.021523437,1,0,0,QQQ8,,,,,,,,English,2020-07-02_11h01.21.475,Experiment_English,3.2.4,MacIntel,60,,,1,0,340,125,1,339,ratio15_1_6_19.png,,,,,,,,,,,,
,,,,,,,,,,,,More than half,Many,Half,All,Some,Less than half,Most,Few,None,-0.029868164,0.212045898,1,0,0,QQQ4,,,,,,,,English,2020-07-02_11h01.21.475,Experiment_English,3.2.4,MacIntel,60,,,1,0,340,43,1,339,ratioX0_6_6_9.png,,,,,,,,,,,,
,,,,,,,,,,,,Less than half,Half,Few,More than half,None,Some,All,Most,Many,-0.431206055,0.044101562,1,0,0,QQQ8,,,,,,,,English,2020-07-02_11h01.21.475,Experiment_English,3.2.4,MacIntel,60,,,1,0,340,216,1,339,ratio31_15_20_3.png,,,,,,,,,,,,
,,,,,,,,,,,,Half,None,Few,Most,All,More than half,Some,Less than half,Many,-0.398535156,-0.246020508,1,0,0,QQQ9,,,,,,,,English,2020-07-02_11h01.21.475,Experiment_English,3.2.4,MacIntel,60,,,1,0,340,230,1,339,ratio32_9_15_1.png,,,,,,,,,,,,
,,,,,,,,,,,,Half,Few,More than half,Many,Less than half,None,Some,Most,All,-0.45128418,-0.061298828,1,0,0,QQQ8,,,,,,,,English,2020-07-02_11h01.21.475,Experiment_English,3.2.4,MacIntel,60,,,1,0,340,263,1,339,ratio41_4_5_5.png,,,,,,,,,,,,
,,,,,,,,,,,,Less than half,All,Some,More than half,Few,Most,Half,Many,None,0.457407227,-0.033022461,1,0,0,QQQ2,,,,,,,,English,2020-07-02_11h01.21.475,Experiment_English,3.2.4,MacIntel,60,,,1,0,340,58,1,339,ratioX0_19_19_4.png,,,,,,,,,,,,
,,,,,,,,,,,,All,More than half,Most,Few,Many,None,Less than half,Some,Half,0.484326172,-0.222348633,1,0,0,QQQ3,,,,,,,,English,2020-07-02_11h01.21.475,Experiment_English,3.2.4,MacIntel,60,,,1,0,340,202,1,339,ratio31_3_4_8.png,,,,,,,,,,,,
,,,,,,,,,,,,More than half,Most,Some,Half,Few,None,Many,All,Less than half,-0.523603516,-0.027978516,1,0,0,QQQ8,,,,,,,,English,2020-07-02_11h01.21.475,Experiment_English,3.2.4,MacIntel,60,,,1,0,340,52,1,339,ratioX0_13_13_10.png,,,,,,,,,,,,
,,,,,,,,,,,,Most,Less than half,Many,More than half,Some,Few,All,Half,None,0.022226563,0.280166016,1,0,0,QQQ4,,,,,,,,English,2020-07-02_11h01.21.475,Experiment_English,3.2.4,MacIntel,60,,,1,0,340,26,1,339,ratio11_5_10_4.png,,,,,,,,,,,,
,,,,,,,,,,,,All,Most,More than half,Few,Less than half,None,Many,Some,Half,-0.481235352,0.003666992,1,0,0,QQQ8,,,,,,,,English,2020-07-02_11h01.21.475,Experiment_English,3.2.4,MacIntel,60,,,1,0,340,133,1,339,ratio15_3_18_3.png,,,,,,,,,,,,
,,,,,,,,,,,,None,All,Some,More than half,Half,Most,Many,Less than half,Few,-0.08784668,-0.304418945,1,0,0,QQQ6,,,,,,,,English,2020-07-02_11h01.21.475,Experiment_English,3.2.4,MacIntel,60,,,1,0,340,232,1,339,ratio32_9_15_8.png,,,,,,,,,,,,
,,,,,,,,,,,,Less than half,Half,Most,All,Some,Few,Many,More than half,None,-0.447114258,-0.024321289,1,0,0,QQQ8,,,,,,,,English,2020-07-02_11h01.21.475,Experiment_English,3.2.4,MacIntel,60,,,1,0,340,163,1,339,ratio21_4_6_1.png,,,,,,,,,,,,
,,,,,,,,,,,,More than half,All,Most,Some,Less than half,Few,None,Many,Half,-0.106240234,0.26894043,1,0,0,QQQ4,,,,,,,,English,2020-07-02_11h01.21.475,Experiment_English,3.2.4,MacIntel,60,,,1,0,340,159,1,339,ratio19_2_20_20.png,,,,,,,,,,,,
,,,,,,,,,,,,Many,Few,More than half,Most,Some,None,All,Half,Less than half,-0.529052734,0.228569336,1,0,0,QQQ7,,,,,,,,English,2020-07-02_11h01.21.475,Experiment_English,3.2.4,MacIntel,60,,,1,0,340,55,1,339,ratioX0_16_16_3.png,,,,,,,,,,,,
,,,,,,,,,,,,More than half,Half,Few,Most,Many,Less than half,All,None,Some,-0.435258789,-0.321166992,1,0,0,QQQ9,,,,,,,,English,2020-07-02_11h01.21.475,Experiment_English,3.2.4,MacIntel,60,,,1,0,340,111,1,339,ratio14_3_15_3.png,,,,,,,,,,,,
,,,,,,,,,,,,Some,More than half,Most,None,All,Many,Less than half,Half,Few,0.462089844,0.291191406,1,0,0,QQQ1,,,,,,,,English,2020-07-02_11h01.21.475,Experiment_English,3.2.4,MacIntel,60,,,1,0,340,149,1,339,ratio19_1_10_20.png,,,,,,,,,,,,
,,,,,,,,,,,,Half,Most,All,Less than half,Some,Many,None,More than half,Few,-0.493222656,0.049204102,1,0,0,QQQ8,,,,,,,,English,2020-07-02_11h01.21.475,Experiment_English,3.2.4,MacIntel,60,,,1,0,340,166,1,339,ratio21_6_9_1.png,,,,,,,,,,,,
,,,,,,,,,,,,None,All,Many,More than half,Few,Less than half,Most,Some,Half,0.00284668,0.017993164,1,0,0,QQQ5,,,,,,,,English,2020-07-02_11h01.21.475,Experiment_English,3.2.4,MacIntel,60,,,1,0,340,37,1,339,ratio11_9_18_8.png,,,,,,,,,,,,
,,,,,,,,,,,,Half,All,Most,Few,Many,More than half,Some,Less than half,None,-0.029931641,-0.037587891,1,0,0,QQQ5,,,,,,,,English,2020-07-02_11h01.21.475,Experiment_English,3.2.4,MacIntel,60,,,1,0,340,273,1,339,ratio41_12_15_8.png,,,,,,,,,,,,
,,,,,,,,,,,,Many,Some,Most,None,Less than half,Half,All,Few,More than half,0.447133789,-0.247758789,1,0,0,QQQ3,,,,,,,,English,2020-07-02_11h01.21.475,Experiment_English,3.2.4,MacIntel,60,,,1,0,340,260,1,339,ratio41_4_5_2.png,,,,,,,,,,,,
,,,,,,,,,,,,All,Most,Many,Some,Few,Half,None,Less than half,More than half,-0.043012695,-0.232231445,1,0,0,QQQ6,,,,,,,,English,2020-07-02_11h01.21.475,Experiment_English,3.2.4,MacIntel,60,,,1,0,340,231,1,339,ratio32_9_15_2.png,,,,,,,,,,,,
,,,,,,,,,,,,Many,Some,Half,Most,More than half,Few,None,All,Less than half,0.466567383,-0.305039063,1,0,0,QQQ3,,,,,,,,English,2020-07-02_11h01.21.475,Experiment_English,3.2.4,MacIntel,60,,,1,0,340,292,1,339,ratio43_8_14_6.png,,,,,,,,,,,,
,,,,,,,,,,,,Most,Half,All,Less than half,More than half,Some,None,Many,Few,-0.447055664,-0.329355469,1,0,0,QQQ9,,,,,,,,English,2020-07-02_11h01.21.475,Experiment_English,3.2.4,MacIntel,60,,,1,0,340,117,1,339,ratio14_4_20_6.png,,,,,,,,,,,,
,,,,,,,,,,,,None,Less than half,More than half,Half,Few,All,Most,Some,Many,0.007900391,0.034204102,1,0,0,QQQ5,,,,,,,,English,2020-07-02_11h01.21.475,Experiment_English,3.2.4,MacIntel,60,,,1,0,340,101,1,339,ratio14_1_5_7.png,,,,,,,,,,,,
,,,,,,,,,,,,Some,Most,All,Less than half,Few,More than half,Many,None,Half,-0.435400391,-0.269379883,1,0,0,QQQ9,,,,,,,,English,2020-07-02_11h01.21.475,Experiment_English,3.2.4,MacIntel,60,,,1,0,340,32,1,339,ratio11_7_14_5.png,,,,,,,,,,,,
,,,,,,,,,,,,Most,Few,Many,None,More than half,Less than half,All,Some,Half,0.450439453,-0.005849609,1,0,0,QQQ2,,,,,,,,English,2020-07-02_11h01.21.475,Experiment_English,3.2.4,MacIntel,60,,,1,0,340,142,1,339,ratio19_1_10_6.png,,,,,,,,,,,,
,,,,,,,,,,,,Most,Less than half,Half,All,More than half,None,Many,Few,Some,0.451240234,-0.282983398,1,0,0,QQQ3,,,,,,,,English,2020-07-02_11h01.21.475,Experiment_English,3.2.4,MacIntel,60,,,1,0,340,238,1,339,ratio32_12_20_9.png,,,,,,,,,,,,
,,,,,,,,,,,,Some,Most,None,All,Many,More than half,Less than half,Half,Few,0.530927734,0.245683594,1,0,0,QQQ1,,,,,,,,English,2020-07-02_11h01.21.475,Experiment_English,3.2.4,MacIntel,60,,,1,0,340,88,1,339,ratio13_3_12_5.png,,,,,,,,,,,,
,,,,,,,,,,,,Some,Many,Few,Less than half,None,More than half,Half,All,Most,-0.432802734,0.273911133,1,0,0,QQQ7,,,,,,,,English,2020-07-02_11h01.21.475,Experiment_English,3.2.4,MacIntel,60,,,1,0,340,36,1,339,ratio11_9_18_1.png,,,,,,,,,,,,
,,,,,,,,,,,,Half,Most,Few,More than half,Less than half,Many,Some,All,None,0.398588867,0.359575195,1,0,0,QQQ1,,,,,,,,English,2020-07-02_11h01.21.475,Experiment_English,3.2.4,MacIntel,60,,,1,0,340,102,1,339,ratio14_1_5_8.png,,,,,,,,,,,,
,,,,,,,,,,,,Less than half,Many,Half,Some,All,Few,Most,None,More than half,0.106508789,0.302792969,1,0,0,QQQ4,,,,,,,,English,2020-07-02_11h01.21.475,Experiment_English,3.2.4,MacIntel,60,,,1,0,340,271,1,339,ratio41_12_15_6.png,,,,,,,,,,,,
,,,,,,,,,,,,Most,Less than half,Many,Half,Some,None,All,More than half,Few,0.464682617,-0.008012695,1,0,0,QQQ2,,,,,,,,English,2020-07-02_11h01.21.475,Experiment_English,3.2.4,MacIntel,60,,,1,0,340,185,1,339,ratio23_4_10_1.png,0.414746094,-0.396923828,1,0,0,continue_button_pause,1,0,1,0,1,0
,,,,,,,,,,,,,,,,,,,,,,,,,,,,,,,,,,English,2020-07-02_11h01.21.475,Experiment_English,3.2.4,MacIntel,60,,,1,0,340,185,1,339,ratio23_4_10_1.png,,,,,,,,,,,,
,,,,,,,,,,,,Half,None,Many,All,Some,Few,Less than half,More than half,Most,-0.527299805,0.223686523,1,0,0,QQQ7,,,,,,,,English,2020-07-02_11h01.21.475,Experiment_English,3.2.4,MacIntel,60,,,1,0,340,0,1,339,ratio12_1_3_3.png,,,,,,,,,,,,
,,,,,,,,,,,,Less than half,Most,All,More than half,Many,Half,Few,None,Some,0.504804687,0.00440918,1,0,0,QQQ2,,,,,,,,English,2020-07-02_11h01.21.475,Experiment_English,3.2.4,MacIntel,60,,,1,0,340,336,1,339,ratio91_18_20_12.png,,,,,,,,,,,,
,,,,,,,,,,,,None,Some,More than half,Many,Most,Less than half,All,Few,Half,-0.012641602,-0.017299805,1,0,0,QQQ5,,,,,,,,English,2020-07-02_11h01.21.475,Experiment_English,3.2.4,MacIntel,60,,,1,0,340,215,1,339,ratio31_12_16_8.png,,,,,,,,,,,,
,,,,,,,,,,,,Some,Many,Half,All,Few,None,Less than half,More than half,Most,-0.024799805,0.265766602,1,0,0,QQQ4,,,,,,,,English,2020-07-02_11h01.21.475,Experiment_English,3.2.4,MacIntel,60,,,1,0,340,53,1,339,ratioX0_14_14_8.png,,,,,,,,,,,,
,,,,,,,,,,,,All,Most,More than half,None,Half,Less than half,Some,Few,Many,-0.52449707,-0.057841797,1,0,0,QQQ8,,,,,,,,English,2020-07-02_11h01.21.475,Experiment_English,3.2.4,MacIntel,60,,,1,0,340,103,1,339,ratio14_1_5_9.png,,,,,,,,,,,,
,,,,,,,,,,,,All,More than half,Many,Less than half,Half,Most,Few,None,Some,0.023500977,0.246503906,1,0,0,QQQ4,,,,,,,,English,2020-07-02_11h01.21.475,Experiment_English,3.2.4,MacIntel,60,,,1,0,340,5,1,339,ratio12_2_6_9.png,,,,,,,,,,,,
,,,,,,,,,,,,Less than half,Some,All,More than half,Few,Most,Half,None,Many,0.474658203,0.324228516,1,0,0,QQQ1,,,,,,,,English,2020-07-02_11h01.21.475,Experiment_English,3.2.4,MacIntel,60,,,1,0,340,19,1,339,ratio12_6_18_9.png,,,,,,,,,,,,
,,,,,,,,,,,,Half,Most,Less than half,More than half,Few,Some,None,All,Many,0.032871094,0.278466797,1,0,0,QQQ4,,,,,,,,English,2020-07-02_11h01.21.475,Experiment_English,3.2.4,MacIntel,60,,,1,0,340,222,1,339,ratio32_3_5_4.png,,,,,,,,,,,,
,,,,,,,,,,,,Few,None,Less than half,Most,All,More than half,Some,Many,Half,-0.463730469,-0.025219727,1,0,0,QQQ8,,,,,,,,English,2020-07-02_11h01.21.475,Experiment_English,3.2.4,MacIntel,60,,,1,0,340,169,1,339,ratio21_6_9_7.png,,,,,,,,,,,,
,,,,,,,,,,,,All,None,Some,Most,Less than half,More than half,Half,Few,Many,0.051757813,0.253505859,1,0,0,QQQ4,,,,,,,,English,2020-07-02_11h01.21.475,Experiment_English,3.2.4,MacIntel,60,,,1,0,340,272,1,339,ratio41_12_15_7.png,,,,,,,,,,,,
,,,,,,,,,,,,All,More than half,Few,Most,Less than half,Many,Half,Some,None,-0.0315625,-0.307089844,1,0,0,QQQ6,,,,,,,,English,2020-07-02_11h01.21.475,Experiment_English,3.2.4,MacIntel,60,,,1,0,340,175,1,339,ratio21_10_15_2.png,,,,,,,,,,,,
,,,,,,,,,,,,Less than half,Some,All,Most,Half,More than half,Many,None,Few,0.538911133,0.040849609,1,0,0,QQQ2,,,,,,,,English,2020-07-02_11h01.21.475,Experiment_English,3.2.4,MacIntel,60,,,1,0,340,289,1,339,ratio43_4_7_20.png,,,,,,,,,,,,
,,,,,,,,,,,,More than half,Half,Few,None,Most,Less than half,Some,All,Many,0.034228516,0.329228516,1,0,0,QQQ4,,,,,,,,English,2020-07-02_11h01.21.475,Experiment_English,3.2.4,MacIntel,60,,,1,0,340,67,1,339,ratio0Y_0_10_10.png,,,,,,,,,,,,
,,,,,,,,,,,,More than half,Most,Less than half,Some,Half,Many,Few,All,None,-0.05609375,-0.277827148,1,0,0,QQQ6,,,,,,,,English,2020-07-02_11h01.21.475,Experiment_English,3.2.4,MacIntel,60,,,1,0,340,211,1,339,ratio31_9_12_10.png,,,,,,,,,,,,
,,,,,,,,,,,,Many,Less than half,Some,All,More than half,Most,None,Few,Half,-0.004628906,-0.287382812,1,0,0,QQQ6,,,,,,,,English,2020-07-02_11h01.21.475,Experiment_English,3.2.4,MacIntel,60,,,1,0,340,207,1,339,ratio31_6_8_9.png,,,,,,,,,,,,
,,,,,,,,,,,,Less than half,Some,All,More than half,Few,None,Most,Many,Half,0.478183594,-0.046816406,1,0,0,QQQ2,,,,,,,,English,2020-07-02_11h01.21.475,Experiment_English,3.2.4,MacIntel,60,,,1,0,340,85,1,339,ratio13_2_8_5.png,,,,,,,,,,,,
,,,,,,,,,,,,More than half,Less than half,Half,Few,Some,Many,Most,All,None,0.088022461,0.251342773,1,0,0,QQQ4,,,,,,,,English,2020-07-02_11h01.21.475,Experiment_English,3.2.4,MacIntel,60,,,1,0,340,116,1,339,ratio14_4_20_3.png,,,,,,,,,,,,
,,,,,,,,,,,,Most,None,Half,Some,Many,Less than half,Few,All,More than half,0.378022461,0.273491211,1,0,0,QQQ1,,,,,,,,English,2020-07-02_11h01.21.475,Experiment_English,3.2.4,MacIntel,60,,,1,0,340,268,1,339,ratio41_8_10_5.png,,,,,,,,,,,,
,,,,,,,,,,,,Few,More than half,All,Some,Most,Many,Less than half,None,Half,0.058862305,0.239619141,1,0,0,QQQ4,,,,,,,,English,2020-07-02_11h01.21.475,Experiment_English,3.2.4,MacIntel,60,,,1,0,340,99,1,339,ratio13_5_20_4.png,,,,,,,,,,,,
,,,,,,,,,,,,More than half,Some,Few,Less than half,Most,Many,All,None,Half,0.466040039,-0.28640625,1,0,0,QQQ3,,,,,,,,English,2020-07-02_11h01.21.475,Experiment_English,3.2.4,MacIntel,60,,,1,0,340,105,1,339,ratio14_2_10_1.png,,,,,,,,,,,,
,,,,,,,,,,,,Some,Many,More than half,Few,Most,Less than half,All,None,Half,-0.413149414,0.252041016,1,0,0,QQQ7,,,,,,,,English,2020-07-02_11h01.21.475,Experiment_English,3.2.4,MacIntel,60,,,1,0,340,49,1,339,ratioX0_11_11_2.png,,,,,,,,,,,,
,,,,,,,,,,,,Many,Most,Less than half,Some,Few,All,Half,None,More than half,-0.483046875,0.244238281,1,0,0,QQQ7,,,,,,,,English,2020-07-02_11h01.21.475,Experiment_English,3.2.4,MacIntel,60,,,1,0,340,34,1,339,ratio11_8_16_8.png,,,,,,,,,,,,
,,,,,,,,,,,,None,Half,Most,All,Some,Few,Less than half,More than half,Many,0.453828125,-0.256157227,1,0,0,QQQ3,,,,,,,,English,2020-07-02_11h01.21.475,Experiment_English,3.2.4,MacIntel,60,,,1,0,340,170,1,339,ratio21_6_9_8.png,,,,,,,,,,,,
,,,,,,,,,,,,Half,Some,More than half,All,Many,Less than half,Most,Few,None,0.003530273,-0.01949707,1,0,0,QQQ5,,,,,,,,English,2020-07-02_11h01.21.475,Experiment_English,3.2.4,MacIntel,60,,,1,0,340,299,1,339,ratio43_8_14_17.png,,,,,,,,,,,,
,,,,,,,,,,,,All,Few,Half,Many,Less than half,Most,More than half,Some,None,-0.046459961,-0.324658203,1,0,0,QQQ6,,,,,,,,English,2020-07-02_11h01.21.475,Experiment_English,3.2.4,MacIntel,60,,,1,0,340,261,1,339,ratio41_4_5_3.png,,,,,,,,,,,,
,,,,,,,,,,,,All,More than half,Most,Many,Few,None,Half,Less than half,Some,-0.013891602,-0.052553711,1,0,0,QQQ5,,,,,,,,English,2020-07-02_11h01.21.475,Experiment_English,3.2.4,MacIntel,60,,,1,0,340,132,1,339,ratio15_2_12_16.png,,,,,,,,,,,,
,,,,,,,,,,,,None,Some,Many,Most,All,Less than half,Few,More than half,Half,-0.473208008,0.290991211,1,0,0,QQQ7,,,,,,,,English,2020-07-02_11h01.21.475,Experiment_English,3.2.4,MacIntel,60,,,1,0,340,92,1,339,ratio13_4_16_3.png,,,,,,,,,,,,
,,,,,,,,,,,,All,Some,Most,Few,Many,Half,None,More than half,Less than half,0.429892578,-0.326923828,1,0,0,QQQ3,,,,,,,,English,2020-07-02_11h01.21.475,Experiment_English,3.2.4,MacIntel,60,,,1,0,340,285,1,339,ratio43_4_7_14.png,,,,,,,,,,,,
,,,,,,,,,,,,Few,None,Most,More than half,Many,Half,Less than half,All,Some,0.039135742,-0.004550781,1,0,0,QQQ5,,,,,,,,English,2020-07-02_11h01.21.475,Experiment_English,3.2.4,MacIntel,60,,,1,0,340,171,1,339,ratio21_8_12_4.png,,,,,,,,,,,,
,,,,,,,,,,,,All,Most,More than half,Some,Many,Half,Less than half,Few,None,0.010908203,-0.267749023,1,0,0,QQQ6,,,,,,,,English,2020-07-02_11h01.21.475,Experiment_English,3.2.4,MacIntel,60,,,1,0,340,23,1,339,ratio11_3_6_9.png,,,,,,,,,,,,
,,,,,,,,,,,,Most,All,Half,Few,Some,None,Many,More than half,Less than half,0.447011719,0.288671875,1,0,0,QQQ1,,,,,,,,English,2020-07-02_11h01.21.475,Experiment_English,3.2.4,MacIntel,60,,,1,0,340,322,1,339,ratio91_9_10_3.png,,,,,,,,,,,,
,,,,,,,,,,,,Less than half,Most,Half,Many,Some,None,All,Few,More than half,0.04175293,0.03409668,1,0,0,QQQ5,,,,,,,,English,2020-07-02_11h01.21.475,Experiment_English,3.2.4,MacIntel,60,,,1,0,340,129,1,339,ratio15_2_12_9.png,,,,,,,,,,,,
,,,,,,,,,,,,Some,Half,Many,Few,More than half,Less than half,Most,None,All,0.345507813,-0.338320312,1,0,0,QQQ3,,,,,,,,English,2020-07-02_11h01.21.475,Experiment_English,3.2.4,MacIntel,60,,,1,0,340,300,1,339,ratio51_5_6_1.png,,,,,,,,,,,,
,,,,,,,,,,,,Many,Few,All,Half,None,Most,Less than half,Some,More than half,0.028833008,0.237368164,1,0,0,QQQ4,,,,,,,,English,2020-07-02_11h01.21.475,Experiment_English,3.2.4,MacIntel,60,,,1,0,340,39,1,339,ratio11_10_20_6.png,0.320507812,-0.419912109,1,0,0,continue_button_pause,1,0,1,0,1,0
,,,,,,,,,,,,,,,,,,,,,,,,,,,,,,,,,,English,2020-07-02_11h01.21.475,Experiment_English,3.2.4,MacIntel,60,,,1,0,340,39,1,339,ratio11_10_20_6.png,,,,,,,,,,,,
,,,,,,,,,,,,Few,None,Some,Most,All,Many,Half,More than half,Less than half,0.470473633,-0.300209961,1,0,0,QQQ3,,,,,,,,English,2020-07-02_11h01.21.475,Experiment_English,3.2.4,MacIntel,60,,,1,0,340,68,1,339,ratio0Y_0_11_3.png,,,,,,,,,,,,
,,,,,,,,,,,,Most,Less than half,Many,Some,None,Few,All,More than half,Half,0.035507812,0.278852539,1,0,0,QQQ4,,,,,,,,English,2020-07-02_11h01.21.475,Experiment_English,3.2.4,MacIntel,60,,,1,0,340,327,1,339,ratio91_9_10_11.png,,,,,,,,,,,,
,,,,,,,,,,,,Most,Many,None,More than half,Half,Less than half,All,Some,Few,0.432685547,0.241982422,1,0,0,QQQ1,,,,,,,,English,2020-07-02_11h01.21.475,Experiment_English,3.2.4,MacIntel,60,,,1,0,340,304,1,339,ratio51_5_6_13.png,,,,,,,,,,,,
,,,,,,,,,,,,Less than half,More than half,Half,Most,Few,Many,None,All,Some,0.082797852,-0.049770508,1,0,0,QQQ5,,,,,,,,English,2020-07-02_11h01.21.475,Experiment_English,3.2.4,MacIntel,60,,,1,0,340,124,1,339,ratio15_1_6_16.png,,,,,,,,,,,,
,,,,,,,,,,,,Half,Less than half,All,More than half,Most,Many,Few,Some,None,-0.388686523,0.269667969,1,0,0,QQQ7,,,,,,,,English,2020-07-02_11h01.21.475,Experiment_English,3.2.4,MacIntel,60,,,1,0,340,150,1,339,ratio19_2_20_1.png,,,,,,,,,,,,
,,,,,,,,,,,,Many,Half,Some,Few,Most,All,Less than half,More than half,None,0.00234375,0.038325195,1,0,0,QQQ5,,,,,,,,English,2020-07-02_11h01.21.475,Experiment_English,3.2.4,MacIntel,60,,,1,0,340,233,1,339,ratio32_9_15_9.png,,,,,,,,,,,,
,,,,,,,,,,,,Many,More than half,Few,Some,Less than half,Most,Half,All,None,-0.424663086,-0.262216797,1,0,0,QQQ9,,,,,,,,English,2020-07-02_11h01.21.475,Experiment_English,3.2.4,MacIntel,60,,,1,0,340,70,1,339,ratio0Y_0_12_5.png,,,,,,,,,,,,
,,,,,,,,,,,,All,Some,Many,Half,Less than half,More than half,Most,Few,None,-0.103857422,-0.309770508,1,0,0,QQQ6,,,,,,,,English,2020-07-02_11h01.21.475,Experiment_English,3.2.4,MacIntel,60,,,1,0,340,286,1,339,ratio43_4_7_15.png,,,,,,,,,,,,
,,,,,,,,,,,,Some,Few,All,More than half,Many,None,Half,Less than half,Most,-0.100883789,0.261796875,1,0,0,QQQ4,,,,,,,,English,2020-07-02_11h01.21.475,Experiment_English,3.2.4,MacIntel,60,,,1,0,340,226,1,339,ratio32_6_10_5.png,,,,,,,,,,,,
,,,,,,,,,,,,Few,Half,Many,Some,More than half,All,Most,Less than half,None,0.545966797,0.274770508,1,0,0,QQQ1,,,,,,,,English,2020-07-02_11h01.21.475,Experiment_English,3.2.4,MacIntel,60,,,1,0,340,127,1,339,ratio15_2_12_2.png,,,,,,,,,,,,
,,,,,,,,,,,,None,Few,More than half,All,Some,Less than half,Most,Half,Many,0.055375977,0.036640625,1,0,0,QQQ5,,,,,,,,English,2020-07-02_11h01.21.475,Experiment_English,3.2.4,MacIntel,60,,,1,0,340,61,1,339,ratio0Y_0_4_7.png,,,,,,,,,,,,
,,,,,,,,,,,,Many,Half,More than half,Most,Less than half,All,Few,Some,None,0.067480469,0.297128906,1,0,0,QQQ4,,,,,,,,English,2020-07-02_11h01.21.475,Experiment_English,3.2.4,MacIntel,60,,,1,0,340,312,1,339,ratio51_10_12_16.png,,,,,,,,,,,,
,,,,,,,,,,,,Many,More than half,All,None,Most,Some,Less than half,Few,Half,-0.082392578,-0.360366211,1,0,0,QQQ6,,,,,,,,English,2020-07-02_11h01.21.475,Experiment_English,3.2.4,MacIntel,60,,,1,0,340,187,1,339,ratio23_4_10_5.png,,,,,,,,,,,,
,,,,,,,,,,,,Some,More than half,Many,All,Half,Most,Few,Less than half,None,-0.559008789,-0.299125977,1,0,0,QQQ9,,,,,,,,English,2020-07-02_11h01.21.475,Experiment_English,3.2.4,MacIntel,60,,,1,0,340,72,1,339,ratio0Y_0_13_4.png,,,,,,,,,,,,
,,,,,,,,,,,,Most,Half,None,More than half,Many,Some,All,Few,Less than half,-0.023598633,-0.042978516,1,0,0,QQQ5,,,,,,,,English,2020-07-02_11h01.21.475,Experiment_English,3.2.4,MacIntel,60,,,1,0,340,311,1,339,ratio51_10_12_14.png,,,,,,,,,,,,
,,,,,,,,,,,,Many,More than half,Most,Some,Half,Few,All,Less than half,None,0.041694336,0.282695313,1,0,0,QQQ4,,,,,,,,English,2020-07-02_11h01.21.475,Experiment_English,3.2.4,MacIntel,60,,,1,0,340,114,1,339,ratio14_3_15_10.png,,,,,,,,,,,,
,,,,,,,,,,,,None,More than half,Some,Less than half,Most,Many,All,Half,Few,0.055639648,-0.007373047,1,0,0,QQQ5,,,,,,,,English,2020-07-02_11h01.21.475,Experiment_English,3.2.4,MacIntel,60,,,1,0,340,204,1,339,ratio31_6_8_1.png,,,,,,,,,,,,
,,,,,,,,,,,,Many,More than half,Less than half,Most,None,Few,Some,Half,All,0.055639648,-0.002211914,1,0,0,QQQ5,,,,,,,,English,2020-07-02_11h01.21.475,Experiment_English,3.2.4,MacIntel,60,,,1,0,340,69,1,339,ratio0Y_0_11_6.png,,,,,,,,,,,,
,,,,,,,,,,,,None,More than half,Less than half,Few,Half,Some,Most,All,Many,-0.024296875,-0.335151367,1,0,0,QQQ6,,,,,,,,English,2020-07-02_11h01.21.475,Experiment_English,3.2.4,MacIntel,60,,,1,0,340,248,1,339,ratio34_3_7_19.png,,,,,,,,,,,,
,,,,,,,,,,,,Many,None,Most,Few,More than half,Some,Less than half,Half,All,-0.024296875,-0.335151367,1,0,0,QQQ6,,,,,,,,English,2020-07-02_11h01.21.475,Experiment_English,3.2.4,MacIntel,60,,,1,0,340,11,1,339,ratio12_4_12_7.png,,,,,,,,,,,,
,,,,,,,,,,,,None,Half,More than half,Less than half,Some,Most,All,Few,Many,0.064287109,-0.058535156,1,0,0,QQQ5,,,,,,,,English,2020-07-02_11h01.21.475,Experiment_English,3.2.4,MacIntel,60,,,1,0,340,274,1,339,ratio41_12_15_9.png,,,,,,,,,,,,
,,,,,,,,,,,,All,Half,Many,Few,More than half,Most,Some,None,Less than half,-0.039985352,-0.273095703,1,0,0,QQQ6,,,,,,,,English,2020-07-02_11h01.21.475,Experiment_English,3.2.4,MacIntel,60,,,1,0,340,328,1,339,ratio91_9_10_15.png,,,,,,,,,,,,
,,,,,,,,,,,,Half,Many,Less than half,Some,Few,More than half,Most,None,All,-0.39277832,0.242006836,1,0,0,QQQ7,,,,,,,,English,2020-07-02_11h01.21.475,Experiment_English,3.2.4,MacIntel,60,,,1,0,340,303,1,339,ratio51_5_6_6.png,,,,,,,,,,,,
,,,,,,,,,,,,All,Many,None,Some,Less than half,More than half,Most,Half,Few,0.036293945,-0.036767578,1,0,0,QQQ5,,,,,,,,English,2020-07-02_11h01.21.475,Experiment_English,3.2.4,MacIntel,60,,,1,0,340,253,1,339,ratio34_6_14_5.png,,,,,,,,,,,,
,,,,,,,,,,,,Few,Most,Less than half,Some,Many,All,More than half,None,Half,0.505898437,0.286630859,1,0,0,QQQ1,,,,,,,,English,2020-07-02_11h01.21.475,Experiment_English,3.2.4,MacIntel,60,,,1,0,340,107,1,339,ratio14_2_10_5.png,,,,,,,,,,,,
,,,,,,,,,,,,None,All,Some,More than half,Many,Less than half,Most,Few,Half,0.458608398,-0.272304687,1,0,0,QQQ3,,,,,,,,English,2020-07-02_11h01.21.475,Experiment_English,3.2.4,MacIntel,60,,,1,0,340,134,1,339,ratio15_3_18_5.png,,,,,,,,,,,,
,,,,,,,,,,,,Some,Most,Half,None,All,More than half,Less than half,Many,Few,-0.469731445,0.017983398,1,0,0,QQQ8,,,,,,,,English,2020-07-02_11h01.21.475,Experiment_English,3.2.4,MacIntel,60,,,1,0,340,214,1,339,ratio31_12_16_5.png,,,,,,,,,,,,
,,,,,,,,,,,,Some,All,Many,Half,Most,None,Few,Less than half,More than half,0.534345703,0.317709961,1,0,0,QQQ1,,,,,,,,English,2020-07-02_11h01.21.475,Experiment_English,3.2.4,MacIntel,60,,,1,0,340,259,1,339,ratio34_6_14_19.png,,,,,,,,,,,,
,,,,,,,,,,,,Few,More than half,All,Many,Half,Less than half,Some,Most,None,-0.476650391,0.014902344,1,0,0,QQQ8,,,,,,,,English,2020-07-02_11h01.21.475,Experiment_English,3.2.4,MacIntel,60,,,1,0,340,315,1,339,ratio51_15_18_10.png,,,,,,,,,,,,
,,,,,,,,,,,,All,Half,Most,More than half,Many,Less than half,Some,None,Few,-0.631674805,0.360986328,1,0,0,QQQ7,,,,,,,,English,2020-07-02_11h01.21.475,Experiment_English,3.2.4,MacIntel,60,,,1,0,340,181,1,339,ratio23_2_5_6.png,,,,,,,,,,,,
,,,,,,,,,,,,Less than half,None,Many,Few,Half,More than half,Most,Some,All,0.48034668,-0.287319336,1,0,0,QQQ3,,,,,,,,English,2020-07-02_11h01.21.475,Experiment_English,3.2.4,MacIntel,60,,,1,0,340,219,1,339,ratio31_15_20_10.png,,,,,,,,,,,,
,,,,,,,,,,,,All,Few,None,Less than half,Some,Many,Most,More than half,Half,-0.053339844,0.29347168,1,0,0,QQQ4,,,,,,,,English,2020-07-02_11h01.21.475,Experiment_English,3.2.4,MacIntel,60,,,1,0,340,1,1,339,ratio12_1_3_7.png,,,,,,,,,,,,
,,,,,,,,,,,,Less than half,Some,Most,All,More than half,Many,None,Half,Few,0.433540039,0.231811523,1,0,0,QQQ1,,,,,,,,English,2020-07-02_11h01.21.475,Experiment_English,3.2.4,MacIntel,60,,,1,0,340,194,1,339,ratio23_6_15_10.png,,,,,,,,,,,,
,,,,,,,,,,,,All,Many,None,Few,Less than half,More than half,Half,Some,Most,0.053310547,-0.305229492,1,0,0,QQQ6,,,,,,,,English,2020-07-02_11h01.21.475,Experiment_English,3.2.4,MacIntel,60,,,1,0,340,33,1,339,ratio11_7_14_8.png,0.307207031,-0.389672852,1,0,0,continue_button_pause,1,0,1,0,1,0
,,,,,,,,,,,,,,,,,,,,,,,,,,,,,,,,,,English,2020-07-02_11h01.21.475,Experiment_English,3.2.4,MacIntel,60,,,1,0,340,33,1,339,ratio11_7_14_8.png,,,,,,,,,,,,
,,,,,,,,,,,,Less than half,More than half,Some,Few,Many,Most,Half,None,All,0.04605957,-0.274511719,1,0,0,QQQ6,,,,,,,,English,2020-07-02_11h01.21.475,Experiment_English,3.2.4,MacIntel,60,,,1,0,340,277,1,339,ratio41_16_20_8.png,,,,,,,,,,,,
,,,,,,,,,,,,Many,Half,More than half,Few,None,Most,Some,Less than half,All,0.546679687,-0.258759766,1,0,0,QQQ3,,,,,,,,English,2020-07-02_11h01.21.475,Experiment_English,3.2.4,MacIntel,60,,,1,0,340,164,1,339,ratio21_4_6_6.png,,,,,,,,,,,,
,,,,,,,,,,,,Few,Some,None,More than half,Most,Many,Half,Less than half,All,-0.54465332,-0.23074707,1,0,0,QQQ9,,,,,,,,English,2020-07-02_11h01.21.475,Experiment_English,3.2.4,MacIntel,60,,,1,0,340,57,1,339,ratioX0_18_18_1.png,,,,,,,,,,,,
,,,,,,,,,,,,Some,None,Less than half,Few,Most,Many,All,Half,More than half,0.415883789,-0.250024414,1,0,0,QQQ3,,,,,,,,English,2020-07-02_11h01.21.475,Experiment_English,3.2.4,MacIntel,60,,,1,0,340,240,1,339,ratio34_3_7_4.png,,,,,,,,,,,,
,,,,,,,,,,,,More than half,Few,Less than half,All,Most,None,Many,Some,Half,0.417617187,-0.251323242,1,0,0,QQQ3,,,,,,,,English,2020-07-02_11h01.21.475,Experiment_English,3.2.4,MacIntel,60,,,1,0,340,192,1,339,ratio23_6_15_8.png,,,,,,,,,,,,
,,,,,,,,,,,,Half,All,Less than half,Many,More than half,Few,Most,None,Some,-0.551430664,0.287993164,1,0,0,QQQ7,,,,,,,,English,2020-07-02_11h01.21.475,Experiment_English,3.2.4,MacIntel,60,,,1,0,340,201,1,339,ratio31_3_4_7.png,,,,,,,,,,,,
,,,,,,,,,,,,Few,Most,Less than half,None,Half,All,Many,Some,More than half,0.4175,-0.031235352,1,0,0,QQQ2,,,,,,,,English,2020-07-02_11h01.21.475,Experiment_English,3.2.4,MacIntel,60,,,1,0,340,337,1,339,ratio91_18_20_16.png,,,,,,,,,,,,
,,,,,,,,,,,,Few,Less than half,Some,Half,Many,More than half,None,Most,All,0.064086914,0.303994141,1,0,0,QQQ4,,,,,,,,English,2020-07-02_11h01.21.475,Experiment_English,3.2.4,MacIntel,60,,,1,0,340,21,1,339,ratio11_2_4_10.png,,,,,,,,,,,,
,,,,,,,,,,,,Many,Less than half,More than half,None,Some,All,Few,Most,Half,-0.428442383,0.254438477,1,0,0,QQQ7,,,,,,,,English,2020-07-02_11h01.21.475,Experiment_English,3.2.4,MacIntel,60,,,1,0,340,128,1,339,ratio15_2_12_8.png,,,,,,,,,,,,
,,,,,,,,,,,,Most,More than half,Less than half,Many,All,Some,Half,Few,None,0.035322266,0.259648437,1,0,0,QQQ4,,,,,,,,English,2020-07-02_11h01.21.475,Experiment_English,3.2.4,MacIntel,60,,,1,0,340,162,1,339,ratio21_2_3_9.png,,,,,,,,,,,,
,,,,,,,,,,,,All,Few,Half,None,Less than half,More than half,Most,Some,Many,-0.44203125,0.293256836,1,0,0,QQQ7,,,,,,,,English,2020-07-02_11h01.21.475,Experiment_English,3.2.4,MacIntel,60,,,1,0,340,302,1,339,ratio51_5_6_5.png,,,,,,,,,,,,
,,,,,,,,,,,,More than half,Less than half,Few,None,Many,Some,Most,All,Half,0.080297852,0.265795898,1,0,0,QQQ4,,,,,,,,English,2020-07-02_11h01.21.475,Experiment_English,3.2.4,MacIntel,60,,,1,0,340,63,1,339,ratio0Y_0_6_8.png,,,,,,,,,,,,
,,,,,,,,,,,,Few,Most,Some,None,Less than half,More than half,Half,All,Many,0.005332031,0.057294922,1,0,0,QQQ5,,,,,,,,English,2020-07-02_11h01.21.475,Experiment_English,3.2.4,MacIntel,60,,,1,0,340,13,1,339,ratio12_5_15_3.png,,,,,,,,,,,,
,,,,,,,,,,,,Some,Most,More than half,Few,Half,All,Many,Less than half,None,0.425131836,-0.266484375,1,0,0,QQQ3,,,,,,,,English,2020-07-02_11h01.21.475,Experiment_English,3.2.4,MacIntel,60,,,1,0,340,280,1,339,ratio43_4_7_2.png,,,,,,,,,,,,
,,,,,,,,,,,,Some,Many,All,Few,Most,None,Less than half,More than half,Half,0.515883789,0.325600586,1,0,0,QQQ1,,,,,,,,English,2020-07-02_11h01.21.475,Experiment_English,3.2.4,MacIntel,60,,,1,0,340,321,1,339,ratio91_9_10_2.png,,,,,,,,,,,,
,,,,,,,,,,,,More than half,Few,Less than half,Half,Most,Some,All,Many,None,0.060375977,-0.040458984,1,0,0,QQQ5,,,,,,,,English,2020-07-02_11h01.21.475,Experiment_English,3.2.4,MacIntel,60,,,1,0,340,318,1,339,ratio51_15_18_18.png,,,,,,,,,,,,
,,,,,,,,,,,,Most,Many,Less than half,Half,Some,None,More than half,All,Few,0.403798828,-0.287104492,1,0,0,QQQ3,,,,,,,,English,2020-07-02_11h01.21.475,Experiment_English,3.2.4,MacIntel,60,,,1,0,340,257,1,339,ratio34_6_14_12.png,,,,,,,,,,,,
,,,,,,,,,,,,Less than half,None,Most,Few,Half,All,More than half,Some,Many,-0.444335938,0.262373047,1,0,0,QQQ7,,,,,,,,English,2020-07-02_11h01.21.475,Experiment_English,3.2.4,MacIntel,60,,,1,0,340,283,1,339,ratio43_4_7_8.png,,,,,,,,,,,,
,,,,,,,,,,,,Most,All,Half,Less than half,Some,Few,More than half,None,Many,-0.014433594,0.280385742,1,0,0,QQQ4,,,,,,,,English,2020-07-02_11h01.21.475,Experiment_English,3.2.4,MacIntel,60,,,1,0,340,255,1,339,ratio34_6_14_10.png,,,,,,,,,,,,
,,,,,,,,,,,,Most,None,More than half,All,Less than half,Many,Half,Few,Some,-0.00612793,0.063706055,1,0,0,QQQ5,,,,,,,,English,2020-07-02_11h01.21.475,Experiment_English,3.2.4,MacIntel,60,,,1,0,340,247,1,339,ratio34_3_7_12.png,,,,,,,,,,,,
,,,,,,,,,,,,Less than half,Many,All,Some,Half,None,Most,Few,More than half,0.481948242,0.296889648,1,0,0,QQQ1,,,,,,,,English,2020-07-02_11h01.21.475,Experiment_English,3.2.4,MacIntel,60,,,1,0,340,131,1,339,ratio15_2_12_14.png,,,,,,,,,,,,
,,,,,,,,,,,,Few,More than half,Most,Half,Many,Less than half,Some,None,All,-0.506103516,-0.329711914,1,0,0,QQQ9,,,,,,,,English,2020-07-02_11h01.21.475,Experiment_English,3.2.4,MacIntel,60,,,1,0,340,45,1,339,ratioX0_8_8_3.png,,,,,,,,,,,,
,,,,,,,,,,,,Less than half,More than half,All,Some,Few,Many,Most,None,Half,0.482485352,-0.017578125,1,0,0,QQQ2,,,,,,,,English,2020-07-02_11h01.21.475,Experiment_English,3.2.4,MacIntel,60,,,1,0,340,298,1,339,ratio43_8_14_14.png,,,,,,,,,,,,
,,,,,,,,,,,,Few,Half,Less than half,Some,None,Most,Many,More than half,All,0.039072266,0.263320312,1,0,0,QQQ4,,,,,,,,English,2020-07-02_11h01.21.475,Experiment_English,3.2.4,MacIntel,60,,,1,0,340,269,1,339,ratio41_8_10_6.png,,,,,,,,,,,,
,,,,,,,,,,,,All,Most,Few,More than half,Many,Half,None,Some,Less than half,0.555727539,-0.297602539,1,0,0,QQQ3,,,,,,,,English,2020-07-02_11h01.21.475,Experiment_English,3.2.4,MacIntel,60,,,1,0,340,115,1,339,ratio14_4_20_1.png,,,,,,,,,,,,
,,,,,,,,,,,,Few,Less than half,More than half,Many,Most,All,Some,Half,None,0.442827148,-0.033154297,1,0,0,QQQ2,,,,,,,,English,2020-07-02_11h01.21.475,Experiment_English,3.2.4,MacIntel,60,,,1,0,340,196,1,339,ratio23_8_20_5.png,,,,,,,,,,,,
,,,,,,,,,,,,Few,All,Some,Half,None,Most,Many,More than half,Less than half,-0.468442383,-0.266772461,1,0,0,QQQ9,,,,,,,,English,2020-07-02_11h01.21.475,Experiment_English,3.2.4,MacIntel,60,,,1,0,340,18,1,339,ratio12_6_18_7.png,,,,,,,,,,,,
,,,,,,,,,,,,Most,All,More than half,Some,Many,Less than half,None,Half,Few,-0.44003418,-0.250063477,1,0,0,QQQ9,,,,,,,,English,2020-07-02_11h01.21.475,Experiment_English,3.2.4,MacIntel,60,,,1,0,340,154,1,339,ratio19_2_20_11.png,,,,,,,,,,,,
,,,,,,,,,,,,More than half,Many,Some,Most,Half,All,None,Few,Less than half,-0.469838867,-0.235507812,1,0,0,QQQ9,,,,,,,,English,2020-07-02_11h01.21.475,Experiment_English,3.2.4,MacIntel,60,,,1,0,340,3,1,339,ratio12_2_6_3.png,,,,,,,,,,,,
,,,,,,,,,,,,Few,Many,None,Half,Some,All,Most,More than half,Less than half,-0.511142578,-0.065722656,1,0,0,QQQ8,,,,,,,,English,2020-07-02_11h01.21.475,Experiment_English,3.2.4,MacIntel,60,,,1,0,340,295,1,339,ratio43_8_14_11.png,,,,,,,,,,,,
,,,,,,,,,,,,All,Most,Less than half,More than half,Half,Few,Many,Some,None,0.406723633,-0.273457031,1,0,0,QQQ3,,,,,,,,English,2020-07-02_11h01.21.475,Experiment_English,3.2.4,MacIntel,60,,,1,0,340,256,1,339,ratio34_6_14_11.png,,,,,,,,,,,,
,,,,,,,,,,,,Many,Most,Few,All,More than half,Less than half,Some,None,Half,0.047060547,-0.032236328,1,0,0,QQQ5,,,,,,,,English,2020-07-02_11h01.21.475,Experiment_English,3.2.4,MacIntel,60,,,1,0,340,293,1,339,ratio43_8_14_7.png,,,,,,,,,,,,
,,,,,,,,,,,,None,All,More than half,Less than half,Some,Half,Few,Many,Most,0.078417969,-0.285063477,1,0,0,QQQ6,,,,,,,,English,2020-07-02_11h01.21.475,Experiment_English,3.2.4,MacIntel,60,,,1,0,340,191,1,339,ratio23_6_15_7.png,,,,,,,,,,,,
,,,,,,,,,,,,None,More than half,Some,All,Less than half,Few,Most,Half,Many,0.034560547,-0.312788086,1,0,0,QQQ6,,,,,,,,English,2020-07-02_11h01.21.475,Experiment_English,3.2.4,MacIntel,60,,,1,0,340,338,1,339,ratio91_18_20_18.png,0.263623047,-0.416191406,1,0,0,continue_button_pause,1,0,1,0,1,0
,,,,,,,,,,,,,,,,,,,,,,,,,,,,,,,,,,English,2020-07-02_11h01.21.475,Experiment_English,3.2.4,MacIntel,60,,,1,0,340,338,1,339,ratio91_18_20_18.png,,,,,,,,,,,,
,,,,,,,,,,,,None,All,Many,More than half,Few,Half,Some,Less than half,Most,-0.036762695,-0.010776367,1,0,0,QQQ5,,,,,,,,English,2020-07-02_11h01.21.475,Experiment_English,3.2.4,MacIntel,60,,,1,0,340,16,1,339,ratio12_5_15_6.png,,,,,,,,,,,,
,,,,,,,,,,,,Many,More than half,Most,Less than half,Some,Few,None,All,Half,-0.398422852,0.258344727,1,0,0,QQQ7,,,,,,,,English,2020-07-02_11h01.21.475,Experiment_English,3.2.4,MacIntel,60,,,1,0,340,64,1,339,ratio0Y_0_7_1.png,,,,,,,,,,,,
,,,,,,,,,,,,Few,More than half,All,Some,Less than half,None,Most,Many,Half,0.461210937,-0.03434082,1,0,0,QQQ2,,,,,,,,English,2020-07-02_11h01.21.475,Experiment_English,3.2.4,MacIntel,60,,,1,0,340,205,1,339,ratio31_6_8_2.png,,,,,,,,,,,,
,,,,,,,,,,,,Some,Few,Many,Less than half,Most,More than half,None,All,Half,0.05171875,0.276030273,1,0,0,QQQ4,,,,,,,,English,2020-07-02_11h01.21.475,Experiment_English,3.2.4,MacIntel,60,,,1,0,340,258,1,339,ratio34_6_14_14.png,,,,,,,,,,,,
,,,,,,,,,,,,Less than half,None,Many,Most,More than half,Few,Half,All,Some,0.486767578,-0.322724609,1,0,0,QQQ3,,,,,,,,English,2020-07-02_11h01.21.475,Experiment_English,3.2.4,MacIntel,60,,,1,0,340,228,1,339,ratio32_6_10_7.png,,,,,,,,,,,,
,,,,,,,,,,,,All,Less than half,Most,Many,Few,More than half,Half,Some,None,-0.569931641,0.262080078,1,0,0,QQQ7,,,,,,,,English,2020-07-02_11h01.21.475,Experiment_English,3.2.4,MacIntel,60,,,1,0,340,239,1,339,ratio32_12_20_10.png,,,,,,,,,,,,
,,,,,,,,,,,,None,Most,Half,All,Some,Many,Few,More than half,Less than half,0.505239258,-0.079394531,1,0,0,QQQ2,,,,,,,,English,2020-07-02_11h01.21.475,Experiment_English,3.2.4,MacIntel,60,,,1,0,340,335,1,339,ratio91_18_20_11.png,,,,,,,,,,,,
,,,,,,,,,,,,Few,Most,Some,Many,Less than half,All,None,Half,More than half,0.510229492,-0.037763672,1,0,0,QQQ2,,,,,,,,English,2020-07-02_11h01.21.475,Experiment_English,3.2.4,MacIntel,60,,,1,0,340,203,1,339,ratio31_3_4_9.png,,,,,,,,,,,,
,,,,,,,,,,,,Some,Few,Less than half,Half,More than half,Many,None,Most,All,0.039995117,-0.308027344,1,0,0,QQQ6,,,,,,,,English,2020-07-02_11h01.21.475,Experiment_English,3.2.4,MacIntel,60,,,1,0,340,213,1,339,ratio31_12_16_2.png,,,,,,,,,,,,
,,,,,,,,,,,,None,Some,Many,Most,Few,Half,All,More than half,Less than half,0.440200195,-0.286313477,1,0,0,QQQ3,,,,,,,,English,2020-07-02_11h01.21.475,Experiment_English,3.2.4,MacIntel,60,,,1,0,340,331,1,339,ratio91_18_20_3.png,,,,,,,,,,,,
,,,,,,,,,,,,Some,Most,Half,None,Less than half,Many,All,Few,More than half,-0.486020508,0.051796875,1,0,0,QQQ8,,,,,,,,English,2020-07-02_11h01.21.475,Experiment_English,3.2.4,MacIntel,60,,,1,0,340,96,1,339,ratio13_5_20_1.png,,,,,,,,,,,,
,,,,,,,,,,,,Many,Less than half,Few,More than half,All,Some,Half,Most,None,0.404921875,-0.272578125,1,0,0,QQQ3,,,,,,,,English,2020-07-02_11h01.21.475,Experiment_English,3.2.4,MacIntel,60,,,1,0,340,82,1,339,ratio13_1_4_7.png,,,,,,,,,,,,
,,,,,,,,,,,,Many,Less than half,More than half,Some,None,Half,Most,All,Few,-0.04581543,0.263701172,1,0,0,QQQ4,,,,,,,,English,2020-07-02_11h01.21.475,Experiment_English,3.2.4,MacIntel,60,,,1,0,340,20,1,339,ratio11_2_4_3.png,,,,,,,,,,,,
,,,,,,,,,,,,Less than half,All,Some,Half,Most,Few,None,More than half,Many,0.08597168,-0.231708984,1,0,0,QQQ6,,,,,,,,English,2020-07-02_11h01.21.475,Experiment_English,3.2.4,MacIntel,60,,,1,0,340,123,1,339,ratio15_1_6_12.png,,,,,,,,,,,,
,,,,,,,,,,,,Some,All,None,Few,More than half,Most,Less than half,Many,Half,0.024467773,0.29644043,1,0,0,QQQ4,,,,,,,,English,2020-07-02_11h01.21.475,Experiment_English,3.2.4,MacIntel,60,,,1,0,340,122,1,339,ratio15_1_6_7.png,,,,,,,,,,,,
,,,,,,,,,,,,Less than half,Some,Most,None,More than half,Half,Many,All,Few,0.440083008,0.291660156,1,0,0,QQQ1,,,,,,,,English,2020-07-02_11h01.21.475,Experiment_English,3.2.4,MacIntel,60,,,1,0,340,29,1,339,ratio11_6_12_1.png,,,,,,,,,,,,
,,,,,,,,,,,,Some,Most,Half,Many,Few,None,Less than half,More than half,All,0.391357422,0.005332031,1,0,0,QQQ2,,,,,,,,English,2020-07-02_11h01.21.475,Experiment_English,3.2.4,MacIntel,60,,,1,0,340,306,1,339,ratio51_5_6_18.png,,,,,,,,,,,,
,,,,,,,,,,,,More than half,Half,Less than half,Few,None,All,Some,Most,Many,0.515771484,0.043110352,1,0,0,QQQ2,,,,,,,,English,2020-07-02_11h01.21.475,Experiment_English,3.2.4,MacIntel,60,,,1,0,340,236,1,339,ratio32_12_20_2.png,,,,,,,,,,,,
,,,,,,,,,,,,More than half,Few,Most,Some,Less than half,Many,All,Half,None,0.460620117,0.288730469,1,0,0,QQQ1,,,,,,,,English,2020-07-02_11h01.21.475,Experiment_English,3.2.4,MacIntel,60,,,1,0,340,224,1,339,ratio32_3_5_10.png,,,,,,,,,,,,
,,,,,,,,,,,,Some,Less than half,None,More than half,Few,Many,Most,All,Half,0.434213867,-0.275341797,1,0,0,QQQ3,,,,,,,,English,2020-07-02_11h01.21.475,Experiment_English,3.2.4,MacIntel,60,,,1,0,340,65,1,339,ratio0Y_0_8_4.png,,,,,,,,,,,,
,,,,,,,,,,,,More than half,Less than half,Most,None,Few,Many,Half,Some,All,0.472426758,0.292963867,1,0,0,QQQ1,,,,,,,,English,2020-07-02_11h01.21.475,Experiment_English,3.2.4,MacIntel,60,,,1,0,340,220,1,339,ratio32_3_5_1.png,,,,,,,,,,,,
,,,,,,,,,,,,Many,More than half,All,Less than half,None,Some,Half,Most,Few,0.011914062,0.258989258,1,0,0,QQQ4,,,,,,,,English,2020-07-02_11h01.21.475,Experiment_English,3.2.4,MacIntel,60,,,1,0,340,110,1,339,ratio14_3_15_2.png,,,,,,,,,,,,
,,,,,,,,,,,,Few,More than half,Half,None,Some,Most,Less than half,All,Many,-0.366264648,0.037045898,1,0,0,QQQ8,,,,,,,,English,2020-07-02_11h01.21.475,Experiment_English,3.2.4,MacIntel,60,,,1,0,340,51,1,339,ratioX0_12_12_9.png,,,,,,,,,,,,
,,,,,,,,,,,,Many,None,Less than half,Most,Some,More than half,Half,All,Few,-0.395410156,0.284072266,1,0,0,QQQ7,,,,,,,,English,2020-07-02_11h01.21.475,Experiment_English,3.2.4,MacIntel,60,,,1,0,340,237,1,339,ratio32_12_20_5.png,,,,,,,,,,,,
,,,,,,,,,,,,Some,Many,More than half,Half,None,Most,Few,All,Less than half,0.496557617,-0.257851563,1,0,0,QQQ3,,,,,,,,English,2020-07-02_11h01.21.475,Experiment_English,3.2.4,MacIntel,60,,,1,0,340,278,1,339,ratio41_16_20_9.png,,,,,,,,,,,,
,,,,,,,,,,,,All,Some,Half,More than half,Less than half,Most,Few,None,Many,0.025415039,0.30828125,1,0,0,QQQ4,,,,,,,,English,2020-07-02_11h01.21.475,Experiment_English,3.2.4,MacIntel,60,,,1,0,340,320,1,339,ratio91_9_10_1.png,,,,,,,,,,,,
,,,,,,,,,,,,All,Less than half,Many,Most,None,Some,Half,Few,More than half,-0.096708984,-0.331342773,1,0,0,QQQ6,,,,,,,,English,2020-07-02_11h01.21.475,Experiment_English,3.2.4,MacIntel,60,,,1,0,340,177,1,339,ratio21_12_18_1.png,,,,,,,,,,,,
,,,,,,,,,,,,Half,Few,Some,More than half,None,Many,Less than half,Most,All,0.064614258,0.264541016,1,0,0,QQQ4,,,,,,,,English,2020-07-02_11h01.21.475,Experiment_English,3.2.4,MacIntel,60,,,1,0,340,266,1,339,ratio41_8_10_2.png,,,,,,,,,,,,
,,,,,,,,,,,,More than half,Some,Most,Half,Few,None,All,Many,Less than half,0.108037109,-0.038935547,1,0,0,QQQ5,,,,,,,,English,2020-07-02_11h01.21.475,Experiment_English,3.2.4,MacIntel,60,,,1,0,340,246,1,339,ratio34_3_7_11.png,,,,,,,,,,,,
,,,,,,,,,,,,Many,Less than half,More than half,Half,Few,All,Most,Some,None,0.118183594,0.27328125,1,0,0,QQQ4,,,,,,,,English,2020-07-02_11h01.21.475,Experiment_English,3.2.4,MacIntel,60,,,1,0,340,38,1,339,ratio11_10_20_5.png,,,,,,,,,,,,
,,,,,,,,,,,,None,Most,Few,All,Less than half,Many,Some,Half,More than half,0.019179688,0.035751953,1,0,0,QQQ5,,,,,,,,English,2020-07-02_11h01.21.475,Experiment_English,3.2.4,MacIntel,60,,,1,0,340,189,1,339,ratio23_4_10_8.png,,,,,,,,,,,,
,,,,,,,,,,,,Many,More than half,Less than half,Some,All,Half,Few,None,Most,0.107485352,-0.28097168,1,0,0,QQQ6,,,,,,,,English,2020-07-02_11h01.21.475,Experiment_English,3.2.4,MacIntel,60,,,1,0,340,225,1,339,ratio32_6_10_4.png,,,,,,,,,,,,
,,,,,,,,,,,,None,Most,Many,Few,Less than half,Half,Some,More than half,All,0.068837891,0.001069336,1,0,0,QQQ5,,,,,,,,English,2020-07-02_11h01.21.475,Experiment_English,3.2.4,MacIntel,60,,,1,0,340,197,1,339,ratio23_8_20_6.png,,,,,,,,,,,,
,,,,,,,,,,,,None,Most,More than half,Many,Less than half,All,Few,Some,Half,0.459702148,-0.252470703,1,0,0,QQQ3,,,,,,,,English,2020-07-02_11h01.21.475,Experiment_English,3.2.4,MacIntel,60,,,1,0,340,28,1,339,ratio11_5_10_9.png,0.423710937,-0.377675781,1,0,0,continue_button_pause,1,0,1,0,1,0
,,,,,,,,,,,,,,,,,,,,,,,,,,,,,,,,,,English,2020-07-02_11h01.21.475,Experiment_English,3.2.4,MacIntel,60,,,1,0,340,28,1,339,ratio11_5_10_9.png,,,,,,,,,,,,
,,,,,,,,,,,,Some,Most,Many,More than half,Few,All,Half,Less than half,None,-0.400844727,0.000874023,1,0,0,QQQ8,,,,,,,,English,2020-07-02_11h01.21.475,Experiment_English,3.2.4,MacIntel,60,,,1,0,340,243,1,339,ratio34_3_7_8.png,,,,,,,,,,,,
,,,,,,,,,,,,Some,More than half,All,Few,Many,None,Most,Half,Less than half,0.027255859,0.260541992,1,0,0,QQQ4,,,,,,,,English,2020-07-02_11h01.21.475,Experiment_English,3.2.4,MacIntel,60,,,1,0,340,126,1,339,ratio15_2_12_1.png,,,,,,,,,,,,
,,,,,,,,,,,,Half,Less than half,Few,More than half,All,Some,Many,None,Most,0.398959961,-0.251259766,1,0,0,QQQ3,,,,,,,,English,2020-07-02_11h01.21.475,Experiment_English,3.2.4,MacIntel,60,,,1,0,340,104,1,339,ratio14_1_5_10.png,,,,,,,,,,,,
,,,,,,,,,,,,None,Few,Some,Many,More than half,All,Half,Most,Less than half,-0.444663086,0.005820312,1,0,0,QQQ8,,,,,,,,English,2020-07-02_11h01.21.475,Experiment_English,3.2.4,MacIntel,60,,,1,0,340,330,1,339,ratio91_18_20_2.png,,,,,,,,,,,,
,,,,,,,,,,,,Half,More than half,Few,Less than half,Some,Many,Most,None,All,-0.407421875,0.263266602,1,0,0,QQQ7,,,,,,,,English,2020-07-02_11h01.21.475,Experiment_English,3.2.4,MacIntel,60,,,1,0,340,264,1,339,ratio41_4_5_6.png,,,,,,,,,,,,
,,,,,,,,,,,,Many,All,Few,Some,Most,None,More than half,Half,Less than half,-0.067470703,0.219790039,1,0,0,QQQ4,,,,,,,,English,2020-07-02_11h01.21.475,Experiment_English,3.2.4,MacIntel,60,,,1,0,340,182,1,339,ratio23_2_5_7.png,,,,,,,,,,,,
,,,,,,,,,,,,Few,Some,Many,More than half,Half,All,Most,None,Less than half,0.460834961,0.310717773,1,0,0,QQQ1,,,,,,,,English,2020-07-02_11h01.21.475,Experiment_English,3.2.4,MacIntel,60,,,1,0,340,86,1,339,ratio13_2_8_6.png,,,,,,,,,,,,
,,,,,,,,,,,,Less than half,Some,More than half,None,Few,Many,Half,Most,All,-0.482216797,0.004082031,1,0,0,QQQ8,,,,,,,,English,2020-07-02_11h01.21.475,Experiment_English,3.2.4,MacIntel,60,,,1,0,340,173,1,339,ratio21_8_12_9.png,,,,,,,,,,,,
,,,,,,,,,,,,Less than half,Half,Some,Few,Many,None,All,More than half,Most,0.384433594,-0.290644531,1,0,0,QQQ3,,,,,,,,English,2020-07-02_11h01.21.475,Experiment_English,3.2.4,MacIntel,60,,,1,0,340,160,1,339,ratio21_2_3_2.png,,,,,,,,,,,,
,,,,,,,,,,,,All,Less than half,More than half,Half,Many,Few,None,Most,Some,0.031401367,-0.017563477,1,0,0,QQQ5,,,,,,,,English,2020-07-02_11h01.21.475,Experiment_English,3.2.4,MacIntel,60,,,1,0,340,218,1,339,ratio31_15_20_7.png,,,,,,,,,,,,
,,,,,,,,,,,,Some,Few,All,Less than half,More than half,Many,Most,None,Half,0.579853516,0.317255859,1,0,0,QQQ1,,,,,,,,English,2020-07-02_11h01.21.475,Experiment_English,3.2.4,MacIntel,60,,,1,0,340,157,1,339,ratio19_2_20_16.png,,,,,,,,,,,,
,,,,,,,,,,,,Less than half,Many,More than half,Half,All,Some,Few,None,Most,-0.408222656,0.035253906,1,0,0,QQQ8,,,,,,,,English,2020-07-02_11h01.21.475,Experiment_English,3.2.4,MacIntel,60,,,1,0,340,79,1,339,ratio0Y_0_20_4.png,,,,,,,,,,,,
,,,,,,,,,,,,Less than half,More than half,Most,Half,Many,All,Few,Some,None,-0.434658203,-0.259697266,1,0,0,QQQ9,,,,,,,,English,2020-07-02_11h01.21.475,Experiment_English,3.2.4,MacIntel,60,,,1,0,340,78,1,339,ratio0Y_0_19_1.png,,,,,,,,,,,,
,,,,,,,,,,,,Some,Less than half,Half,None,More than half,All,Most,Many,Few,-0.073916016,-0.090883789,1,0,0,QQQ5,,,,,,,,English,2020-07-02_11h01.21.475,Experiment_English,3.2.4,MacIntel,60,,,1,0,340,282,1,339,ratio43_4_7_7.png,,,,,,,,,,,,
,,,,,,,,,,,,Less than half,Half,None,More than half,Many,Some,All,Most,Few,0.470942383,-0.338237305,1,0,0,QQQ3,,,,,,,,English,2020-07-02_11h01.21.475,Experiment_English,3.2.4,MacIntel,60,,,1,0,340,75,1,339,ratio0Y_0_16_10.png,,,,,,,,,,,,
,,,,,,,,,,,,All,Half,None,Most,Some,Many,Few,Less than half,More than half,0.458022461,-0.042578125,1,0,0,QQQ2,,,,,,,,English,2020-07-02_11h01.21.475,Experiment_English,3.2.4,MacIntel,60,,,1,0,340,245,1,339,ratio34_3_7_10.png,,,,,,,,,,,,
,,,,,,,,,,,,More than half,Half,Many,Most,Some,None,All,Less than half,Few,0.473378906,0.291782227,1,0,0,QQQ1,,,,,,,,English,2020-07-02_11h01.21.475,Experiment_English,3.2.4,MacIntel,60,,,1,0,340,208,1,339,ratio31_9_12_3.png,,,,,,,,,,,,
,,,,,,,,,,,,More than half,Most,Few,Less than half,None,Many,Half,Some,All,0.037026367,0.285424805,1,0,0,QQQ4,,,,,,,,English,2020-07-02_11h01.21.475,Experiment_English,3.2.4,MacIntel,60,,,1,0,340,249,1,339,ratio34_3_7_20.png,,,,,,,,,,,,
,,,,,,,,,,,,Some,Less than half,Half,More than half,Few,All,Many,Most,None,0.436416016,0.041386719,1,0,0,QQQ2,,,,,,,,English,2020-07-02_11h01.21.475,Experiment_English,3.2.4,MacIntel,60,,,1,0,340,198,1,339,ratio23_8_20_7.png,,,,,,,,,,,,
,,,,,,,,,,,,Half,Some,Many,Few,Most,All,More than half,None,Less than half,0.098740234,-0.053276367,1,0,0,QQQ5,,,,,,,,English,2020-07-02_11h01.21.475,Experiment_English,3.2.4,MacIntel,60,,,1,0,340,165,1,339,ratio21_4_6_10.png,,,,,,,,,,,,
,,,,,,,,,,,,Most,Some,All,None,Many,Few,More than half,Half,Less than half,0.439941406,-0.287709961,1,0,0,QQQ3,,,,,,,,English,2020-07-02_11h01.21.475,Experiment_English,3.2.4,MacIntel,60,,,1,0,340,40,1,339,ratioX0_3_3_5.png,,,,,,,,,,,,
,,,,,,,,,,,,Less than half,Some,All,Most,Half,None,More than half,Many,Few,0.480761719,0.294384766,1,0,0,QQQ1,,,,,,,,English,2020-07-02_11h01.21.475,Experiment_English,3.2.4,MacIntel,60,,,1,0,340,146,1,339,ratio19_1_10_17.png,,,,,,,,,,,,
,,,,,,,,,,,,Half,Most,Some,Few,All,None,Many,Less than half,More than half,-0.454526367,0.278320313,1,0,0,QQQ7,,,,,,,,English,2020-07-02_11h01.21.475,Experiment_English,3.2.4,MacIntel,60,,,1,0,340,281,1,339,ratio43_4_7_4.png,,,,,,,,,,,,
,,,,,,,,,,,,Some,All,Most,Many,Less than half,Few,More than half,None,Half,-0.465722656,-0.261694336,1,0,0,QQQ9,,,,,,,,English,2020-07-02_11h01.21.475,Experiment_English,3.2.4,MacIntel,60,,,1,0,340,27,1,339,ratio11_5_10_7.png,,,,,,,,,,,,
,,,,,,,,,,,,None,Half,Many,Most,All,More than half,Some,Less than half,Few,-0.39878418,-0.284643555,1,0,0,QQQ9,,,,,,,,English,2020-07-02_11h01.21.475,Experiment_English,3.2.4,MacIntel,60,,,1,0,340,80,1,339,ratio13_1_4_3.png,,,,,,,,,,,,
,,,,,,,,,,,,Many,All,None,Half,Most,Few,More than half,Less than half,Some,-0.050942383,-0.284853516,1,0,0,QQQ6,,,,,,,,English,2020-07-02_11h01.21.475,Experiment_English,3.2.4,MacIntel,60,,,1,0,340,120,1,339,ratio15_1_6_1.png,,,,,,,,,,,,
,,,,,,,,,,,,All,More than half,Less than half,Some,None,Most,Few,Half,Many,-0.437568359,0.224052734,1,0,0,QQQ7,,,,,,,,English,2020-07-02_11h01.21.475,Experiment_English,3.2.4,MacIntel,60,,,1,0,340,145,1,339,ratio19_1_10_15.png,,,,,,,,,,,,
,,,,,,,,,,,,All,Most,More than half,Some,Many,Half,Less than half,None,Few,-0.478012695,0.347915039,1,0,0,QQQ7,,,,,,,,English,2020-07-02_11h01.21.475,Experiment_English,3.2.4,MacIntel,60,,,1,0,340,8,1,339,ratio12_3_9_4.png,,,,,,,,,,,,
,,,,,,,,,,,,Most,None,Few,Less than half,More than half,Many,Some,All,Half,0.487426758,0.259370117,1,0,0,QQQ1,,,,,,,,English,2020-07-02_11h01.21.475,Experiment_English,3.2.4,MacIntel,60,,,1,0,340,276,1,339,ratio41_16_20_4.png,,,,,,,,,,,,
,,,,,,,,,,,,Most,Half,Few,Many,None,Less than half,All,Some,More than half,0.514511719,-0.259116211,1,0,0,QQQ3,,,,,,,,English,2020-07-02_11h01.21.475,Experiment_English,3.2.4,MacIntel,60,,,1,0,340,158,1,339,ratio19_2_20_17.png,,,,,,,,,,,,
,,,,,,,,,,,,More than half,Most,Less than half,Few,None,Half,Many,All,Some,0.411606445,-0.271645508,1,0,0,QQQ3,,,,,,,,English,2020-07-02_11h01.21.475,Experiment_English,3.2.4,MacIntel,60,,,1,0,340,183,1,339,ratio23_2_5_9.png,,,,,,,,,,,,
,,,,,,,,,,,,Many,More than half,Half,Few,Some,Less than half,None,Most,All,-0.072128906,0.318374023,1,0,0,QQQ4,,,,,,,,English,2020-07-02_11h01.21.475,Experiment_English,3.2.4,MacIntel,60,,,1,0,340,81,1,339,ratio13_1_4_5.png,,,,,,,,,,,,
,,,,,,,,,,,,Few,None,All,Most,Half,Less than half,Many,Some,More than half,0.410307617,-0.250263672,1,0,0,QQQ3,,,,,,,,English,2020-07-02_11h01.21.475,Experiment_English,3.2.4,MacIntel,60,,,1,0,340,50,1,339,ratioX0_12_12_3.png,,,,,,,,,,,,
,,,,,,,,,,,,None,Some,Few,Less than half,More than half,Half,All,Most,Many,0.557670898,-0.239077148,1,0,0,QQQ3,,,,,,,,English,2020-07-02_11h01.21.475,Experiment_English,3.2.4,MacIntel,60,,,1,0,340,136,1,339,ratio15_3_18_8.png,,,,,,,,,,,,
